time,gyroscope_x,gyroscope_y,gyroscope_z,accelerometer_x,accelerometer_y,accelerometer_z,phase
2024-06-14 11:53:41.701,-491.365,-464.76500000000004,0.28000000000000025,2.7379240000000005,0.8666879999999997,-0.9762440000000003,1
2024-06-14 11:53:41.706,-378.63,-107.1,12.11,-3.24764,-0.9118279999999999,1.114104,1
2024-06-14 11:53:41.711,-436.59000000000003,-160.79,11.584999999999999,-0.343308,0.05002000000000001,-1.672132,1
2024-06-14 11:53:41.716,-391.16,-245.77,-22.61,-1.537444,0.47165199999999996,-1.382016,1
2024-06-14 11:53:41.721,-297.115,-291.40999999999997,-54.53,-0.30231600000000003,0.314028,-1.7387439999999998,1
2024-06-14 11:53:41.726,-170.83499999999998,-307.335,-82.075,0.26108,0.7017439999999999,-2.124264,1
2024-06-14 11:53:41.731,-66.99,-303.905,-108.78,0.715896,0.5626639999999999,-2.3589919999999998,1
2024-06-14 11:53:41.735,11.690000000000001,-296.485,-123.725,0.628056,0.444324,-2.54492,1
2024-06-14 11:53:41.740,48.58,-283.18499999999995,-122.78,0.290848,0.589748,-2.438536,1
2024-06-14 11:53:41.745,50.085,-268.69500000000005,-103.39,-0.020496,0.8801079999999999,-2.2826199999999996,1
2024-06-14 11:53:41.750,50.26,-251.72000000000003,-67.97,-0.014395999999999996,1.028948,-2.068144,1
2024-06-14 11:53:41.755,41.894999999999996,-235.34,-26.39,0.11053199999999999,0.92354,-1.96542,1
2024-06-14 11:53:41.760,34.965,-214.34,11.34,0.157136,0.6378159999999999,-1.83122,1
2024-06-14 11:53:41.764,36.575,-190.575,33.775,0.105652,0.16836,-1.7611919999999999,1
2024-06-14 11:53:41.769,31.045,-162.78500000000003,32.864999999999995,0.040992,-0.255956,-1.652612,1
2024-06-14 11:53:41.774,32.165,-129.605,14.629999999999999,0.054900000000000004,-0.449448,-1.5640399999999999,1
2024-06-14 11:53:41.779,26.775,-98.0,-10.71,0.024399999999999998,-0.538508,-1.48352,1
2024-06-14 11:53:41.784,17.044999999999998,-75.81,-29.645,0.026596,-0.28548,-1.28466,1
2024-06-14 11:53:41.789,8.54,-54.879999999999995,-36.435,0.030987999999999998,-0.086864,-1.313208,1
2024-06-14 11:53:41.794,0.8400000000000001,-27.265,-31.08,0.054655999999999996,0.080764,-1.2768519999999999,1
2024-06-14 11:53:41.798,3.045,-9.94,-18.69,0.025376,0.054412,-1.1760799999999998,1
2024-06-14 11:53:41.803,1.26,-3.01,-13.58,0.08149600000000001,-0.038307999999999995,-1.1819359999999999,1
2024-06-14 11:53:41.808,1.505,1.155,-14.385,0.066368,-0.073688,-1.189012,1
2024-06-14 11:53:41.813,2.275,1.4,-15.68,0.010492,-0.030012,-1.183888,1
2024-06-14 11:53:41.818,1.365,-5.529999999999999,-14.945,-0.083448,-0.0012199999999999997,-1.119716,2
2024-06-14 11:53:41.823,-0.21000000000000002,-9.030000000000001,-11.83,-0.102724,0.054655999999999996,-1.071892,2
2024-06-14 11:53:41.827,0.175,-8.75,-7.035,-0.05221599999999999,0.08588799999999999,-1.06506,2
2024-06-14 11:53:41.832,0.35000000000000003,-9.66,-3.325,-0.029767999999999996,0.043188000000000004,-1.0772599999999999,2
2024-06-14 11:53:41.837,2.415,-12.145,-2.94,-0.061488,0.027816,-1.075552,2
2024-06-14 11:53:41.842,3.7800000000000002,-14.98,-2.8,-0.094672,-0.013908,-1.0570080000000002,2
2024-06-14 11:53:41.847,3.2199999999999998,-16.485,-2.66,-0.106384,-0.026595999999999998,-1.043588,2
2024-06-14 11:53:41.852,1.8900000000000001,-17.5,-2.24,-0.096868,-0.018056000000000003,-1.0506639999999998,2
2024-06-14 11:53:41.857,1.155,-20.125,-1.855,-0.089548,-0.00024399999999999986,-1.058228,2
2024-06-14 11:53:41.861,1.505,-23.555,-1.6800000000000002,-0.09223200000000001,0.003172,-1.0614,2
2024-06-14 11:53:41.866,2.17,-26.81,-1.575,-0.09223200000000001,-0.00244,-1.055056,2
2024-06-14 11:53:41.871,2.4850000000000003,-29.12,-1.505,-0.095648,-0.010003999999999999,-1.0567639999999998,2
2024-06-14 11:53:41.876,2.7649999999999997,-30.134999999999998,-1.47,-0.100528,-0.011956,-1.05286,2
2024-06-14 11:53:41.881,2.66,-30.66,-1.435,-0.088572,-0.007319999999999999,-1.046272,2
2024-06-14 11:53:41.886,3.01,-31.045,-1.4,-0.09394,-0.004636,-1.041392,2
2024-06-14 11:53:41.890,3.01,-32.235,-1.54,-0.08393600000000001,-0.012931999999999999,-1.033096,2
2024-06-14 11:53:41.895,3.1500000000000004,-32.97,-1.47,-0.084668,-0.013176,-1.0335839999999998,2
2024-06-14 11:53:41.900,2.905,-33.635000000000005,-1.54,-0.08588799999999999,-0.015616000000000001,-1.027484,2
2024-06-14 11:53:41.905,2.59,-34.09,-1.47,-0.083448,-0.018056,-1.02358,2
2024-06-14 11:53:41.910,3.92,-33.739999999999995,-1.295,-0.079544,-0.013908,-1.024068,2
2024-06-14 11:53:41.915,5.529999999999999,-32.55,-1.12,-0.061487999999999994,-0.011712,-1.0072320000000001,2
2024-06-14 11:53:41.920,5.390000000000001,-33.285,-1.0150000000000001,-0.072712,-0.019032,-1.0108920000000001,2
2024-06-14 11:53:41.924,4.2,-28.805,-1.19,-0.06661199999999999,-0.014395999999999999,-1.012112,2
2024-06-14 11:53:41.929,4.27,-31.36,-0.98,-0.060756,-0.014884,-1.0133320000000001,2
2024-06-14 11:53:41.934,3.78,-27.895000000000003,-0.875,-0.057828,-0.018056,-1.007476,2
2024-06-14 11:53:41.939,2.835,-29.47,-0.77,-0.058072,-0.018543999999999998,-1.005036,2
2024-06-14 11:53:41.944,2.17,-25.689999999999998,-0.5599999999999999,-0.058803999999999995,-0.024888,-1.0079639999999999,2
2024-06-14 11:53:41.949,1.3649999999999998,-25.865000000000002,-0.5599999999999999,-0.061976,-0.022692,-1.00772,2
2024-06-14 11:53:41.953,0.315,-24.744999999999997,-0.175,-0.060267999999999995,-0.024888,-1.0116239999999999,2
2024-06-14 11:53:41.958,-1.47,-24.29,0.07,-0.061488,-0.030255999999999998,-1.0084520000000001,2
2024-06-14 11:53:41.963,-2.9400000000000004,-20.16,0.17500000000000002,-0.058316,-0.035379999999999995,-1.004548,2
2024-06-14 11:53:41.968,-4.515000000000001,-23.729999999999997,0.525,-0.047824,-0.02928,-1.004792,2
2024-06-14 11:53:41.973,-5.705,-23.1,0.7,-0.040016,-0.017567999999999997,-1.009428,2
2024-06-14 11:53:41.978,-5.984999999999999,-22.54,0.665,-0.040016,-0.014152,-1.009428,2
2024-06-14 11:53:41.983,-6.335000000000001,-22.365000000000002,0.735,-0.04148,-0.011956,-1.00894,2
2024-06-14 11:53:41.987,-6.475,-21.0,0.8400000000000001,-0.040504,-0.015616,-1.014796,2
2024-06-14 11:53:41.992,-6.545,-20.79,0.8049999999999999,-0.046116000000000004,-0.01098,-1.0182120000000001,2
2024-06-14 11:53:41.997,-4.62,-19.564999999999998,0.77,-0.040748,-0.00024400000000000008,-1.027728,2
2024-06-14 11:53:42.002,-6.195,-21.385,1.155,-0.038064,0.005856,-1.029924,2
2024-06-14 11:53:42.007,-5.355,-21.525,0.9099999999999999,-0.035868,0.0,-1.032852,2
2024-06-14 11:53:42.012,-4.970000000000001,-21.945,0.875,-0.032208,-0.001464,-1.03578,2
2024-06-14 11:53:42.016,-4.795,-22.365,0.77,-0.030012,-0.008296000000000001,-1.030412,2
2024-06-14 11:53:42.021,-4.655,-22.225,0.77,-0.026108,-0.0075639999999999995,-1.028948,2
2024-06-14 11:53:42.026,-5.005000000000001,-22.155,0.9450000000000001,-0.01952,-0.010248,-1.02846,2
2024-06-14 11:53:42.031,-5.425000000000001,-19.04,0.9450000000000001,-0.017568,-0.016104,-1.025776,2
2024-06-14 11:53:42.036,-5.5649999999999995,-20.72,1.33,-0.021471999999999998,-0.016592000000000003,-1.023336,2
2024-06-14 11:53:42.041,-6.195,-20.685,1.75,-0.014884000000000001,-0.01098,-1.02114,2
2024-06-14 11:53:42.046,-6.720000000000001,-19.634999999999998,1.9250000000000003,-0.012687999999999998,-0.015616,-1.022116,2
2024-06-14 11:53:42.050,-7.035,-18.795,2.135,-0.011467999999999999,-0.017568,-1.019188,2
2024-06-14 11:53:42.055,-7.455,-18.2,2.38,-0.011224,-0.010248,-1.021872,2
2024-06-14 11:53:42.060,-7.875,-17.64,2.6950000000000003,-0.008296,-0.012444,-1.01748,2
2024-06-14 11:53:42.067,-7.98,-16.275,2.9050000000000002,-0.0060999999999999995,-0.004148,-1.0187,2
2024-06-14 11:53:42.072,-8.120000000000001,-15.61,2.87,-0.005856,-0.002927999999999999,-1.026508,2
2024-06-14 11:53:42.077,-8.085,-15.329999999999998,2.9050000000000002,-0.010248,-0.007076,-1.0250439999999998,2
2024-06-14 11:53:42.081,-8.085,-14.7,2.7649999999999997,-0.011468,-0.003416,-1.03334,2
2024-06-14 11:53:42.086,-6.65,-14.245000000000001,2.87,-0.011467999999999999,0.002196,-1.040416,2
2024-06-14 11:53:42.091,-6.6850000000000005,-15.120000000000001,2.8,-0.008296000000000001,0.003659999999999999,-1.0384639999999998,2
2024-06-14 11:53:42.096,-6.79,-16.310000000000002,2.73,-0.002928,0.004392,-1.0438319999999999,2
2024-06-14 11:53:42.101,-6.93,-24.465,2.87,-0.004148,0.004148,-1.04554,2
2024-06-14 11:53:42.106,-6.965,-19.564999999999998,2.2750000000000004,-0.007564,0.00244,-1.0472480000000002,2
2024-06-14 11:53:42.110,-7.245,-21.21,2.1,-0.009028000000000001,-0.001708,-1.053592,2
2024-06-14 11:53:42.115,-7.3149999999999995,-15.645,1.75,-0.008052,-0.006588,-1.0716480000000002,2
2024-06-14 11:53:42.120,-9.345,-27.439999999999998,2.205,-0.01098,-0.009028,-1.0735999999999999,2
2024-06-14 11:53:42.125,-11.515,-31.15,2.17,-0.008052,-0.010003999999999999,-1.079456,3
2024-06-14 11:53:42.130,-12.809999999999999,-34.614999999999995,2.52,-0.00244,-0.016348,-1.0848239999999998,3
2024-06-14 11:53:42.135,-15.015,-38.394999999999996,2.835,-0.0017079999999999999,-0.027084,-1.093364,3
2024-06-14 11:53:42.139,-18.41,-43.75,3.115,-0.0061,-0.025863999999999998,-1.0967799999999999,3
2024-06-14 11:53:42.144,-19.705,-53.06,3.92,-0.00024399999999999986,-0.044408,-1.1141039999999998,3
2024-06-14 11:53:42.149,-19.6,-58.975,4.970000000000001,0.007076,-0.039284,-1.1236199999999998,3
2024-06-14 11:53:42.154,-17.675,-62.965,6.02,0.012199999999999999,-0.021471999999999998,-1.1526560000000001,3
2024-06-14 11:53:42.159,-14.875,-70.63,6.125,-0.00244,-0.014884000000000001,-1.2214639999999999,3
2024-06-14 11:53:42.163,-9.274999999999999,-74.9,6.895,-0.0017079999999999999,0.047092,-1.27612,3
2024-06-14 11:53:42.168,-5.075,-79.80000000000001,6.4399999999999995,-0.0021959999999999996,-0.015615999999999998,-1.2683119999999999,3
2024-06-14 11:53:42.173,0.9450000000000001,-78.225,7.875,0.00048799999999999994,0.054655999999999996,-1.48718,3
2024-06-14 11:53:42.178,-3.325,-73.815,7.035,0.014152,0.04636,-1.2160959999999998,3
2024-06-14 11:53:42.183,8.504999999999999,-99.575,7.175000000000001,-0.004148000000000001,0.12566,-1.369084,3
2024-06-14 11:53:42.188,15.575,-92.53999999999999,6.895,-0.026595999999999998,0.24790399999999999,-1.616988,3
2024-06-14 11:53:42.192,15.96,-102.75999999999999,1.855,-0.009516,0.138592,-1.639436,3
2024-06-14 11:53:42.197,18.515,-108.85,-0.735,-0.00854,0.129564,-1.4805920000000001,3
2024-06-14 11:53:42.202,20.79,-119.28,-2.485,-0.010492,0.09881999999999999,-1.545984,3
2024-06-14 11:53:42.207,21.735,-131.35500000000002,-3.885,-0.0075639999999999995,0.07442,-1.5533039999999998,3
2024-06-14 11:53:42.212,25.655,-142.31,-4.55,-0.016348,0.06953999999999999,-1.5791680000000001,3
2024-06-14 11:53:42.217,28.875,-155.19,-5.355,-0.032451999999999995,0.08247199999999999,-1.6103999999999998,3
2024-06-14 11:53:42.221,30.695,-171.01,-6.755,-0.020739999999999998,0.099552,-1.6826240000000001,3
2024-06-14 11:53:42.226,32.760000000000005,-181.125,-7.035,-0.009759999999999998,-0.06831999999999999,-1.6784759999999999,3
2024-06-14 11:53:42.231,34.824999999999996,-185.5,-6.16,-0.035136,0.056852,-1.570872,3
2024-06-14 11:53:42.236,25.9,-210.07,-7.525,-0.002196,0.07564,-1.6347999999999998,3
2024-06-14 11:53:42.241,0.9800000000000004,-237.09,-8.995000000000001,-0.07466400000000001,0.184708,-2.135732,3
2024-06-14 11:53:42.246,31.115000000000002,-227.325,-5.46,-0.04514,-0.09418399999999999,-1.17852,3
2024-06-14 11:53:42.250,20.16,-249.9,-5.25,-0.056364,-0.026840000000000003,-1.8834359999999999,3
2024-06-14 11:53:42.255,18.689999999999998,-264.53,-4.9350000000000005,-0.05392399999999999,-0.027572,-1.768024,3
2024-06-14 11:53:42.260,19.564999999999998,-281.12,-4.375,-0.077592,0.0014639999999999996,-1.87392,3
2024-06-14 11:53:42.265,15.190000000000001,-299.845,-4.76,-0.088084,-0.013664000000000003,-1.919304,3
2024-06-14 11:53:42.270,9.905000000000001,-317.905,-3.99,-0.117364,-0.12468399999999999,-1.9573679999999998,3
2024-06-14 11:53:42.275,5.18,-337.29499999999996,-1.295,-0.12980799999999998,-0.19032,-2.0366679999999997,3
2024-06-14 11:53:42.279,-4.095,-358.015,2.0300000000000002,-0.15567199999999998,-0.27645200000000003,-2.015196,3
2024-06-14 11:53:42.284,-12.11,-379.47,6.755,-0.163236,-0.32622799999999996,-2.068632,3
2024-06-14 11:53:42.289,-19.25,-400.61,11.620000000000001,-0.16616399999999998,-0.32744799999999996,-2.1740399999999998,3
2024-06-14 11:53:42.294,-27.369999999999997,-423.99,15.855,-0.11077599999999999,-0.272548,-2.3455719999999998,3
2024-06-14 11:53:42.299,-35.56,-447.405,18.060000000000002,-0.096868,-0.23887599999999998,-2.497828,3
2024-06-14 11:53:42.303,-43.155,-469.49,18.655,-0.041236,-0.28425999999999996,-2.690344,3
2024-06-14 11:53:42.308,-46.375,-489.755,20.72,0.11419199999999999,-0.264984,-2.86212,3
2024-06-14 11:53:42.313,-52.394999999999996,-503.58000000000004,20.825000000000003,0.283772,-0.180804,-3.168828,3
2024-06-14 11:53:42.318,-53.584999999999994,-506.31,19.32,0.5643719999999999,-0.112484,-3.3706159999999996,3
2024-06-14 11:53:42.323,-53.41,-505.61,17.395000000000003,0.7883640000000001,-0.157868,-3.2827759999999997,3
2024-06-14 11:53:42.328,-52.150000000000006,-504.45500000000004,16.38,0.816424,-0.22618799999999997,-3.4020919999999997,4
2024-06-14 11:53:42.332,-42.349999999999994,-502.425,17.465,0.589992,-0.273036,-3.357928,4
2024-06-14 11:53:42.337,-30.835,-485.905,24.36,0.560712,-0.1647,-3.45626,4
2024-06-14 11:53:42.342,-40.635000000000005,-481.39,25.795,0.274744,0.028303999999999996,-3.491152,4
2024-06-14 11:53:42.347,-57.504999999999995,-479.67499999999995,24.64,-0.254248,0.053436,-3.2993680000000003,4
2024-06-14 11:53:42.352,-74.75999999999999,-466.2,22.645,-0.62098,-0.009760000000000001,-3.08416,4
2024-06-14 11:53:42.357,-90.405,-458.325,20.265,-1.040416,-0.215696,-3.001932,4
2024-06-14 11:53:42.361,-94.08,-445.62,20.23,-1.280756,-0.431148,-2.7298720000000003,4
2024-06-14 11:53:42.366,-87.255,-435.78499999999997,24.534999999999997,-1.521828,-0.65758,-2.406084,4
2024-06-14 11:53:42.371,-74.025,-425.635,31.745,-1.819508,-0.8325279999999999,-2.08376,4
2024-06-14 11:53:42.376,-53.935,-411.39,44.065,-2.106696,-0.949892,-1.702388,4
2024-06-14 11:53:42.381,-29.224999999999998,-398.58000000000004,60.620000000000005,-2.287988,-0.92354,-1.269288,4
2024-06-14 11:53:42.386,-2.24,-394.415,78.225,-1.921744,-0.905972,-0.8662,4
2024-06-14 11:53:42.390,31.955,-413.28,89.6,-0.91378,-1.23708,-0.604144,4
2024-06-14 11:53:42.395,73.465,-340.97,110.075,-0.86254,-1.020896,-1.718248,4
2024-06-14 11:53:42.400,109.9,-206.43,127.995,-1.7265439999999999,-0.51484,-1.810724,4
2024-06-14 11:53:42.405,109.23500000000001,-90.545,112.49000000000001,-2.31312,-0.288408,-1.50304,4
2024-06-14 11:53:42.410,70.38499999999999,38.22,90.93,-2.55468,0.6934480000000001,-0.22496799999999997,4
2024-06-14 11:53:42.415,13.335,120.435,67.9,-2.0864439999999997,0.527772,-0.9481839999999999,4
2024-06-14 11:53:42.419,-34.615,185.745,39.025,-1.6750599999999998,0.37429599999999996,-1.292468,4
2024-06-14 11:53:42.424,-73.22,235.095,15.469999999999999,-1.4457,0.176168,-1.1248399999999998,4
2024-06-14 11:53:42.429,-95.97,257.075,-2.94,-1.36762,0.015128,-1.023092,4
2024-06-14 11:53:42.434,-104.405,269.395,-14.175,-1.3066200000000001,-0.146156,-0.8844999999999998,4
2024-06-14 11:53:42.439,-100.905,274.505,-19.145,-1.20902,-0.294996,-0.771528,4
2024-06-14 11:53:42.444,-87.5,275.79999999999995,-19.634999999999998,-1.101172,-0.392596,-0.715896,4
2024-06-14 11:53:42.448,-68.355,274.225,-17.884999999999998,-1.01626,-0.463356,-0.675392,4
2024-06-14 11:53:42.453,-46.69,272.44,-15.61,-0.95282,-0.491904,-0.625616,4
2024-06-14 11:53:42.458,-26.18,271.07500000000005,-12.985,-0.909388,-0.480924,-0.5758399999999999,4
2024-06-14 11:53:42.463,-8.434999999999999,271.775,-9.205,-0.8630279999999999,-0.453352,-0.5660799999999999,4
2024-06-14 11:53:42.468,5.460000000000001,274.225,-5.18,-0.826672,-0.40991999999999995,-0.589992,4
2024-06-14 11:53:42.472,14.805,277.54999999999995,-1.715,-0.784704,-0.35087199999999996,-0.6156119999999999,4
2024-06-14 11:53:42.477,19.775,281.75,0.875,-0.754448,-0.290116,-0.647332,4
2024-06-14 11:53:42.482,20.509999999999998,285.81,2.38,-0.72346,-0.23887599999999998,-0.678076,4
2024-06-14 11:53:42.487,18.55,289.73,3.1500000000000004,-0.6919839999999999,-0.19495600000000002,-0.71736,4
2024-06-14 11:53:42.492,15.225000000000001,293.44,3.2199999999999998,-0.649284,-0.165676,-0.75518,4
2024-06-14 11:53:42.497,11.969999999999999,297.64,3.08,-0.613904,-0.148352,-0.7915359999999999,4
2024-06-14 11:53:42.501,10.535,302.71500000000003,2.835,-0.578768,-0.140544,-0.8242320000000001,4
2024-06-14 11:53:42.506,11.095,308.63,2.66,-0.549244,-0.134932,-0.852536,4
2024-06-14 11:53:42.511,13.58,316.04999999999995,2.66,-0.51728,-0.13298,-0.887672,4
2024-06-14 11:53:42.516,17.115000000000002,323.82000000000005,2.625,-0.4941,-0.12224399999999999,-0.931348,4
2024-06-14 11:53:42.521,20.965,332.675,2.555,-0.47165199999999996,-0.101748,-0.9720960000000001,4
2024-06-14 11:53:42.526,24.745,341.42499999999995,2.065,-0.451644,-0.072712,-1.01626,4
2024-06-14 11:53:42.530,28.105,349.125,1.295,-0.429684,-0.053436,-1.063352,4
2024-06-14 11:53:42.535,30.975,356.23,-0.27999999999999997,-0.407968,-0.03172,-1.1143480000000001,4
2024-06-14 11:53:42.540,33.285,361.725,-1.8900000000000001,-0.388204,-0.005612000000000001,-1.14802,4
2024-06-14 11:53:42.545,35.629999999999995,366.24,-4.13,-0.374052,0.022448,-1.175348,4
2024-06-14 11:53:42.550,38.045,368.935,-6.72,-0.359168,0.041968000000000005,-1.22366,4
2024-06-14 11:53:42.555,40.845,370.37,-9.45,-0.34648,0.06344,-1.286368,4
2024-06-14 11:53:42.559,43.435,371.105,-12.6,-0.332572,0.086376,-1.360056,4
2024-06-14 11:53:42.564,45.885,371.42,-15.715,-0.314516,0.109068,-1.41886,4
2024-06-14 11:53:42.569,47.845,371.63,-18.725,-0.306708,0.12395199999999999,-1.48474,4
2024-06-14 11:53:42.574,49.21,372.71500000000003,-21.595,-0.29524,0.139568,-1.5615999999999999,4
2024-06-14 11:53:42.579,49.80500000000001,375.06,-24.15,-0.29402000000000006,0.15567199999999998,-1.6443159999999999,4
2024-06-14 11:53:42.584,49.525000000000006,378.42,-26.494999999999997,-0.293288,0.17275200000000002,-1.72996,4
2024-06-14 11:53:42.588,48.055,382.16499999999996,-28.700000000000003,-0.293044,0.187392,-1.8148719999999998,4
2024-06-14 11:53:42.593,46.235,386.365,-30.729999999999997,-0.28914,0.206668,-1.905152,4
2024-06-14 11:53:42.598,43.75,389.79499999999996,-32.269999999999996,-0.27815999999999996,0.20666800000000002,-2.003972,4
2024-06-14 11:53:42.603,41.545,392.21000000000004,-33.355000000000004,-0.25107599999999997,0.21032800000000001,-2.110112,4
2024-06-14 11:53:42.608,39.515,392.49,-33.285,-0.219112,0.227896,-2.2018560000000003,4
2024-06-14 11:53:42.615,39.06,389.76,-28.455,-0.18544,0.27523200000000003,-2.29116,4
2024-06-14 11:53:42.619,38.92,384.265,-25.200000000000003,-0.05734,0.129564,-2.414868,4
2024-06-14 11:53:42.624,38.5,377.755,-29.365000000000002,0.044408,0.071736,-2.507344,4
2024-06-14 11:53:42.629,38.955,366.695,-28.945,0.10857999999999998,0.120292,-2.6251960000000003,4
2024-06-14 11:53:42.634,40.144999999999996,353.395,-25.9,0.19861600000000001,0.09076799999999999,-2.7347520000000003,4
2024-06-14 11:53:42.639,41.58,338.415,-21.98,0.288652,0.06124400000000001,-2.864316,4
2024-06-14 11:53:42.643,42.945,323.92499999999995,-17.43,0.38381200000000004,0.037087999999999996,-2.994612,4
2024-06-14 11:53:42.648,41.86,311.01,-13.265,0.5060560000000001,0.03172,-3.0985560000000003,4
2024-06-14 11:53:42.653,38.08,300.78999999999996,-10.219999999999999,0.634644,0.021471999999999998,-3.1717560000000002,4
2024-06-14 11:53:42.658,33.18,292.74,-8.365,0.7803119999999999,-0.016348,-3.250568,4
2024-06-14 11:53:42.663,28.945,285.88,-7.84,0.9718519999999999,-0.06831999999999999,-3.3154719999999998,4
2024-06-14 11:53:42.667,25.62,281.295,-8.89,1.18584,-0.137128,-3.335236,4
2024-06-14 11:53:42.672,23.240000000000002,278.28499999999997,-10.745000000000001,1.415688,-0.201544,-3.312544,4
2024-06-14 11:53:42.677,21.525,278.565,-13.09,1.6577359999999999,-0.281576,-3.23178,4
2024-06-14 11:53:42.682,19.985,281.12,-16.135,1.885632,-0.368684,-3.168828,4
2024-06-14 11:53:42.687,18.375,286.895,-18.9,2.1001079999999996,-0.46555199999999997,-3.059272,4
2024-06-14 11:53:42.691,18.83,294.91,-20.405,2.298724,-0.593164,-2.9345879999999998,4
2024-06-14 11:53:42.696,23.485,304.325,-19.425,2.478064,-0.703452,-2.757688,4
2024-06-14 11:53:42.701,35.42,314.685,-15.120000000000001,2.61812,-0.7917799999999999,-2.5517519999999996,4
2024-06-14 11:53:42.706,55.825,322.66499999999996,-7.56,2.7493920000000003,-0.819108,-2.3729000000000005,4
2024-06-14 11:53:42.711,83.30000000000001,326.76,1.75,2.9265359999999996,-0.731512,-2.2228399999999997,4
2024-06-14 11:53:42.716,113.89,324.975,11.585,3.145892,-0.580964,-2.08376,4
2024-06-14 11:53:42.720,142.45,317.905,20.86,3.370616,-0.363316,-1.95932,4
2024-06-14 11:53:42.725,165.06,304.78,28.525,3.64902,-0.112728,-1.854644,4
2024-06-14 11:53:42.730,178.39499999999998,287.98,34.894999999999996,4.00526,0.110044,-1.739964,4
2024-06-14 11:53:42.735,181.57999999999998,268.03,40.705,4.330024,0.314028,-1.5962480000000001,4
2024-06-14 11:53:42.740,174.79000000000002,244.54500000000002,46.2,4.554992,0.5002,-1.389092,4
2024-06-14 11:53:42.744,160.93,217.14,51.345,4.70798,0.6612399999999999,-1.237568,4
2024-06-14 11:53:42.749,138.77499999999998,183.925,55.685,4.801432,0.788608,-1.175348,4
2024-06-14 11:53:42.754,109.445,145.215,59.36,4.8007,0.8742519999999999,-1.163148,4
2024-06-14 11:53:42.759,73.36,101.95500000000001,62.615,4.705052,0.9130480000000001,-1.161196,4
2024-06-14 11:53:42.764,32.235,57.995,65.52000000000001,4.539376,0.905728,-1.165344,4
2024-06-14 11:53:42.768,-10.605,16.03,69.09,4.290984,0.812276,-1.19316,4
2024-06-14 11:53:42.773,-51.695,-21.56,74.27000000000001,4.0020880000000005,0.6697799999999999,-1.237324,4
2024-06-14 11:53:42.778,-87.32499999999999,-53.235,81.06,3.6919639999999996,0.482144,-1.3212599999999999,4
2024-06-14 11:53:42.783,-113.4,-77.875,88.69,3.3776919999999997,0.315492,-1.429596,4
2024-06-14 11:53:42.788,-129.99,-95.86500000000001,96.14500000000001,3.03902,0.19080799999999998,-1.5437880000000002,4
2024-06-14 11:53:42.792,-175.035,-195.685,75.775,0.928664,0.283528,0.218136,4
