time,gyroscope_x,gyroscope_y,gyroscope_z,accelerometer_x,accelerometer_y,accelerometer_z,phase
2024-06-14 11:35:22.454,-313.425,-395.15,16.975,0.43163599999999996,0.23131199999999996,-6.589708,1
2024-06-14 11:35:22.459,-332.885,-333.9,15.260000000000002,-0.824964,0.43432,-0.51728,1
2024-06-14 11:35:22.464,-350.175,-271.005,-10.045,-2.2648080000000004,-0.9708759999999999,-1.9376039999999999,1
2024-06-14 11:35:22.469,-130.515,-185.5,-21.42,-0.827892,-0.052704,-0.999424,1
2024-06-14 11:35:22.473,-127.19,-239.68,-55.370000000000005,-1.1758359999999999,-0.190076,-0.542656,1
2024-06-14 11:35:22.478,-76.125,-284.935,-78.85499999999999,-0.566324,-0.136884,-0.94672,1
2024-06-14 11:35:22.483,-55.055,-322.77,-90.265,0.06856399999999999,0.13054,-1.3041800000000001,1
2024-06-14 11:35:22.488,-30.835,-344.505,-88.025,0.427488,0.34428400000000003,-1.528416,1
2024-06-14 11:35:22.493,-28.525,-352.38,-84.0,0.40552799999999994,0.11785200000000001,-2.1920960000000003,1
2024-06-14 11:35:22.498,-88.48,-325.92,-84.56,0.5321640000000001,0.10003999999999999,-2.439024,1
2024-06-14 11:35:22.502,-52.535,-262.28999999999996,-65.555,0.540216,0.766648,-2.761104,1
2024-06-14 11:35:22.507,-61.004999999999995,-214.02499999999998,-38.64,0.37039199999999994,0.492636,-2.2940880000000003,1
2024-06-14 11:35:22.512,-103.32,-135.975,-27.265,0.362828,-0.111508,-2.847724,1
2024-06-14 11:35:22.517,-79.52000000000001,-35.42,-20.195,0.37990799999999997,0.1891,-2.6122639999999997,1
2024-06-14 11:35:22.522,-41.370000000000005,-13.684999999999999,-21.42,0.052704,-0.004148,-1.438136,1
2024-06-14 11:35:22.527,-36.19,-41.475,-30.835,0.235704,-0.13883600000000001,-1.47986,1
2024-06-14 11:35:22.532,-25.445,-30.975,-32.83,0.389912,-0.003172000000000001,-1.5840480000000001,1
2024-06-14 11:35:22.536,-21.35,-31.78,-30.45,0.244732,0.13273600000000002,-1.47864,1
2024-06-14 11:35:22.541,-18.095,-29.68,-24.534999999999997,0.04367599999999999,0.111264,-1.238788,1
2024-06-14 11:35:22.546,-17.36,-29.785,-15.925,-0.027815999999999997,0.14762,-1.141188,1
2024-06-14 11:35:22.551,-12.775,-27.755,-5.845000000000001,-0.008783999999999998,0.110288,-1.118984,1
2024-06-14 11:35:22.556,-5.39,-25.235,-3.57,-0.009028,0.118584,-1.08336,1
2024-06-14 11:35:22.561,0.28,-21.805,-6.23,0.030255999999999998,0.019276,-1.061156,1
2024-06-14 11:35:22.565,-0.27999999999999997,-18.305,-8.05,0.050508,-0.075152,-1.061156,1
2024-06-14 11:35:22.570,-5.8100000000000005,-14.035,-7.035,0.029524,-0.079056,-1.0509079999999997,1
2024-06-14 11:35:22.575,-10.254999999999999,-9.59,-4.76,0.002928,-0.02562,-1.047492,2
2024-06-14 11:35:22.580,-10.78,-6.404999999999999,-3.08,-0.015615999999999998,0.027084,-1.051884,2
2024-06-14 11:35:22.585,-8.225,-4.654999999999999,-2.94,-0.022935999999999998,0.051728,-1.086044,2
2024-06-14 11:35:22.590,-4.48,-7.0,-3.185,-0.025863999999999998,0.031232000000000003,-1.1138599999999999,2
2024-06-14 11:35:22.595,-2.415,-10.745000000000001,-3.01,-0.039772,0.014395999999999999,-1.122644,2
2024-06-14 11:35:22.599,-1.155,-16.205000000000002,-2.625,-0.061487999999999994,0.0046359999999999995,-1.1067839999999998,2
2024-06-14 11:35:22.604,-0.21000000000000002,-22.785,-2.52,-0.076128,-0.004392,-1.103856,2
2024-06-14 11:35:22.609,-0.27999999999999997,-29.295,-2.31,-0.07685999999999998,0.002928,-1.113128,2
2024-06-14 11:35:22.614,0.385,-35.105000000000004,-2.17,-0.06539199999999999,0.020007999999999998,-1.120692,2
2024-06-14 11:35:22.619,1.75,-39.760000000000005,-2.45,-0.049288,0.042212,-1.120936,2
2024-06-14 11:35:22.624,4.445,-43.33,-3.01,-0.049044000000000004,0.0488,-1.0753080000000002,2
2024-06-14 11:35:22.628,6.93,-44.94,-3.605,-0.05367999999999999,0.034404,-1.120936,2
2024-06-14 11:35:22.633,8.33,-47.459999999999994,-3.535,-0.047091999999999995,-0.0024399999999999995,-1.118008,2
2024-06-14 11:35:22.638,7.525,-49.7,-3.08,-0.037087999999999996,-0.020007999999999998,-1.1153239999999998,2
2024-06-14 11:35:22.643,5.775,-51.065,-2.695,-0.016835999999999997,-0.022204,-1.102392,2
2024-06-14 11:35:22.648,2.9050000000000002,-52.22,-2.24,-0.004392,-0.038308,-1.093364,2
2024-06-14 11:35:22.653,-3.115,-37.975,-2.73,-0.014152,-0.007076,-1.0857999999999999,2
2024-06-14 11:35:22.658,1.435,-54.215,-1.96,-0.0017079999999999999,0.016836,-1.077992,2
2024-06-14 11:35:22.662,1.6800000000000002,-53.375,-2.275,0.008784,0.030255999999999998,-1.058472,2
2024-06-14 11:35:22.667,2.8,-51.695,-2.415,0.02196,0.028304,-1.05408,2
2024-06-14 11:35:22.672,4.234999999999999,-50.855000000000004,-2.87,0.022936,0.036112,-1.054568,2
2024-06-14 11:35:22.677,5.215,-51.065,-3.395,0.027816,0.030988,-1.06262,2
2024-06-14 11:35:22.682,7.3149999999999995,-52.465,-3.6399999999999997,0.028304000000000003,0.019276,-1.0606679999999997,2
2024-06-14 11:35:22.687,10.115,-52.745000000000005,-3.1500000000000004,0.02684,0.0039040000000000004,-1.063352,2
2024-06-14 11:35:22.691,13.79,-47.705,-2.17,0.02806,0.0019519999999999997,-1.06506,2
2024-06-14 11:35:22.696,16.835,-44.695,-1.435,0.035624,-0.002928,-1.064816,2
2024-06-14 11:35:22.701,16.45,-43.61,-1.085,0.037332,-0.009028,-1.0584719999999999,2
2024-06-14 11:35:22.706,16.275,-43.015,-0.7,0.033428,-0.016835999999999997,-1.056764,2
2024-06-14 11:35:22.711,17.009999999999998,-44.24,-0.245,0.024888,-0.011467999999999999,-1.066036,2
2024-06-14 11:35:22.716,16.835,-44.975,-0.10500000000000001,0.038064,-0.004392000000000001,-1.070184,2
2024-06-14 11:35:22.721,16.66,-44.205,0.07,0.045384,-0.019276,-1.084336,2
2024-06-14 11:35:22.725,16.52,-44.415,0.45499999999999996,0.049532,-0.03172,-1.069696,2
2024-06-14 11:35:22.730,14.594999999999999,-46.06,0.5599999999999999,0.052704,-0.031232,-1.0675,2
2024-06-14 11:35:22.735,13.125,-46.620000000000005,0.665,0.06222,-0.027084,-1.06506,2
2024-06-14 11:35:22.740,9.52,-47.565,0.105,0.06222,-0.0017079999999999994,-1.101416,2
2024-06-14 11:35:22.745,5.6,-50.085,-0.98,0.056608,-0.013663999999999999,-1.0762839999999998,2
2024-06-14 11:35:22.750,5.425,-50.155,-1.0150000000000001,0.06709999999999999,-0.007808000000000001,-1.0814080000000001,2
2024-06-14 11:35:22.754,5.915,-49.945,-0.77,0.075396,-0.014639999999999999,-1.093852,2
2024-06-14 11:35:22.759,9.73,-49.56,0.10499999999999998,0.071492,-0.026595999999999998,-1.112396,2
2024-06-14 11:35:22.764,13.825,-47.775,1.54,0.078324,-0.006832,-1.0870199999999999,2
2024-06-14 11:35:22.769,15.75,-48.370000000000005,2.275,0.085644,-0.021471999999999998,-1.08824,2
2024-06-14 11:35:22.774,17.5,-47.215,2.835,0.093696,-0.036844,-1.0799439999999998,2
2024-06-14 11:35:22.779,18.235,-44.975,3.465,0.099552,-0.011224,-1.0933639999999998,2
2024-06-14 11:35:22.784,16.45,-43.260000000000005,3.2199999999999998,0.100284,0.020984,-1.090924,2
2024-06-14 11:35:22.788,12.95,-41.545,2.275,0.10028399999999998,0.022448,-1.084336,2
2024-06-14 11:35:22.793,10.149999999999999,-41.405,1.6099999999999999,0.10955599999999999,-0.020252,-1.033828,2
2024-06-14 11:35:22.798,8.61,-40.81,1.26,0.11760799999999999,-0.010735999999999999,-1.035292,2
2024-06-14 11:35:22.803,8.155,-40.04,1.12,0.12224399999999999,-0.006588,-1.029436,2
2024-06-14 11:35:22.808,9.100000000000001,-37.1,1.0150000000000001,0.128832,-0.004148,-1.0274839999999998,2
2024-06-14 11:35:22.813,8.645,-34.545,1.0150000000000001,0.130296,-0.011712000000000002,-1.019188,2
2024-06-14 11:35:22.817,8.469999999999999,-32.935,0.9450000000000001,0.136396,-0.014395999999999999,-1.0104039999999999,2
2024-06-14 11:35:22.822,8.26,-31.08,0.9450000000000001,0.13712799999999997,-0.011224,-1.014796,2
2024-06-14 11:35:22.827,8.33,-29.75,1.0150000000000001,0.137372,-0.023424,-1.008696,2
2024-06-14 11:35:22.832,7.945,-28.07,1.26,0.14322800000000002,-0.025863999999999998,-1.0023520000000001,2
2024-06-14 11:35:22.837,7.385,-26.425,1.365,0.139324,-0.036112,-1.0030839999999999,2
2024-06-14 11:35:22.842,5.5649999999999995,-26.075,1.645,0.13907999999999998,-0.047824,-1.0106480000000002,3
2024-06-14 11:35:22.847,3.045,-25.9,1.9249999999999998,0.13810399999999998,-0.05660799999999999,-1.003328,3
2024-06-14 11:35:22.851,0.10499999999999998,-26.075,2.52,0.13688399999999998,-0.07295600000000001,-1.01382,3
2024-06-14 11:35:22.856,-3.7800000000000002,-26.950000000000003,3.08,0.13541999999999998,-0.07588400000000001,-1.024068,3
2024-06-14 11:35:22.861,-7.140000000000001,-28.174999999999997,3.71,0.132492,-0.070272,-1.0409039999999998,3
2024-06-14 11:35:22.867,-10.36,-30.134999999999998,4.199999999999999,0.13200399999999998,-0.06222,-1.0579839999999998,3
2024-06-14 11:35:22.872,-12.985,-32.165,4.445,0.13517599999999996,-0.05124,-1.067744,3
2024-06-14 11:35:22.877,-14.84,-34.335,4.69,0.138592,-0.037087999999999996,-1.084092,3
2024-06-14 11:35:22.881,-15.82,-36.295,4.795,0.14029999999999998,-0.01464,-1.106052,3
2024-06-14 11:35:22.886,-15.085,-39.375,4.515000000000001,0.14274000000000003,0.004880000000000001,-1.143872,3
2024-06-14 11:35:22.891,-14.07,-43.364999999999995,4.0600000000000005,0.14151999999999998,0.006344000000000001,-1.1955999999999998,3
2024-06-14 11:35:22.896,-12.25,-48.230000000000004,3.5700000000000003,0.13785999999999998,0.010003999999999999,-1.224392,3
2024-06-14 11:35:22.901,-10.395,-51.94,3.4299999999999997,0.15176800000000001,-0.025619999999999997,-1.235372,3
2024-06-14 11:35:22.906,-6.055,-54.53,3.7800000000000002,0.1525,0.023424,-1.20902,3
2024-06-14 11:35:22.910,-2.765,-57.644999999999996,2.9050000000000002,0.156404,0.053436,-1.248304,3
2024-06-14 11:35:22.915,-0.03500000000000003,-62.055,1.96,0.16372399999999998,0.008539999999999999,-1.272216,3
2024-06-14 11:35:22.920,3.395,-65.485,1.75,0.178608,0.021227999999999997,-1.252452,3
2024-06-14 11:35:22.925,5.109999999999999,-68.915,1.0150000000000001,0.172996,0.02318,-1.266116,3
2024-06-14 11:35:22.930,9.415,-72.13499999999999,0.175,0.169336,0.06246399999999999,-1.288564,3
2024-06-14 11:35:22.935,12.11,-75.91499999999999,-0.98,0.17275200000000002,0.043676,-1.33102,3
2024-06-14 11:35:22.939,14.945,-80.92,-1.785,0.17055599999999999,0.00854,-1.3607879999999999,3
2024-06-14 11:35:22.944,16.03,-86.13499999999999,-2.52,0.168604,0.029768000000000003,-1.392752,3
2024-06-14 11:35:22.949,15.260000000000002,-91.455,-3.5700000000000003,0.157624,0.045871999999999996,-1.443992,3
2024-06-14 11:35:22.954,15.295,-101.36,-4.865,0.16714,0.025863999999999998,-1.4349640000000001,3
2024-06-14 11:35:22.959,18.76,-108.78,-5.145,0.17397200000000002,0.007076,-1.43106,3
2024-06-14 11:35:22.964,21.035,-114.52,-5.775,0.18958799999999998,0.029524,-1.4217879999999998,3
2024-06-14 11:35:22.968,25.515,-121.59,-6.265000000000001,0.193004,0.016348,-1.4461879999999998,3
2024-06-14 11:35:22.973,30.45,-125.685,-6.615,0.192272,0.043432,-1.5106039999999998,3
2024-06-14 11:35:22.978,33.599999999999994,-134.085,-7.07,0.195444,0.008296000000000001,-1.531832,3
2024-06-14 11:35:22.983,35.875,-144.48000000000002,-7.245,0.172264,0.0034159999999999998,-1.6362639999999997,3
2024-06-14 11:35:22.988,36.155,-155.645,-7.105,0.164212,-0.029524,-1.6545640000000001,3
2024-06-14 11:35:22.993,36.925,-169.47,-6.58,0.14932800000000002,-0.04636,-1.615036,3
2024-06-14 11:35:22.998,37.1,-183.39999999999998,-6.16,0.12907599999999997,-0.02318,-1.738988,3
2024-06-14 11:35:23.002,37.625,-197.505,-5.67,0.13590799999999997,-0.059536,-1.728008,3
2024-06-14 11:35:23.007,40.39,-213.64,-4.865,0.122488,-0.06344,-1.784128,3
2024-06-14 11:35:23.012,48.754999999999995,-224.945,-3.325,0.11638799999999999,-0.071004,-1.894904,3
2024-06-14 11:35:23.017,54.11,-240.03,-1.715,0.100528,-0.045872,-1.9729839999999998,3
2024-06-14 11:35:23.022,51.59,-255.01,-0.77,0.078812,-0.0046359999999999995,-2.118896,3
2024-06-14 11:35:23.027,51.135,-275.625,-0.665,0.092232,-0.10540799999999999,-1.94102,3
2024-06-14 11:35:23.031,56.980000000000004,-291.44500000000005,2.17,0.117852,-0.138836,-1.9864039999999998,3
2024-06-14 11:35:23.036,64.085,-311.15,4.06,0.100528,-0.07442,-2.254316,3
2024-06-14 11:35:23.041,62.965,-327.39,4.725,0.068564,-0.06539199999999999,-2.465864,3
2024-06-14 11:35:23.046,56.7,-349.895,5.67,0.026352,-0.163236,-2.5656600000000003,3
2024-06-14 11:35:23.051,53.795,-380.45000000000005,8.925,-0.079788,-0.320372,-2.50954,3
2024-06-14 11:35:23.056,53.06,-415.135,12.32,-0.07002799999999999,-0.325252,-2.7364599999999997,3
2024-06-14 11:35:23.060,58.275,-431.34000000000003,14.91,0.19276,-0.281576,-3.307176,3
2024-06-14 11:35:23.065,52.535,-448.56,21.175,-0.057096,-0.35575199999999996,-3.363784,3
2024-06-14 11:35:23.070,50.26,-483.595,25.34,-0.11638799999999999,-0.33232799999999996,-2.814784,3
2024-06-14 11:35:23.075,51.66,-506.135,28.384999999999998,0.10760399999999999,-0.389912,-3.243004,3
2024-06-14 11:35:23.080,58.695,-522.76,32.655,0.305732,-0.292068,-3.6851320000000003,3
2024-06-14 11:35:23.085,58.94,-537.2850000000001,34.474999999999994,0.2562,-0.178608,-3.394528,3
2024-06-14 11:35:23.089,58.135000000000005,-551.6700000000001,31.115000000000002,0.36648800000000004,-0.208132,-3.393308,3
2024-06-14 11:35:23.094,85.435,-554.995,28.91,0.497516,-0.552904,-3.79298,3
2024-06-14 11:35:23.099,120.33,-553.665,36.400000000000006,0.468724,-0.854,-4.003064,3
2024-06-14 11:35:23.104,144.62,-549.22,47.18,0.21179199999999998,-0.8393600000000001,-3.7134359999999997,3
2024-06-14 11:35:23.109,147.7,-536.97,59.08,-0.129808,-0.690032,-3.903756,3
2024-06-14 11:35:23.114,153.64999999999998,-520.17,75.215,-0.640988,-0.6117079999999999,-3.3862319999999997,3
2024-06-14 11:35:23.118,153.02,-486.36,93.205,-1.2526959999999998,-0.653188,-2.699128,3
2024-06-14 11:35:23.123,145.88,-458.115,112.42,-1.6516359999999999,-0.591212,-2.3265399999999996,4
2024-06-14 11:35:23.128,123.865,-444.43,127.4,-2.079612,-0.537776,-1.99836,4
2024-06-14 11:35:23.133,81.51499999999999,-437.15,135.03,-1.77388,-0.664412,-1.538908,4
2024-06-14 11:35:23.138,17.674999999999997,-464.52,139.895,-0.631228,-0.751276,-1.09434,4
2024-06-14 11:35:23.143,-62.93,-513.31,133.315,-0.17885199999999998,-0.38893599999999995,-1.919548,4
2024-06-14 11:35:23.147,-89.18,-469.735,121.065,-0.759084,-0.411384,-2.2323560000000002,4
2024-06-14 11:35:23.152,-75.91499999999999,-388.95500000000004,113.785,-1.291248,-0.5794999999999999,-1.44204,4
2024-06-14 11:35:23.157,-53.095,-284.795,102.935,-1.8483,-0.612196,-0.7090639999999999,4
2024-06-14 11:35:23.162,-39.2,-171.43,84.105,-2.002996,-0.629276,-0.31842,4
2024-06-14 11:35:23.167,-34.055,-70.875,63.35,-1.7433800000000002,-0.626348,-0.40967600000000004,4
2024-06-14 11:35:23.172,-33.95,16.73,43.364999999999995,-1.543056,-0.421388,-0.70028,4
2024-06-14 11:35:23.176,-38.745000000000005,89.46000000000001,23.240000000000002,-1.4644879999999998,-0.26034799999999997,-0.9135359999999999,4
2024-06-14 11:35:23.181,-46.724999999999994,141.54,5.32,-1.348588,-0.250344,-1.0931199999999999,4
2024-06-14 11:35:23.186,-55.16,175.0,-8.855,-1.171688,-0.240096,-1.125328,4
2024-06-14 11:35:23.191,-66.28999999999999,193.305,-20.895,-1.05774,-0.17836399999999997,-1.05774,4
2024-06-14 11:35:23.196,-80.22,202.23000000000002,-31.605000000000004,-1.02846,-0.12224399999999999,-0.97234,4
2024-06-14 11:35:23.201,-92.96000000000001,208.32,-40.495000000000005,-0.9982039999999999,-0.12370799999999998,-0.861808,4
2024-06-14 11:35:23.206,-101.64,214.48000000000002,-47.075,-0.9415959999999999,-0.177144,-0.749568,4
2024-06-14 11:35:23.210,-105.91,220.92,-51.8,-0.88328,-0.23912,-0.677588,4
2024-06-14 11:35:23.215,-106.47,227.29000000000002,-55.125,-0.822036,-0.29768,-0.6512359999999999,4
2024-06-14 11:35:23.220,-103.53,234.39499999999998,-56.735,-0.769576,-0.352824,-0.634644,4
2024-06-14 11:35:23.225,-98.42,242.095,-56.595,-0.71492,-0.38649599999999995,-0.615124,4
2024-06-14 11:35:23.230,-92.225,250.565,-55.09,-0.672708,-0.40503999999999996,-0.5995079999999999,4
2024-06-14 11:35:23.235,-85.61,259.7,-52.290000000000006,-0.622932,-0.427976,-0.5946279999999999,4
2024-06-14 11:35:23.239,-78.75,268.83500000000004,-48.3,-0.5873079999999999,-0.44895999999999997,-0.6039,4
2024-06-14 11:35:23.244,-71.53999999999999,277.69,-43.155,-0.545828,-0.46604,-0.622932,4
2024-06-14 11:35:23.249,-64.19,286.65,-37.1,-0.510204,-0.47750800000000004,-0.6414759999999999,4
2024-06-14 11:35:23.254,-56.35,295.82,-30.345,-0.4758,-0.48287599999999997,-0.662704,4
2024-06-14 11:35:23.259,-48.51,305.27,-23.275,-0.447252,-0.47458,-0.691252,4
2024-06-14 11:35:23.264,-40.74,315.175,-16.17,-0.420412,-0.465064,-0.7237039999999999,4
2024-06-14 11:35:23.268,-33.004999999999995,325.85,-8.89,-0.39747599999999994,-0.446276,-0.765428,4
2024-06-14 11:35:23.273,-25.305,337.29499999999996,-1.75,-0.381128,-0.42944,-0.807152,4
2024-06-14 11:35:23.278,-17.955,349.65,4.795,-0.36356,-0.400404,-0.8569279999999999,4
2024-06-14 11:35:23.283,-11.375,361.76,10.675,-0.345016,-0.36941599999999997,-0.919636,4
2024-06-14 11:35:23.288,-5.95,372.925,15.54,-0.324276,-0.322812,-0.9889320000000001,4
2024-06-14 11:35:23.293,-2.0999999999999996,382.76,19.425,-0.29987600000000003,-0.279136,-1.055056,4
2024-06-14 11:35:23.297,-0.175,391.51,22.33,-0.28548000000000007,-0.235948,-1.115324,4
2024-06-14 11:35:23.302,-0.10500000000000001,398.615,24.15,-0.26474,-0.187636,-1.164368,4
2024-06-14 11:35:23.307,-1.505,404.705,24.85,-0.24278,-0.14835199999999998,-1.229028,4
2024-06-14 11:35:23.312,-3.535,409.78,24.605,-0.223016,-0.118584,-1.288076,4
2024-06-14 11:35:23.317,-5.425000000000001,413.595,23.625,-0.20739999999999997,-0.106384,-1.336388,4
2024-06-14 11:35:23.322,-6.02,416.92,22.295,-0.189832,-0.1159,-1.3925079999999999,4
2024-06-14 11:35:23.326,-5.005,418.775,20.965,-0.17055599999999999,-0.137128,-1.447164,4
2024-06-14 11:35:23.331,-2.17,419.65,19.740000000000002,-0.135908,-0.16299199999999997,-1.503772,4
2024-06-14 11:35:23.336,2.555,419.37,18.759999999999998,-0.101992,-0.187392,-1.560868,4
2024-06-14 11:35:23.341,8.855,418.03999999999996,17.85,-0.071248,-0.204228,-1.611132,4
2024-06-14 11:35:23.346,16.275,415.69500000000005,16.835,-0.051728,-0.225212,-1.66042,4
2024-06-14 11:35:23.351,24.43,413.0,15.89,-0.0305,-0.24766,-1.71532,4
2024-06-14 11:35:23.355,32.655,410.13,14.77,-0.006344,-0.25229599999999996,-1.7807119999999999,4
2024-06-14 11:35:23.360,40.845,407.08500000000004,13.09,0.009271999999999999,-0.250588,-1.83244,4
2024-06-14 11:35:23.365,49.07,404.70500000000004,10.745000000000001,0.015127999999999999,-0.24448799999999998,-1.890512,4
2024-06-14 11:35:23.370,56.769999999999996,402.85,7.945,0.020984,-0.24278,-1.9632239999999999,4
2024-06-14 11:35:23.375,63.56,401.835,4.585,0.027327999999999998,-0.238876,-2.04716,4
2024-06-14 11:35:23.380,69.125,401.16999999999996,0.42,0.032208,-0.23326399999999997,-2.135244,4
2024-06-14 11:35:23.384,73.605,400.92499999999995,-4.165,0.05002,-0.238632,-2.2472399999999997,4
2024-06-14 11:35:23.389,76.685,400.33000000000004,-9.345,0.07734799999999999,-0.239608,-2.387784,4
2024-06-14 11:35:23.394,79.1,399.455,-15.645,0.11760799999999999,-0.246196,-2.5180800000000003,4
2024-06-14 11:35:23.399,81.445,397.985,-23.59,0.166896,-0.244244,-2.651792,4
2024-06-14 11:35:23.404,84.63,396.30499999999995,-33.39,0.22082000000000002,-0.234728,-2.768912,4
2024-06-14 11:35:23.409,89.18,394.625,-44.555,0.278404,-0.212768,-2.8792,4
2024-06-14 11:35:23.417,94.71000000000001,393.61,-57.26,0.34282,-0.197152,-2.99144,4
2024-06-14 11:35:23.421,100.41499999999999,392.56,-70.63,0.42968399999999995,-0.177144,-3.1073399999999998,4
2024-06-14 11:35:23.426,106.4,392.21,-84.735,0.529236,-0.146156,-3.228608,4
2024-06-14 11:35:23.431,112.38499999999999,392.245,-99.05000000000001,0.6365959999999999,-0.106872,-3.342068,4
2024-06-14 11:35:23.436,117.70500000000001,393.19,-113.645,0.7746999999999999,-0.047824,-3.4240519999999997,4
2024-06-14 11:35:23.441,121.345,395.99,-128.415,0.9435479999999999,0.039284,-3.4796839999999998,4
2024-06-14 11:35:23.445,121.345,400.225,-143.01,1.1516799999999998,0.14274,-3.513356,4
2024-06-14 11:35:23.450,116.305,404.6,-157.395,1.4012919999999998,0.21984399999999998,-3.530192,4
2024-06-14 11:35:23.455,105.49,407.855,-170.1,1.694336,0.27645200000000003,-3.51482,4
2024-06-14 11:35:23.460,90.125,408.41499999999996,-180.18,2.01666,0.322324,-3.4867600000000003,4
2024-06-14 11:35:23.465,70.945,404.88,-186.69,2.3831480000000003,0.36356,-3.41478,4
2024-06-14 11:35:23.469,47.53,394.83500000000004,-188.44,2.7923359999999997,0.37088,-3.3142519999999998,4
2024-06-14 11:35:23.474,18.97,377.16,-183.715,3.271552,0.310856,-3.190544,4
2024-06-14 11:35:23.479,-10.465,353.395,-170.83499999999998,3.90278,0.150304,-2.85846,4
2024-06-14 11:35:23.484,-30.590000000000003,324.485,-145.635,4.5262,-0.16469999999999999,-2.341424,4
2024-06-14 11:35:23.489,-38.885,292.39,-100.695,5.153768,-0.601704,-1.9398,4
2024-06-14 11:35:23.493,-41.09,258.79,-36.435,5.77914,-0.9794160000000001,-1.695068,4
2024-06-14 11:35:23.498,-38.745,222.635,39.095,6.308376000000001,-1.149728,-1.591856,4
2024-06-14 11:35:23.503,-34.79,182.525,113.61,6.666568,-1.032608,-1.39202,4
2024-06-14 11:35:23.508,-22.47,144.82999999999998,179.095,6.869332,-0.6622159999999999,-1.114104,4
2024-06-14 11:35:23.513,-10.36,105.91,220.85,6.9715679999999995,-0.190808,-1.059448,4
2024-06-14 11:35:23.518,-2.835,61.809999999999995,234.01,6.6978,0.28304,-1.229028,4
2024-06-14 11:35:23.522,-14.035,7.805000000000001,237.965,6.211752,0.606584,-1.4022679999999998,4
2024-06-14 11:35:23.527,-42.07,-52.325,231.21,5.52294,0.72346,-1.4964520000000001,4
2024-06-14 11:35:23.532,-100.8,-155.925,213.43,5.8255,1.43106,-1.620404,4
