time,gyroscope_x,gyroscope_y,gyroscope_z,accelerometer_x,accelerometer_y,accelerometer_z,phase
2024-06-14 11:19:32.859,-247.31,-423.5,-48.09,4.6813839999999995,2.848212,-6.764412,1
2024-06-14 11:19:32.864,-240.555,-375.62,-91.945,2.634712,0.898896,-0.601216,1
2024-06-14 11:19:32.869,-302.365,-383.425,-101.465,-0.160308,-0.12614799999999998,-0.541192,1
2024-06-14 11:19:32.874,-230.195,-325.15,-100.695,0.30036399999999996,0.007320000000000007,-1.4681480000000002,1
2024-06-14 11:19:32.879,-114.03,-282.205,-119.525,-0.724436,0.148352,-1.6296760000000001,1
2024-06-14 11:19:32.883,-20.369999999999997,-284.44500000000005,-145.985,-0.8276479999999999,0.143228,-1.546472,1
2024-06-14 11:19:32.888,33.005,-295.925,-160.23000000000002,-0.4452999999999999,0.197152,-1.688724,1
2024-06-14 11:19:32.893,67.06,-291.76,-159.18,0.002683999999999992,0.467748,-1.820972,1
2024-06-14 11:19:32.898,71.12,-287.63,-146.265,0.478972,0.6051200000000001,-1.763876,1
2024-06-14 11:19:32.903,58.975,-299.355,-121.485,0.5563199999999999,0.8866959999999999,-2.175016,1
2024-06-14 11:19:32.908,54.075,-307.685,-84.455,0.36844,1.0609119999999999,-2.73158,1
2024-06-14 11:19:32.912,37.17,-314.265,-39.06,0.171532,1.074332,-2.82918,1
2024-06-14 11:19:32.917,27.439999999999998,-265.615,3.08,0.098576,0.577548,-2.677656,1
2024-06-14 11:19:32.922,16.765,-190.155,21.14,0.145424,0.017324,-1.9881119999999999,1
2024-06-14 11:19:32.927,12.215,-114.59,15.05,0.15738,-0.240584,-1.7211759999999998,1
2024-06-14 11:19:32.932,10.36,-64.785,-3.465,0.13419999999999999,-0.303048,-1.484008,1
2024-06-14 11:19:32.937,8.75,-37.31,-17.85,0.042943999999999996,-0.19202799999999998,-1.281976,1
2024-06-14 11:19:32.941,7.455,-19.425,-22.924999999999997,-0.025620000000000004,-0.02562,-1.1345999999999998,1
2024-06-14 11:19:32.946,5.075,-12.53,-19.775,-0.049288,0.09881999999999999,-1.074332,1
2024-06-14 11:19:32.951,3.71,-8.855,-11.27,-0.016104,0.09882,-1.051396,1
2024-06-14 11:19:32.956,2.6950000000000003,-9.975,-0.525,0.017568,0.030500000000000003,-1.073844,1
2024-06-14 11:19:32.961,1.995,-11.094999999999999,2.0300000000000002,0.030255999999999998,-0.05368,-1.0689639999999998,2
2024-06-14 11:19:32.965,2.66,-11.235,-2.24,-0.042456,-0.031232000000000003,-1.052616,2
2024-06-14 11:19:32.970,2.59,-9.379999999999999,-4.095,-0.074176,-0.0009760000000000046,-1.0291919999999999,2
2024-06-14 11:19:32.975,1.085,-7.77,-1.3299999999999998,-0.102236,-0.020007999999999998,-1.0277279999999998,2
2024-06-14 11:19:32.980,-0.35,-6.6850000000000005,1.0150000000000001,-0.089304,-0.013908,-1.047736,2
2024-06-14 11:19:32.985,-0.42000000000000004,-6.755000000000001,1.295,-0.067832,0.001952,-1.0579839999999998,2
2024-06-14 11:19:32.990,0.385,-7.595000000000001,0.455,-0.08393600000000001,-0.002196,-1.045784,2
2024-06-14 11:19:32.994,1.12,-7.98,0.10499999999999998,-0.093452,-0.001464,-1.0248,2
2024-06-14 11:19:32.999,1.365,-6.79,0.35,-0.087352,0.003172,-1.0226039999999998,2
2024-06-14 11:19:33.004,1.435,-7.035,0.45499999999999996,-0.094916,-0.008052,-1.015284,2
2024-06-14 11:19:33.009,1.6800000000000002,-8.995000000000001,0.14,-0.09418399999999999,-0.016348,-1.0133320000000001,2
2024-06-14 11:19:33.014,1.8199999999999998,-10.535,0.21,-0.098332,-0.012199999999999999,-1.020408,2
2024-06-14 11:19:33.019,1.435,-12.285,0.49,-0.099308,-0.010248,-1.0226039999999998,2
2024-06-14 11:19:33.023,1.5750000000000002,-13.719999999999999,0.595,-0.09759999999999999,-0.013908,-1.0204080000000002,2
2024-06-14 11:19:33.028,1.54,-14.525,0.665,-0.09662399999999999,-0.007076000000000001,-1.0204079999999998,2
2024-06-14 11:19:33.033,1.6800000000000002,-15.225000000000001,0.8049999999999999,-0.094428,0.00024399999999999986,-1.0238239999999998,2
2024-06-14 11:19:33.040,1.855,-15.855,0.77,-0.09759999999999999,-0.00854,-1.0238239999999998,2
2024-06-14 11:19:33.045,2.0300000000000002,-16.555,0.9450000000000001,-0.09881999999999999,-0.011467999999999999,-1.024556,2
2024-06-14 11:19:33.050,2.0300000000000002,-17.29,1.0150000000000001,-0.092476,-0.004148,-1.024068,2
2024-06-14 11:19:33.054,2.1,-18.165,1.05,-0.09272,-0.009028,-1.024068,2
2024-06-14 11:19:33.059,2.135,-19.215,1.19,-0.09345200000000001,-0.007808000000000001,-1.025776,2
2024-06-14 11:19:33.064,1.9949999999999999,-18.795,1.12,-0.091256,-0.00488,-1.020408,2
2024-06-14 11:19:33.069,2.1,-19.46,1.12,-0.093696,-0.004148,-1.0206520000000001,2
2024-06-14 11:19:33.074,2.205,-11.795,0.91,-0.094916,-0.004636,-1.0204080000000002,2
2024-06-14 11:19:33.078,1.5050000000000001,-20.265,1.0150000000000001,-0.07222400000000001,-0.023423999999999997,-1.01748,2
2024-06-14 11:19:33.083,2.205,-20.86,0.63,-0.065148,-0.010248,-1.018456,2
2024-06-14 11:19:33.088,2.52,-24.185,0.875,-0.094184,-0.010735999999999999,-1.023336,2
2024-06-14 11:19:33.093,0.805,-27.93,0.665,-0.07564000000000001,-0.019032,-1.01626,2
2024-06-14 11:19:33.098,0.91,-21.279999999999998,0.98,-0.081008,0.000732,-1.0108920000000001,2
2024-06-14 11:19:33.102,1.4,-24.605,0.875,-0.06466,-0.031232,-1.01016,2
2024-06-14 11:19:33.107,-0.35,-23.975,0.8049999999999999,-0.063196,0.0017079999999999994,-1.0140639999999999,2
2024-06-14 11:19:33.112,0.98,-23.205000000000002,0.98,-0.082228,-0.013419999999999998,-1.009428,2
2024-06-14 11:19:33.117,-0.7349999999999999,-22.889999999999997,0.98,-0.095404,-0.00976,-1.01138,2
2024-06-14 11:19:33.122,-0.84,-24.01,1.4,-0.065636,-0.026108,-1.011136,2
2024-06-14 11:19:33.126,-0.805,-21.35,1.225,-0.028791999999999998,-0.008296,-1.0043039999999999,2
2024-06-14 11:19:33.131,-1.225,-20.615000000000002,1.855,-0.06295200000000001,-0.01464,-0.9999119999999999,2
2024-06-14 11:19:33.136,-0.9450000000000001,-19.075,1.6800000000000002,-0.05856,-0.012931999999999999,-1.0018639999999999,2
2024-06-14 11:19:33.141,-2.87,-17.255,1.8199999999999998,-0.075396,-0.011224,-1.0116239999999999,2
2024-06-14 11:19:33.146,-2.24,-16.59,1.9949999999999999,-0.037576,-0.016104,-1.0045479999999998,2
2024-06-14 11:19:33.151,-0.9450000000000001,-15.855,2.24,-0.055632,-0.013176,-1.0065,2
2024-06-14 11:19:33.155,-2.3449999999999998,-14.315000000000001,2.31,-0.058316,-0.007076,-1.006988,2
2024-06-14 11:19:33.160,-2.065,-13.16,2.24,-0.049288,-0.008784,-1.001132,2
2024-06-14 11:19:33.165,-1.785,-11.899999999999999,2.31,-0.050752000000000005,-0.00366,-1.0067439999999999,2
2024-06-14 11:19:33.170,-2.065,-10.57,2.3449999999999998,-0.046848,-0.009516,-1.0030839999999999,2
2024-06-14 11:19:33.175,-1.645,-9.52,2.24,-0.047824,-0.008784,-1.006256,2
2024-06-14 11:19:33.179,-1.75,-8.434999999999999,2.24,-0.04392,-0.00366,-1.003816,2
2024-06-14 11:19:33.184,-1.575,-7.35,2.205,-0.044896,-0.0026839999999999998,-1.0091839999999999,2
2024-06-14 11:19:33.189,-1.365,-6.37,2.0999999999999996,-0.040992,-0.0034159999999999998,-0.999668,2
2024-06-14 11:19:33.194,-1.47,-5.705,2.0300000000000002,-0.047336,-0.004148,-1.003816,2
2024-06-14 11:19:33.199,-1.0150000000000001,-5.285,1.89,-0.049044,0.000244,-1.00406,2
2024-06-14 11:19:33.203,-0.42000000000000004,-5.005,1.855,-0.045383999999999994,-0.004148,-0.96746,2
2024-06-14 11:19:33.208,-0.175,-5.495,1.435,-0.030012,0.006343999999999999,-1.0079639999999999,2
2024-06-14 11:19:33.213,-0.595,-6.405,2.31,-0.057583999999999996,-0.0122,-1.011136,2
2024-06-14 11:19:33.218,-0.595,-6.125,1.8199999999999998,-0.048312,-0.007076,-1.004548,2
2024-06-14 11:19:33.223,-0.245,-6.23,2.1,-0.040015999999999996,-0.0060999999999999995,-1.009672,2
2024-06-14 11:19:33.228,-0.35,-6.825,2.5549999999999997,-0.047824,-0.026108,-1.0133320000000001,2
2024-06-14 11:19:33.232,-0.665,-7.945,2.835,-0.046848,-0.011224,-1.014308,2
2024-06-14 11:19:33.237,-0.8049999999999999,-9.275,2.835,-0.050752,-0.011711999999999998,-1.013576,2
2024-06-14 11:19:33.242,-1.12,-11.165,3.08,-0.05368,-0.014884,-1.0206520000000001,2
2024-06-14 11:19:33.247,-1.5750000000000002,-13.965,3.3600000000000003,-0.051972000000000004,-0.01342,-1.024556,2
2024-06-14 11:19:33.252,-2.205,-17.78,3.255,-0.052947999999999995,-0.014884000000000001,-1.030656,2
2024-06-14 11:19:33.256,47.04,-57.12,4.9,-0.050019999999999995,-0.00976,-1.0043039999999999,2
2024-06-14 11:19:33.261,2.8,-27.02,3.92,-0.046848,-0.008784,-1.0401719999999999,2
2024-06-14 11:19:33.266,-8.33,-30.065,3.6049999999999995,-0.044164,-0.004148,-1.0384639999999998,2
2024-06-14 11:19:33.271,-0.7349999999999999,-34.825,2.66,-0.036112000000000005,-0.0029280000000000005,-1.047736,2
2024-06-14 11:19:33.276,-7.735,-38.71,2.0300000000000002,-0.033672,-0.001464,-1.062376,2
2024-06-14 11:19:33.280,-14.77,-45.010000000000005,1.12,-0.04196799999999999,0.00122,-1.0723799999999999,2
2024-06-14 11:19:33.285,-15.54,-53.445,0.45499999999999996,-0.030987999999999998,-0.009028,-1.065792,2
2024-06-14 11:19:33.290,-26.53,-58.8,-0.315,-0.030012,0.004636,-1.0979999999999999,2
2024-06-14 11:19:33.295,-27.755000000000003,-59.78,-1.295,-0.020496,0.0034160000000000006,-1.052372,2
2024-06-14 11:19:33.300,-19.845,-68.03999999999999,-1.155,-0.023424,0.0039039999999999995,-1.1043440000000002,2
2024-06-14 11:19:33.304,-14.56,-67.725,-1.19,0.00244,0.00366,-1.090192,2
2024-06-14 11:19:33.309,-7.105,-70.97999999999999,-1.19,0.008296,0.018543999999999998,-1.0933639999999998,2
2024-06-14 11:19:33.314,0.2450000000000001,-79.975,-1.6800000000000002,0.004392,0.030255999999999998,-1.122888,2
2024-06-14 11:19:33.319,12.530000000000001,-82.95,-2.625,-0.009027999999999998,-0.0009760000000000012,-1.2165839999999999,2
2024-06-14 11:19:33.324,7.84,-75.25,-2.73,0.006343999999999999,0.04392,-1.284416,2
2024-06-14 11:19:33.329,24.395,-74.58500000000001,-0.735,0.0017079999999999999,0.026352,-1.2695319999999999,2
2024-06-14 11:19:33.333,35.06999999999999,-74.795,0.385,-0.006588,0.030011999999999997,-1.4549720000000002,2
2024-06-14 11:19:33.338,30.380000000000003,-78.82,-0.28,-0.00366,0.009271999999999999,-1.406416,2
2024-06-14 11:19:33.343,32.585,-82.88,-0.28,0.0053679999999999995,0.022447999999999996,-1.400316,3
2024-06-14 11:19:33.348,36.295,-89.285,0.35,-0.0046359999999999995,0.029035999999999996,-1.45302,3
2024-06-14 11:19:33.353,38.815,-94.745,0.42,-0.009028,0.020496,-1.537932,3
2024-06-14 11:19:33.357,39.9,-104.125,0.595,-0.00976,0.029524,-1.563064,3
2024-06-14 11:19:33.362,40.915000000000006,-112.77000000000001,0.735,-0.005856,-0.0183,-1.555012,3
2024-06-14 11:19:33.367,41.474999999999994,-123.235,0.91,-0.0053679999999999995,0.025376,-1.6103999999999998,3
2024-06-14 11:19:33.372,42.14,-135.59,-0.385,-0.022692,0.036112,-1.648708,3
2024-06-14 11:19:33.377,43.260000000000005,-150.04500000000002,-0.8400000000000001,-0.026596,-0.00048799999999999994,-1.6616399999999998,3
2024-06-14 11:19:33.381,45.57,-164.60500000000002,-1.05,-0.039528,-0.007808000000000001,-1.710684,3
2024-06-14 11:19:33.386,45.535,-181.37,-1.19,-0.049776,-0.013175999999999998,-1.7180039999999999,3
2024-06-14 11:19:33.391,44.974999999999994,-200.375,-0.8049999999999999,-0.052216,-0.064416,-1.698972,3
2024-06-14 11:19:33.396,46.269999999999996,-219.94,0.7,-0.070516,-0.067588,-1.6955559999999998,3
2024-06-14 11:19:33.401,45.29,-238.945,1.785,-0.080764,-0.0793,-1.705804,3
2024-06-14 11:19:33.406,47.215,-259.91,3.5,-0.075396,-0.064416,-1.753628,3
2024-06-14 11:19:33.410,50.54,-283.99,4.515000000000001,-0.073444,-0.009271999999999999,-1.7892519999999998,3
2024-06-14 11:19:33.415,58.45,-306.28499999999997,4.76,-0.073688,0.065148,-1.890024,3
2024-06-14 11:19:33.420,65.41499999999999,-329.7,4.095000000000001,-0.121756,0.07197999999999999,-2.019588,3
2024-06-14 11:19:33.425,71.785,-355.32,3.395,-0.16713999999999998,0.0024399999999999977,-1.967616,3
2024-06-14 11:19:33.430,71.295,-379.645,3.535,-0.21862399999999999,-0.078568,-2.096448,3
2024-06-14 11:19:33.434,68.53,-407.29499999999996,4.55,-0.167628,-0.142984,-2.2843279999999995,3
2024-06-14 11:19:33.439,66.675,-436.16999999999996,6.51,-0.10711599999999999,-0.165676,-2.397056,3
2024-06-14 11:19:33.444,65.52,-462.31500000000005,8.469999999999999,-0.05368,-0.14639999999999997,-2.450248,3
2024-06-14 11:19:33.449,65.41499999999999,-479.01,8.190000000000001,0.011223999999999991,-0.083204,-2.83894,3
2024-06-14 11:19:33.454,68.285,-499.975,5.705,0.13834799999999997,0.030012,-3.157116,3
2024-06-14 11:19:33.458,76.545,-515.515,2.24,0.194712,0.130784,-3.2944879999999994,3
2024-06-14 11:19:33.463,76.405,-531.405,-1.75,0.1769,0.233508,-3.384768,3
2024-06-14 11:19:33.468,74.41,-542.185,-10.22,0.292312,0.09296399999999999,-3.5919239999999997,3
2024-06-14 11:19:33.473,80.22,-547.26,-12.495000000000001,0.332816,-0.135176,-3.630232,3
2024-06-14 11:19:33.478,79.17,-556.78,-7.49,0.176168,-0.07442,-3.5502,3
2024-06-14 11:19:33.482,63.769999999999996,-566.125,-5.25,0.17153200000000002,0.12932,-3.460408,3
2024-06-14 11:19:33.487,43.015,-572.3199999999999,-6.895,0.188124,0.122732,-3.3374319999999997,3
2024-06-14 11:19:33.492,23.064999999999998,-567.315,-5.25,0.104188,0.025864,-3.114904,3
2024-06-14 11:19:33.497,2.415,-545.0899999999999,-13.3,0.029035999999999996,-0.034648,-3.2012799999999997,4
2024-06-14 11:19:33.502,9.66,-520.6600000000001,-16.555,-0.352824,-0.345504,-3.25496,4
2024-06-14 11:19:33.507,20.439999999999998,-496.15999999999997,-14.455,-0.8491200000000001,-0.536556,-3.3920879999999998,4
2024-06-14 11:19:33.511,38.08,-466.725,-9.030000000000001,-1.420568,-0.570716,-3.172488,4
2024-06-14 11:19:33.516,61.739999999999995,-435.925,-0.6300000000000001,-2.11182,-0.599996,-2.897988,4
2024-06-14 11:19:33.521,86.83500000000001,-410.305,14.07,-2.793068,-0.698572,-2.3282480000000003,4
2024-06-14 11:19:33.526,104.79,-379.575,39.760000000000005,-3.010228,-0.6090239999999999,-1.567212,4
2024-06-14 11:19:33.531,99.155,-374.64,80.95500000000001,-2.30336,-0.562664,-0.733464,4
2024-06-14 11:19:33.535,79.275,-387.695,104.61500000000001,-1.663348,-0.73322,-0.07271200000000001,4
2024-06-14 11:19:33.540,74.51499999999999,-241.04500000000002,115.045,-1.9327239999999999,-0.552416,-0.6405,4
2024-06-14 11:19:33.545,94.64,-124.285,129.255,-2.3904680000000003,-0.342576,-1.4813239999999999,4
2024-06-14 11:19:33.550,94.11500000000001,-29.645,134.925,-2.094008,-0.014883999999999994,-1.423252,4
2024-06-14 11:19:33.555,64.25999999999999,54.11,125.75500000000001,-2.003728,0.296948,-1.2336639999999999,4
2024-06-14 11:19:33.559,24.15,116.62,111.3,-1.99104,0.402844,-1.2202439999999999,4
2024-06-14 11:19:33.564,-16.695,155.47,96.74,-1.823168,0.376492,-1.215852,4
2024-06-14 11:19:33.569,-52.36,174.93,82.66999999999999,-1.628944,0.30988,-1.140212,4
2024-06-14 11:19:33.574,-77.0,182.45499999999998,71.05,-1.495232,0.200324,-1.011136,4
2024-06-14 11:19:33.579,-89.81,184.8,63.14,-1.400072,0.07686,-0.867664,4
2024-06-14 11:19:33.581,-93.13499999999999,186.26999999999998,57.995000000000005,-1.3027159999999998,-0.025131999999999998,-0.724924,4
2024-06-14 11:19:33.585,-89.845,189.385,54.425,-1.1885240000000001,-0.09784399999999999,-0.625616,4
2024-06-14 11:19:33.590,-81.34,196.10500000000002,51.94,-1.0948280000000001,-0.137372,-0.570228,4
2024-06-14 11:19:33.595,-69.22999999999999,206.325,50.155,-1.02602,-0.136396,-0.5472919999999999,4
2024-06-14 11:19:33.600,-57.015,219.17000000000002,48.265,-0.9779519999999999,-0.11760799999999999,-0.5477799999999999,4
2024-06-14 11:19:33.605,-47.144999999999996,233.45,45.92,-0.932812,-0.06490399999999999,-0.562908,4
2024-06-14 11:19:33.610,-41.370000000000005,247.97500000000002,42.980000000000004,-0.898164,-0.001464,-0.5985320000000001,4
2024-06-14 11:19:33.614,-40.879999999999995,261.905,39.480000000000004,-0.853756,0.052947999999999995,-0.63684,4
2024-06-14 11:19:33.619,-45.254999999999995,274.995,35.595,-0.822036,0.103944,-0.67344,4
2024-06-14 11:19:33.624,-51.905,287.245,31.78,-0.7888519999999999,0.116876,-0.71248,4
2024-06-14 11:19:33.629,-58.45,298.55,28.665,-0.745908,0.11321600000000001,-0.74908,4
2024-06-14 11:19:33.634,-63.21,308.735,26.39,-0.714188,0.086864,-0.7929999999999999,4
2024-06-14 11:19:33.639,-65.41499999999999,317.83500000000004,25.34,-0.676124,0.050996,-0.834236,4
2024-06-14 11:19:33.643,-64.435,326.655,25.655,-0.6441600000000001,0.012444,-0.863272,4
2024-06-14 11:19:33.648,-60.305,334.88,27.299999999999997,-0.620736,-0.030987999999999995,-0.90524,4
2024-06-14 11:19:33.653,-53.445,342.86,29.995,-0.592676,-0.06222,-0.9391559999999999,4
2024-06-14 11:19:33.658,-44.905,350.14,33.635,-0.5619320000000001,-0.08588799999999999,-0.996008,4
2024-06-14 11:19:33.663,-35.945,356.37,38.045,-0.532896,-0.099796,-1.0614,4
2024-06-14 11:19:33.668,-27.965,362.425,42.665,-0.51362,-0.080032,-1.098488,4
2024-06-14 11:19:33.672,-21.560000000000002,369.67,46.83,-0.497516,-0.04367599999999999,-1.1241079999999999,4
2024-06-14 11:19:33.677,-17.5,377.825,50.435,-0.48287599999999997,-0.009028,-1.1794959999999999,4
2024-06-14 11:19:33.682,-15.33,386.015,53.165,-0.45676799999999995,0.019764,-1.2514759999999998,4
2024-06-14 11:19:33.687,-14.21,393.89,55.125,-0.41968,0.042212,-1.3237,4
2024-06-14 11:19:33.692,-13.545,400.75,56.14,-0.386984,0.053192,-1.409832,4
2024-06-14 11:19:33.697,-13.055,406.70000000000005,56.315,-0.348188,0.05734,-1.497672,4
2024-06-14 11:19:33.701,-12.425,411.88,55.265,-0.299388,0.061731999999999995,-1.5676999999999999,4
2024-06-14 11:19:33.706,-11.795,416.36,53.34,-0.272792,0.045871999999999996,-1.62504,4
2024-06-14 11:19:33.711,-10.219999999999999,419.895,51.379999999999995,-0.2562,0.022448,-1.698972,4
2024-06-14 11:19:33.716,-7.21,422.94,49.28,-0.223016,-0.0024399999999999995,-1.7711960000000002,4
2024-06-14 11:19:33.721,-2.94,425.32,47.18,-0.184708,-0.025619999999999997,-1.8422,4
2024-06-14 11:19:33.726,2.73,426.65,45.22,-0.146156,-0.051484,-1.9283320000000002,4
2024-06-14 11:19:33.730,9.59,426.615,43.504999999999995,-0.0915,-0.07905599999999999,-2.015684,4
2024-06-14 11:19:33.735,17.535,424.76,41.894999999999996,-0.029768,-0.10125999999999999,-2.105476,4
2024-06-14 11:19:33.740,25.689999999999998,421.015,39.900000000000006,0.05246,-0.125172,-2.201124,4
2024-06-14 11:19:33.745,34.125,414.89,37.065,0.14444800000000002,-0.13956799999999997,-2.304092,4
2024-06-14 11:19:33.750,42.385000000000005,405.72,32.655,0.24888,-0.147376,-2.397544,4
2024-06-14 11:19:33.755,50.19,394.975,26.18,0.34111199999999997,-0.150304,-2.503928,4
2024-06-14 11:19:33.759,57.47,383.95000000000005,17.884999999999998,0.414312,-0.135908,-2.618364,4
2024-06-14 11:19:33.764,64.68,375.2,7.455,0.46555199999999997,-0.11834,-2.737924,4
2024-06-14 11:19:33.769,70.77,371.385,-4.585,0.500688,-0.099552,-2.859924,4
2024-06-14 11:19:33.774,74.75999999999999,374.01,-17.78,0.5309440000000001,-0.07075999999999999,-2.9736279999999997,4
2024-06-14 11:19:33.779,75.32,381.15,-31.885,0.574864,-0.05124,-3.076352,4
2024-06-14 11:19:33.784,73.255,390.775,-46.55,0.6649,-0.035868,-3.161264,4
2024-06-14 11:19:33.788,69.78999999999999,399.77,-61.215,0.7705519999999999,-0.034404000000000004,-3.225436,4
2024-06-14 11:19:33.793,65.975,405.72,-74.725,0.908168,-0.06222,-3.2744799999999996,4
2024-06-14 11:19:33.798,62.195,408.31,-86.1,1.0870199999999999,-0.107848,-3.3044919999999998,4
2024-06-14 11:19:33.803,59.36,407.33000000000004,-94.60499999999999,1.3039359999999998,-0.18690400000000001,-3.33182,4
2024-06-14 11:19:33.808,58.38,403.69,-99.19,1.569652,-0.293776,-3.3318199999999996,4
2024-06-14 11:19:33.813,59.605000000000004,398.265,-99.47,1.860744,-0.394304,-3.263988,4
2024-06-14 11:19:33.818,61.32,391.72,-95.86500000000001,2.151348,-0.45676799999999995,-3.13296,4
2024-06-14 11:19:33.822,62.16,384.09000000000003,-89.845,2.4241400000000004,-0.482632,-2.955572,4
2024-06-14 11:19:33.827,60.480000000000004,373.905,-81.41,2.682048,-0.489952,-2.74744,4
2024-06-14 11:19:33.832,58.345,360.325,-70.84,2.93532,-0.455792,-2.518324,4
2024-06-14 11:19:33.837,57.575,341.74,-58.835,3.202012,-0.404552,-2.282376,4
2024-06-14 11:19:33.842,57.785,318.185,-45.745000000000005,3.5148199999999994,-0.34404,-2.045208,4
2024-06-14 11:19:33.847,55.370000000000005,289.31,-31.325,3.874476,-0.315492,-1.838052,4
2024-06-14 11:19:33.851,50.400000000000006,255.15,-15.575,4.293424,-0.29646000000000006,-1.675792,4
2024-06-14 11:19:33.856,46.165,216.79,0.6300000000000001,4.755804,-0.273524,-1.53598,4
2024-06-14 11:19:33.861,42.349999999999994,173.32,15.995000000000001,5.15572,-0.24570799999999998,-1.405928,4
2024-06-14 11:19:33.866,37.66,124.775,29.785,5.41314,-0.21228,-1.287344,4
2024-06-14 11:19:33.871,31.43,71.4,41.615,5.445348,-0.174704,-1.212436,4
2024-06-14 11:19:33.876,22.365000000000002,13.86,51.45,5.194516,-0.136884,-1.170468,4
2024-06-14 11:19:33.880,11.235,-42.980000000000004,58.87,4.7606839999999995,-0.11834,-1.143628,4
2024-06-14 11:19:33.885,2.9050000000000002,-92.53999999999999,64.505,4.259752000000001,-0.13395600000000002,-1.15534,4
2024-06-14 11:19:33.890,-0.98,-130.27,69.195,3.7573559999999997,-0.19812800000000003,-1.219024,4
2024-06-14 11:19:33.895,-0.8049999999999999,-154.10500000000002,74.06,3.2891199999999996,-0.29548399999999997,-1.283684,4
2024-06-14 11:19:33.900,1.435,-165.26999999999998,79.625,2.9009159999999996,-0.380396,-1.353468,4
2024-06-14 11:19:33.905,-127.855,-406.90999999999997,27.37,5.051532,3.7195359999999997,-4.698708,4
