time,gyroscope_x,gyroscope_y,gyroscope_z,accelerometer_x,accelerometer_y,accelerometer_z,phase
2024-06-14 09:41:43.497,144.27,-498.96,25.69,-5.08496,1.6523679999999998,-8.434592,1
2024-06-14 09:41:43.502,269.99,-203.91,78.05,-3.98696,-1.331752,2.490752,1
2024-06-14 09:41:43.507,272.51,-159.25,77.49,-5.788656,0.648552,0.8535119999999999,1
2024-06-14 09:41:43.512,265.09,-283.15,66.08,-2.585912,-0.255224,-0.574864,1
2024-06-14 09:41:43.517,243.11,-342.02,80.36,0.024887999999999997,-0.19763999999999998,-2.210152,1
2024-06-14 09:41:43.522,191.87,-355.04,101.43,1.908568,0.42065600000000003,-1.9232079999999998,1
2024-06-14 09:41:43.526,130.34,-387.87,115.43,2.319464,0.290848,-1.314184,1
2024-06-14 09:41:43.531,40.88,-386.12,130.55,0.791048,-0.00976,-2.175504,1
2024-06-14 09:41:43.536,-7.42,-328.93,149.17,-0.44652,-0.384544,-2.480504,1
2024-06-14 09:41:43.541,-11.76,-279.23,136.15,-0.48068,-0.9969839999999999,-2.548824,1
2024-06-14 09:41:43.546,12.18,-270.34,87.85,0.0034159999999999998,-1.328824,-2.397544,1
2024-06-14 09:41:43.551,30.73,-284.06,32.83,0.31768799999999997,-1.1619279999999998,-2.101328,1
2024-06-14 09:41:43.555,32.48,-270.55,-6.86,0.132736,-0.6949120000000001,-2.00812,1
2024-06-14 09:41:43.560,41.02,-247.31,-25.34,-0.11467999999999999,-0.26352,-1.628456,1
2024-06-14 09:41:43.565,40.46,-224.14,-32.41,0.00976,0.131272,-1.6006399999999998,1
2024-06-14 09:41:43.570,51.73,-189.7,-22.19,0.113216,0.410408,-1.6123519999999998,1
2024-06-14 09:41:43.575,42.14,-158.62,3.15,0.033184,0.5133759999999999,-1.530856,1
2024-06-14 09:41:43.580,35.28,-118.86,31.08,0.011712,0.340136,-1.3566399999999998,1
2024-06-14 09:41:43.584,26.95,-86.59,38.57,0.012688,-0.135176,-1.31516,1
2024-06-14 09:41:43.589,23.45,-73.43,29.4,0.017079999999999998,0.10931199999999999,-1.187792,1
2024-06-14 09:41:43.594,20.16,-58.31,21.42,0.116144,-0.154696,-1.2331759999999998,1
2024-06-14 09:41:43.599,13.72,-42.35,17.71,0.01952,-0.07808,-1.1165439999999998,1
2024-06-14 09:41:43.604,9.59,-28.98,14.35,-0.03172,-0.034159999999999996,-1.065304,2
2024-06-14 09:41:43.609,7.98,-24.01,11.69,-0.035135999999999994,0.029768,-1.0394400000000001,2
2024-06-14 09:41:43.613,7.21,-19.11,9.8,-0.032208,0.004391999999999999,-1.05408,2
2024-06-14 09:41:43.618,5.39,-14.49,9.1,-0.037088,-0.009272,-1.047248,2
2024-06-14 09:41:43.623,4.13,-12.18,8.68,-0.051728,-0.017079999999999998,-1.0340719999999999,2
2024-06-14 09:41:43.628,3.5,-10.99,7.07,-0.047824,-0.006344,-1.024312,2
2024-06-14 09:41:43.633,2.17,-7.77,5.18,-0.038064,-0.000488,-1.0360239999999998,2
2024-06-14 09:41:43.638,0.91,-5.81,4.2,-0.062952,0.006344,-1.01992,2
2024-06-14 09:41:43.642,0.0,-6.16,3.64,-0.063928,-0.018056000000000003,-1.0194320000000001,2
2024-06-14 09:41:43.647,-0.35,-7.91,3.15,-0.06831999999999999,-0.00488,-1.0140639999999999,2
2024-06-14 09:41:43.652,-0.56,-9.94,2.03,-0.07027199999999999,0.005856,-1.002352,2
2024-06-14 09:41:43.657,-0.7,-11.55,0.91,-0.066368,0.015128,-1.0047920000000001,2
2024-06-14 09:41:43.662,-0.7,-13.44,0.7,-0.06588,0.018544,-1.001376,2
2024-06-14 09:41:43.666,-0.7,-14.21,0.7,-0.064416,0.017079999999999998,-1.0047920000000001,2
2024-06-14 09:41:43.671,-0.7,-15.33,0.35,-0.061,0.018544,-1.007232,2
2024-06-14 09:41:43.676,-0.7,-16.66,-0.35,-0.063928,0.018056000000000003,-1.008208,2
2024-06-14 09:41:43.681,-0.63,-17.78,-0.7,-0.063928,0.016592,-1.008696,2
2024-06-14 09:41:43.686,-0.56,-18.48,-0.56,-0.062464,0.020984,-1.002352,2
2024-06-14 09:41:43.691,-0.35,-19.04,-0.56,-0.060024,0.022448,-1.001376,2
2024-06-14 09:41:43.695,-0.07,-19.88,-1.05,-0.062952,0.024887999999999997,-1.001864,2
2024-06-14 09:41:43.700,0.21,-20.23,-1.4,-0.063928,0.022936,-1.0043039999999999,2
2024-06-14 09:41:43.705,0.49,-20.93,-1.4,-0.056119999999999996,0.017567999999999997,-1.006744,2
2024-06-14 09:41:43.710,0.77,-21.42,-1.19,-0.048799999999999996,0.020496,-1.0091839999999999,2
2024-06-14 09:41:43.715,1.12,-22.05,-1.33,-0.056608,0.017567999999999997,-1.008696,2
2024-06-14 09:41:43.720,1.54,-22.47,-1.4,-0.053192,0.022448,-1.00772,2
2024-06-14 09:41:43.724,1.89,-22.4,-1.4,-0.05124,0.024399999999999998,-1.006256,2
2024-06-14 09:41:43.729,2.45,-22.47,-1.26,-0.045872,0.024887999999999997,-1.00772,2
2024-06-14 09:41:43.734,2.87,-22.19,-1.26,-0.045384,0.023424,-1.006744,2
2024-06-14 09:41:43.739,3.57,-22.12,-1.54,-0.040015999999999996,0.027816,-1.005768,2
2024-06-14 09:41:43.744,-5.6,-43.61,-1.26,-0.037088,0.030744,-1.0096720000000001,2
2024-06-14 09:41:43.749,1.61,-17.78,-0.42,-0.037576,0.030744,-0.9964959999999999,2
2024-06-14 09:41:43.753,7.56,-18.83,-0.63,-0.032695999999999996,0.027816,-0.9911279999999999,2
2024-06-14 09:41:43.758,3.01,-18.55,-3.22,-0.030744,0.027327999999999998,-0.99552,2
2024-06-14 09:41:43.763,7.42,-17.08,-3.36,-0.02928,0.023424,-0.9950319999999999,2
2024-06-14 09:41:43.768,4.2,-15.75,-1.89,-0.028791999999999998,0.023424,-0.9921039999999999,2
2024-06-14 09:41:43.773,7.14,-15.19,-1.12,-0.02684,0.020007999999999998,-0.99552,2
2024-06-14 09:41:43.778,5.46,-13.23,-2.59,-0.025376,0.021472,-0.992592,2
2024-06-14 09:41:43.782,5.53,-11.69,-3.57,-0.027816,0.024399999999999998,-0.993568,2
2024-06-14 09:41:43.787,6.16,-10.71,-2.87,-0.025376,0.018544,-0.997472,2
2024-06-14 09:41:43.792,4.76,-9.94,-2.03,-0.020984,0.009272,-1.001376,2
2024-06-14 09:41:43.797,6.09,-9.17,-2.38,-0.021472,0.013663999999999999,-1.0004,2
2024-06-14 09:41:43.802,4.83,-8.75,-3.29,-0.021472,0.012688,-1.00284,2
2024-06-14 09:41:43.807,5.88,-8.4,-3.22,-0.01952,0.018056000000000003,-1.00284,2
2024-06-14 09:41:43.811,4.97,-8.12,-2.73,-0.020007999999999998,0.019032,-1.000888,2
2024-06-14 09:41:43.816,5.46,-8.26,-2.8,-0.023424,0.018056000000000003,-0.999912,2
2024-06-14 09:41:43.821,5.39,-8.47,-3.85,-0.022936,0.025864,-1.000888,2
2024-06-14 09:41:43.826,5.95,-8.75,-4.55,-0.024399999999999998,0.020984,-1.006256,2
2024-06-14 09:41:43.831,7.07,-9.38,-4.27,-0.022936,0.015128,-1.008696,2
2024-06-14 09:41:43.835,7.56,-9.66,-4.2,-0.023424,0.018544,-1.0140639999999999,2
2024-06-14 09:41:43.840,8.12,-10.64,-4.76,-0.024887999999999997,0.016592,-1.015528,2
2024-06-14 09:41:43.845,8.19,-12.39,-5.18,-0.019032,0.010736,-1.01504,2
2024-06-14 09:41:43.850,8.68,-13.79,-5.11,-0.01952,0.011712,-1.013088,2
2024-06-14 09:41:43.855,9.17,-15.61,-4.9,-0.02196,0.012199999999999999,-1.020896,2
2024-06-14 09:41:43.860,10.64,-18.41,-4.83,-0.025864,0.012688,-1.023336,2
2024-06-14 09:41:43.864,12.95,-16.1,-5.39,-0.021472,0.011712,-1.031144,2
2024-06-14 09:41:43.869,13.86,-26.25,-4.48,-0.020496,0.0034159999999999998,-1.0384639999999998,2
2024-06-14 09:41:43.874,18.34,-29.75,-4.06,-0.020496,0.023424,-1.039928,2
2024-06-14 09:41:43.879,21.07,-32.9,-4.83,-0.019032,0.013176,-1.055056,2
2024-06-14 09:41:43.884,27.09,-36.68,-4.55,-0.018544,0.014152,-1.0574959999999998,2
2024-06-14 09:41:43.889,31.64,-42.49,-3.43,-0.015128,0.02684,-1.0560319999999999,2
2024-06-14 09:41:43.893,34.58,-50.54,-3.01,-0.008296,0.010248,-1.0477359999999998,2
2024-06-14 09:41:43.898,38.5,-61.53,-2.73,-0.004391999999999999,0.020496,-1.05408,2
2024-06-14 09:41:43.903,41.37,-70.35,-2.73,0.003904,0.010248,-1.068232,2
2024-06-14 09:41:43.908,44.1,-82.32,-2.03,-0.002928,-0.02196,-1.13704,2
2024-06-14 09:41:43.913,41.02,-92.61,-1.19,-0.008296,-0.028791999999999998,-1.22488,2
2024-06-14 09:41:43.918,26.6,-92.26,-2.45,-0.018544,-0.08052,-1.4376479999999998,2
2024-06-14 09:41:43.922,11.76,-89.67,-3.64,0.00488,-0.033184,-1.225856,2
2024-06-14 09:41:43.927,9.66,-97.51,-3.01,0.008296,-0.03172,-1.3195519999999998,2
2024-06-14 09:41:43.932,6.72,-105.14,-2.45,0.013176,-0.047824,-1.3668879999999999,3
2024-06-14 09:41:43.937,5.11,-111.3,-1.54,0.01464,-0.06978399999999998,-1.41276,3
2024-06-14 09:41:43.942,4.34,-118.65,-1.05,0.021472,-0.040015999999999996,-1.4186159999999999,3
2024-06-14 09:41:43.947,0.35,-125.16,-0.77,0.023424,-0.08539999999999999,-1.4259359999999999,3
2024-06-14 09:41:43.951,-2.52,-130.9,0.63,0.027327999999999998,-0.07466400000000001,-1.420568,3
2024-06-14 09:41:43.956,-6.23,-138.32,1.82,0.033671999999999994,-0.092232,-1.4478959999999998,3
2024-06-14 09:41:43.961,-8.61,-145.18,3.43,0.040504,-0.102968,-1.44448,3
2024-06-14 09:41:43.966,-11.83,-150.22,4.76,0.047824,-0.089792,-1.449848,3
2024-06-14 09:41:43.971,-16.66,-155.05,4.97,0.043432000000000005,-0.071248,-1.446432,3
2024-06-14 09:41:43.975,-20.58,-161.35,5.67,0.044896,-0.102968,-1.479128,3
2024-06-14 09:41:43.980,-25.55,-169.54,6.93,0.045872,-0.09467199999999999,-1.485472,3
2024-06-14 09:41:43.985,-33.74,-180.18,6.58,0.051728,-0.0732,-1.5611119999999998,3
2024-06-14 09:41:43.990,-36.4,-190.47,6.3,0.028791999999999998,-0.052704,-1.536712,3
2024-06-14 09:41:43.995,-40.53,-205.94,5.46,0.023424,-0.015616,-1.616256,3
2024-06-14 09:41:44.000,-41.02,-218.05,4.2,0.016592,0.030744,-1.64456,3
2024-06-14 09:41:44.004,-38.99,-235.27,2.38,0.036112000000000005,0.02928,-1.636264,3
2024-06-14 09:41:44.009,-44.87,-247.03,0.63,0.0034159999999999998,0.11223999999999999,-1.62992,3
2024-06-14 09:41:44.014,-43.75,-267.33,-3.71,-0.00488,0.112728,-1.7011679999999998,3
2024-06-14 09:41:44.019,-44.94,-284.06,-8.05,-0.011712,0.09711199999999999,-1.724104,3
2024-06-14 09:41:44.024,-45.99,-304.36,-11.55,-0.040015999999999996,0.059536,-1.8578160000000001,3
2024-06-14 09:41:44.029,-44.8,-331.73,-13.86,-0.028791999999999998,-0.011712,-1.968592,3
2024-06-14 09:41:44.033,-41.51,-355.11,-14.28,-0.062952,-0.01952,-2.023736,3
2024-06-14 09:41:44.038,-37.94,-381.85,-16.38,-0.091744,0.13956799999999997,-2.03008,3
2024-06-14 09:41:44.043,-40.46,-407.26,-22.4,-0.124928,0.309392,-1.972008,3
2024-06-14 09:41:44.048,-34.72,-435.54,-29.68,-0.075152,0.28645600000000004,-2.021296,3
2024-06-14 09:41:44.053,-34.3,-457.45,-34.09,-0.025376,0.087352,-2.1706239999999997,3
2024-06-14 09:41:44.058,-25.97,-484.89,-32.34,0.038552,-0.169336,-2.497584,3
2024-06-14 09:41:44.062,-22.26,-510.93,-24.57,0.216184,-0.28011199999999997,-2.6757039999999996,3
2024-06-14 09:41:44.067,-19.25,-530.25,-14.98,0.386984,-0.260592,-3.038288,3
2024-06-14 09:41:44.072,-22.19,-539.56,-4.62,0.536312,-0.025864,-3.175416,3
2024-06-14 09:41:44.077,-34.86,-544.11,-0.63,0.579256,0.112728,-3.217384,3
2024-06-14 09:41:44.082,-26.6,-548.31,6.72,0.701256,0.08295999999999999,-3.473096,3
2024-06-14 09:41:44.087,-66.22,-539.0,3.64,0.40845600000000004,0.206912,-2.9870479999999997,3
2024-06-14 09:41:44.091,-73.78,-531.44,-1.4,0.21716,0.168848,-3.185176,3
2024-06-14 09:41:44.096,-72.73,-523.95,-9.03,0.113216,0.06978399999999998,-3.17444,3
2024-06-14 09:41:44.101,-56.63,-517.3,-14.14,0.005856,-0.148352,-2.89628,3
2024-06-14 09:41:44.106,-34.02,-517.65,-17.15,0.033671999999999994,-0.222528,-3.053416,3
2024-06-14 09:41:44.111,-8.47,-503.3,-21.42,0.2928,-0.045384,-2.980216,3
2024-06-14 09:41:44.116,18.83,-479.01,-19.81,0.13176,0.17275200000000002,-3.1075839999999997,3
2024-06-14 09:41:44.120,38.99,-458.08,-18.9,-0.11663199999999999,0.3538,-3.017304,3
2024-06-14 09:41:44.125,50.68,-417.13,-22.89,-0.848144,0.555832,-2.5888400000000003,3
2024-06-14 09:41:44.130,58.59,-367.29,-32.27,-1.5259759999999998,0.29621600000000003,-2.107672,3
2024-06-14 09:41:44.135,39.69,-298.2,-38.78,-2.585912,1.100928,-1.282464,3
2024-06-14 09:41:44.140,6.58,-234.15,-56.7,-2.885056,0.668072,-1.289296,3
2024-06-14 09:41:44.144,-50.75,-189.77,-105.91,-1.734352,1.038952,-0.517768,4
2024-06-14 09:41:44.149,-27.02,-207.9,-119.98,-1.282464,0.77104,-1.131184,4
2024-06-14 09:41:44.154,-37.38,-108.15,-129.43,-1.859768,0.304024,-2.1745279999999996,4
2024-06-14 09:41:44.159,-60.9,-25.48,-140.84,-1.850984,0.079544,-1.692384,4
2024-06-14 09:41:44.164,-47.88,5.18,-141.26,-1.4923039999999999,-0.050752,-1.212192,4
2024-06-14 09:41:44.169,-12.81,24.08,-131.53,-1.326384,-0.07564,-1.267336,4
2024-06-14 09:41:44.173,13.51,42.56,-118.58,-1.247816,-0.047335999999999996,-1.33468,4
2024-06-14 09:41:44.178,21.49,51.45,-104.86,-1.131672,0.045872,-1.215608,4
2024-06-14 09:41:44.183,22.68,56.49,-90.86,-1.069696,0.11858400000000001,-1.033584,4
2024-06-14 09:41:44.188,23.87,65.31,-77.14,-1.092632,0.147864,-0.879864,4
2024-06-14 09:41:44.193,23.03,78.05,-63.63,-1.1067839999999998,0.17616800000000002,-0.754936,4
2024-06-14 09:41:44.198,19.18,94.36,-50.19,-1.0950719999999998,0.200568,-0.6910080000000001,4
2024-06-14 09:41:44.202,14.07,113.61,-37.31,-1.083848,0.203008,-0.6695359999999999,4
2024-06-14 09:41:44.207,9.17,134.05,-26.04,-1.06628,0.174216,-0.656848,4
2024-06-14 09:41:44.212,5.11,154.49,-15.33,-1.041392,0.14347200000000002,-0.633424,4
2024-06-14 09:41:44.217,2.45,174.58,-4.76,-1.0126,0.1098,-0.625128,4
2024-06-14 09:41:44.222,1.19,194.25,5.11,-0.9657519999999999,0.08784,-0.620736,4
2024-06-14 09:41:44.227,0.91,213.15,13.65,-0.92964,0.06539199999999999,-0.62464,4
2024-06-14 09:41:44.231,1.12,231.63,20.3,-0.904264,0.060512,-0.6344,4
2024-06-14 09:41:44.236,0.91,249.62,25.69,-0.877912,0.05856,-0.643672,4
2024-06-14 09:41:44.241,0.35,266.91,29.89,-0.8408239999999999,0.060024,-0.666608,4
2024-06-14 09:41:44.246,-0.77,282.94,32.41,-0.803248,0.060024,-0.6954,4
2024-06-14 09:41:44.251,-2.24,297.99,33.11,-0.7637200000000001,0.060512,-0.7241920000000001,4
2024-06-14 09:41:44.256,-3.85,312.06,32.55,-0.7285839999999999,0.060512,-0.7573759999999999,4
2024-06-14 09:41:44.260,-6.16,325.22,31.36,-0.693448,0.063928,-0.7964159999999999,4
2024-06-14 09:41:44.265,-8.96,337.54,28.91,-0.6500159999999999,0.059536,-0.83448,4
2024-06-14 09:41:44.270,-11.27,348.95,25.48,-0.613416,0.05368,-0.883768,4
2024-06-14 09:41:44.275,-13.02,359.52,21.63,-0.5826720000000001,0.040504,-0.9232959999999999,4
2024-06-14 09:41:44.280,-14.14,369.11,17.5,-0.5465599999999999,0.027327999999999998,-0.96624,4
2024-06-14 09:41:44.284,-14.49,378.07,13.16,-0.517768,0.027327999999999998,-1.016504,4
2024-06-14 09:41:44.289,-14.28,386.4,8.47,-0.492392,0.026352,-1.068232,4
2024-06-14 09:41:44.294,-13.58,394.59,3.36,-0.4758,0.027816,-1.123376,4
2024-06-14 09:41:44.299,-12.95,402.43,-2.1,-0.453352,0.036112000000000005,-1.1814479999999998,4
2024-06-14 09:41:44.304,-12.46,409.92,-7.98,-0.43188,0.054655999999999996,-1.2429359999999998,4
2024-06-14 09:41:44.309,-12.67,416.22,-14.28,-0.399184,0.077592,-1.3112559999999998,4
2024-06-14 09:41:44.313,-13.51,421.33,-21.14,-0.366,0.10052799999999999,-1.381528,4
2024-06-14 09:41:44.318,-14.84,425.11,-28.07,-0.330864,0.122976,-1.4586320000000002,4
2024-06-14 09:41:44.323,-16.73,427.91,-34.65,-0.29133600000000004,0.13956799999999997,-1.527928,4
2024-06-14 09:41:44.328,-18.76,430.29,-40.88,-0.27815999999999996,0.161528,-1.627968,4
2024-06-14 09:41:44.333,-21.91,432.25,-47.18,-0.265472,0.183488,-1.698728,4
2024-06-14 09:41:44.338,-26.25,434.49,-53.48,-0.2562,0.21472,-1.780712,4
2024-06-14 09:41:44.342,-32.83,438.41,-60.27,-0.23912,0.216184,-1.8275599999999999,4
2024-06-14 09:41:44.347,-40.53,442.19,-66.15,-0.22838399999999998,0.217648,-1.899296,4
2024-06-14 09:41:44.352,-47.04,445.13,-71.12,-0.193248,0.219112,-2.00568,4
2024-06-14 09:41:44.357,-53.13,448.14,-75.11,-0.164456,0.212768,-2.099376,4
2024-06-14 09:41:44.362,-58.59,450.38,-78.05,-0.11663199999999999,0.208864,-2.203808,4
2024-06-14 09:41:44.367,-62.93,451.85,-79.52,-0.061,0.20496,-2.314096,4
2024-06-14 09:41:44.371,-67.13,453.11,-79.94,-0.013176,0.216184,-2.4199919999999997,4
2024-06-14 09:41:44.376,-72.1,453.32,-80.71,0.008783999999999998,0.260104,-2.51076,4
2024-06-14 09:41:44.381,-80.57,452.97,-83.3,0.034159999999999996,0.305488,-2.62056,4
2024-06-14 09:41:44.386,-93.59,453.74,-87.22,0.08930400000000001,0.33671999999999996,-2.7327999999999997,4
2024-06-14 09:41:44.391,-110.25,454.51,-91.84,0.152744,0.352824,-2.82796,4
2024-06-14 09:41:44.396,-129.01,454.44,-96.74,0.23472800000000002,0.343552,-2.9284879999999998,4
2024-06-14 09:41:44.400,-148.47,453.32,-100.73,0.336232,0.294752,-3.025112,4
2024-06-14 09:41:44.405,-166.6,450.8,-102.2,0.46945600000000004,0.217648,-3.141256,4
2024-06-14 09:41:44.410,-180.04,446.6,-99.61,0.630984,0.11956,-3.248128,4
2024-06-14 09:41:44.415,-186.9,440.02,-92.54,0.818864,0.017079999999999998,-3.353536,4
2024-06-14 09:41:44.420,-188.02,431.48,-80.92,1.0194320000000001,-0.0732,-3.456504,4
2024-06-14 09:41:44.425,-183.54,420.7,-65.1,1.220488,-0.14884,-3.51848,4
2024-06-14 09:41:44.429,-174.51,408.66,-46.27,1.42984,-0.193736,-3.5555679999999996,4
2024-06-14 09:41:44.434,-161.0,394.38,-25.97,1.801696,0.302072,-3.1480879999999996,4
2024-06-14 09:41:44.439,4.69,271.46,38.43,3.283264,-0.976976,-4.386632,4
2024-06-14 09:41:44.444,-82.88,323.4,32.76,1.75924,-0.768112,-2.76452,4
2024-06-14 09:41:44.449,-94.15,324.59,42.7,2.1520799999999998,0.307928,-2.2457759999999998,4
2024-06-14 09:41:44.453,-112.35,335.37,48.02,2.3111680000000003,0.5734,-3.165656,4
2024-06-14 09:41:44.458,-176.47,326.27,43.89,2.54248,0.47092,-3.8556880000000002,4
2024-06-14 09:41:44.463,-250.74,311.08,35.7,2.8152719999999998,0.203496,-3.530192,4
2024-06-14 09:41:44.468,-289.94,304.71,29.12,3.0465839999999997,-0.490928,-2.593232,4
2024-06-14 09:41:44.473,-268.94,279.37,40.74,3.406728,-1.113128,-2.176968,4
2024-06-14 09:41:44.478,-205.87,245.07,67.97,3.666344,-1.599664,-2.1149919999999995,4
2024-06-14 09:41:44.482,-130.2,202.86,100.03,3.994768,-1.745576,-1.953952,4
2024-06-14 09:41:44.487,-74.34,171.71,122.29,4.533032,-1.41032,-1.7714400000000001,4
2024-06-14 09:41:44.492,-37.59,144.13,131.25,4.969304,-1.048712,-1.630896,4
2024-06-14 09:41:44.497,-20.23,118.51,132.58,5.463648,-0.757864,-1.565504,4
2024-06-14 09:41:44.502,-17.92,89.25,126.14,5.881863999999999,-0.47189600000000004,-1.4966959999999998,4
2024-06-14 09:41:44.507,-26.6,49.77,110.11,5.9906880000000005,-0.315248,-1.43716,4
2024-06-14 09:41:44.511,-35.0,-0.07,88.97,5.820863999999999,-0.33671999999999996,-1.423984,4
2024-06-14 09:41:44.516,-38.78,-56.28,69.3,5.417776,-0.47433600000000004,-1.4762,4
2024-06-14 09:41:44.521,-35.35,-112.21,54.04,4.863408,-0.670512,-1.545984,4
2024-06-14 09:41:44.526,-17.22,-160.37,45.78,3.504816,-0.5821839999999999,-0.628544,4
2024-06-14 09:41:44.531,229.95,-472.64,82.18,3.104656,-1.348344,-6.113175999999999,4
