time,gyroscope_x,gyroscope_y,gyroscope_z,accelerometer_x,accelerometer_y,accelerometer_z,phase
2024-06-14 12:41:22.088,9.59,-421.4,43.47,4.795088,0.29524,-8.804495999999999,1
2024-06-14 12:41:22.093,-159.39,-225.05,17.36,-2.1706239999999997,0.5192319999999999,8.189616,1
2024-06-14 12:41:22.097,-1.12,7.21,52.36,-0.55388,-0.455304,-0.543144,1
2024-06-14 12:41:22.102,-51.24,-46.69,53.48,-1.929552,-0.299144,-2.204296,1
2024-06-14 12:41:22.107,-67.83,-68.04,43.47,-1.626504,-0.34501600000000004,-1.5811199999999999,1
2024-06-14 12:41:22.112,-95.69,-90.02,33.88,-0.156648,-0.24156,-1.81292,1
2024-06-14 12:41:22.117,-59.01,-132.65,21.77,0.828624,-0.243512,-2.205272,1
2024-06-14 12:41:22.122,-39.41,-169.4,8.96,1.055056,0.09955199999999999,-2.624952,1
2024-06-14 12:41:22.126,-20.72,-252.14,2.1,0.687104,0.09516,-2.623488,1
2024-06-14 12:41:22.131,-18.48,-240.45,2.31,0.25229599999999996,0.06490399999999999,-2.526376,1
2024-06-14 12:41:22.136,-27.65,-202.58,7.07,0.11858400000000001,0.06539199999999999,-2.426824,1
2024-06-14 12:41:22.141,-16.59,-158.97,11.55,0.22204,0.11419199999999999,-2.085224,1
2024-06-14 12:41:22.146,-20.65,-129.15,15.05,0.23179999999999998,0.079544,-1.890512,1
2024-06-14 12:41:22.148,-20.58,-107.31,17.15,0.166896,-0.033184,-1.60796,1
2024-06-14 12:41:22.152,-15.19,-98.84,11.13,0.045872,-0.14884,-1.401048,1
2024-06-14 12:41:22.157,-12.88,-95.41,-2.38,0.041479999999999996,-0.142496,-1.2722159999999998,1
2024-06-14 12:41:22.162,-5.39,-86.38,-13.86,0.056608,-0.09272,-1.158512,2
2024-06-14 12:41:22.167,-4.34,-73.85,-16.52,0.038552,-0.02684,-1.072136,2
2024-06-14 12:41:22.172,-5.53,-61.39,-11.41,0.02928,0.024399999999999998,-1.033584,2
2024-06-14 12:41:22.177,-5.88,-51.66,-4.62,0.015616,0.015128,-1.0238239999999998,2
2024-06-14 12:41:22.181,-7.7,-49.77,0.07,0.037576,0.000976,-1.050664,2
2024-06-14 12:41:22.186,-7.14,-43.12,0.98,0.05368,-0.025376,-1.075064,2
2024-06-14 12:41:22.191,-6.23,-32.2,-0.42,0.081496,-0.061975999999999996,-1.109224,2
2024-06-14 12:41:22.196,-5.53,-27.44,-2.52,0.1098,-0.060512,-1.131672,2
2024-06-14 12:41:22.201,-4.34,-25.27,-3.78,0.08003199999999999,-0.040992,-1.134112,2
2024-06-14 12:41:22.206,-4.62,-23.1,-3.57,0.052704,-0.009272,-1.1350879999999999,2
2024-06-14 12:41:22.210,-3.5,-20.93,-2.52,0.029768,0.024399999999999998,-1.1228879999999999,2
2024-06-14 12:41:22.215,-1.61,-19.46,-1.4,0.023424,0.045872,-1.119472,2
2024-06-14 12:41:22.220,0.42,-17.71,0.14,0.001952,0.041968,-1.091168,2
2024-06-14 12:41:22.225,2.59,-17.22,1.33,0.00244,0.011224,-1.0775039999999998,2
2024-06-14 12:41:22.230,3.71,-16.17,1.82,0.002928,-0.017079999999999998,-1.0657919999999999,2
2024-06-14 12:41:22.235,4.2,-15.54,1.68,-0.001464,-0.025864,-1.043344,2
2024-06-14 12:41:22.239,4.41,-14.77,1.54,-0.011224,-0.016592,-1.023336,2
2024-06-14 12:41:22.244,4.62,-14.07,1.89,-0.013663999999999999,-0.015128,-1.024312,2
2024-06-14 12:41:22.249,4.48,-14.63,2.66,-0.018544,-0.016592,-1.020408,2
2024-06-14 12:41:22.254,4.76,-17.15,3.01,-0.025376,-0.030256,-1.021872,2
2024-06-14 12:41:22.259,4.41,-19.11,2.8,-0.037576,-0.035624,-1.012112,2
2024-06-14 12:41:22.264,3.85,-20.65,2.31,-0.041968,-0.044408,-1.003328,2
2024-06-14 12:41:22.268,2.8,-21.7,1.82,-0.037576,-0.044408,-1.002352,2
2024-06-14 12:41:22.273,2.1,-22.68,1.96,-0.028304,-0.044896,-1.0126,2
2024-06-14 12:41:22.278,1.33,-24.15,1.75,-0.022936,-0.04392,-1.016016,2
2024-06-14 12:41:22.283,0.7,-25.76,1.61,-0.030256,-0.04392,-1.016992,2
2024-06-14 12:41:22.288,0.28,-27.3,1.33,-0.038552,-0.034648,-1.015528,2
2024-06-14 12:41:22.293,-0.07,-28.28,0.77,-0.040015999999999996,-0.022936,-1.011136,2
2024-06-14 12:41:22.297,-0.56,-28.77,0.63,-0.028304,-0.030744,-1.0047920000000001,2
2024-06-14 12:41:22.302,-0.91,-29.19,0.84,-0.008296,-0.044896,-1.00528,2
2024-06-14 12:41:22.307,-1.33,-29.54,0.77,0.001952,-0.045384,-1.0043039999999999,2
2024-06-14 12:41:22.312,-1.54,-29.96,0.7,-0.005856,-0.029768,-1.007232,2
2024-06-14 12:41:22.317,-2.03,-30.31,0.91,-0.010248,-0.039528,-1.00528,2
2024-06-14 12:41:22.322,-1.47,-36.82,0.91,-0.000976,-0.045872,-1.0047920000000001,2
2024-06-14 12:41:22.326,-3.08,-27.37,1.47,0.001464,-0.037088,-1.003816,2
2024-06-14 12:41:22.331,-3.85,-28.28,2.03,0.014152,-0.037576,-1.003816,2
2024-06-14 12:41:22.336,-4.55,-27.37,2.31,0.013176,-0.037088,-0.9969839999999999,2
2024-06-14 12:41:22.341,-3.64,2.8,2.24,0.015616,-0.022936,-0.9969839999999999,2
2024-06-14 12:41:22.346,-4.76,-27.16,2.52,0.017567999999999997,-0.026352,-0.9940559999999999,2
2024-06-14 12:41:22.351,-4.34,-27.02,2.8,0.012199999999999999,-0.028304,-0.992592,2
2024-06-14 12:41:22.355,-5.18,-27.37,3.08,0.012688,-0.022936,-0.9940559999999999,2
2024-06-14 12:41:22.360,-5.11,-27.02,3.22,0.012688,-0.021472,-0.997472,2
2024-06-14 12:41:22.365,-5.11,-26.95,3.15,0.023912,-0.02196,-0.99552,2
2024-06-14 12:41:22.370,-5.39,-26.81,2.73,0.030256,-0.01464,-0.9950319999999999,2
2024-06-14 12:41:22.375,-4.76,-28.07,2.52,0.029768,-0.011712,-0.989664,2
2024-06-14 12:41:22.380,-4.13,-27.93,2.31,0.025864,-0.008783999999999998,-0.9911279999999999,2
2024-06-14 12:41:22.385,-4.2,-27.44,2.17,0.027816,-0.00976,-0.998448,2
2024-06-14 12:41:22.389,-4.06,-27.23,2.1,0.033671999999999994,-0.02196,-1.000888,2
2024-06-14 12:41:22.394,-6.51,-41.02,1.96,0.040015999999999996,-0.018056000000000003,-1.005768,2
2024-06-14 12:41:22.399,-4.48,-28.0,1.82,0.042944,-0.021472,-1.010648,2
2024-06-14 12:41:22.404,-4.2,-28.7,1.54,0.034159999999999996,-0.026352,-1.007232,2
2024-06-14 12:41:22.409,-3.43,-30.24,1.96,0.03172,-0.01952,-1.011136,2
2024-06-14 12:41:22.414,-5.04,-30.03,2.24,0.045872,-0.024399999999999998,-1.010648,2
2024-06-14 12:41:22.418,-4.2,-31.36,2.31,0.048799999999999996,-0.014152,-1.013088,2
2024-06-14 12:41:22.423,-5.39,-31.08,2.31,0.064416,-0.024399999999999998,-1.011624,2
2024-06-14 12:41:22.428,-5.81,-30.59,2.17,0.06344,-0.020007999999999998,-1.00528,2
2024-06-14 12:41:22.433,-5.53,-29.82,2.45,0.068808,-0.023424,-1.0043039999999999,2
2024-06-14 12:41:22.438,-6.65,-44.1,3.36,0.07222400000000001,-0.027816,-1.001376,2
2024-06-14 12:41:22.443,-5.18,-29.54,2.38,0.074176,-0.020007999999999998,-1.001376,2
2024-06-14 12:41:22.447,-14.21,-30.94,1.75,0.066856,-0.012199999999999999,-1.001864,2
2024-06-14 12:41:22.452,-3.43,-30.94,1.47,0.071248,-0.012688,-1.005768,2
2024-06-14 12:41:22.457,-10.57,-30.1,1.89,0.066368,-0.01952,-1.016504,2
2024-06-14 12:41:22.462,-8.75,-30.73,2.31,0.068808,-0.015616,-1.012112,2
2024-06-14 12:41:22.467,-6.86,-32.48,2.45,0.074176,-0.015128,-1.023336,2
2024-06-14 12:41:22.472,-11.2,-33.67,2.24,0.074176,-0.016104,-1.025776,2
2024-06-14 12:41:22.476,-7.28,-33.32,1.68,0.075152,-0.018056000000000003,-1.0145520000000001,2
2024-06-14 12:41:22.481,-9.94,-34.02,1.75,0.081496,-0.011712,-1.012112,2
2024-06-14 12:41:22.486,-10.64,-34.23,1.96,0.083448,-0.015616,-1.01992,2
2024-06-14 12:41:22.491,-9.31,-35.63,2.03,0.081984,-0.015616,-1.016992,2
2024-06-14 12:41:22.496,-12.04,-36.54,1.75,0.08052,-0.013663999999999999,-1.03212,2
2024-06-14 12:41:22.501,-12.39,-38.64,1.47,0.088816,-0.010736,-1.0379759999999998,2
2024-06-14 12:41:22.505,-13.23,-39.34,1.12,0.088328,-0.00732,-1.035048,2
2024-06-14 12:41:22.510,-13.72,-41.02,0.98,0.091256,-0.00732,-1.0340719999999999,2
2024-06-14 12:41:22.515,-12.53,-43.33,0.84,0.093208,-0.00244,-1.0492000000000001,2
2024-06-14 12:41:22.520,-12.95,-45.43,0.77,0.093696,-0.012688,-1.0555439999999998,2
2024-06-14 12:41:22.525,-12.81,-50.12,0.7,0.093208,-0.027327999999999998,-1.057008,2
2024-06-14 12:41:22.530,-12.39,-50.89,0.63,0.106872,-0.001464,-1.035536,2
2024-06-14 12:41:22.534,-11.62,-52.15,0.91,0.113216,-0.000976,-1.030656,2
2024-06-14 12:41:22.539,-9.31,-51.66,1.12,0.117608,-0.024887999999999997,-1.037,2
2024-06-14 12:41:22.544,8.61,-33.32,-0.35,0.124928,-0.015128,-1.013088,2
2024-06-14 12:41:22.549,2.24,-31.85,3.08,0.12688,0.020496,-1.0145520000000001,2
2024-06-14 12:41:22.554,27.09,-46.2,5.18,0.130296,0.0034159999999999998,-1.042368,2
2024-06-14 12:41:22.559,21.7,-57.4,3.5,0.11858400000000001,-0.046848,-1.279048,2
2024-06-14 12:41:22.563,13.37,-50.26,3.01,0.12395199999999999,-0.025376,-1.1833999999999998,2
2024-06-14 12:41:22.568,11.83,-55.65,3.08,0.130296,-0.078568,-1.209264,2
2024-06-14 12:41:22.573,9.38,-65.8,4.83,0.13176,-0.063928,-1.240008,2
2024-06-14 12:41:22.578,6.72,-73.85,5.53,0.127856,-0.057583999999999996,-1.24684,2
2024-06-14 12:41:22.583,4.34,-79.24,6.72,0.13956799999999997,-0.061975999999999996,-1.247328,2
2024-06-14 12:41:22.588,1.4,-84.28,7.42,0.13566399999999998,-0.040504,-1.30052,2
2024-06-14 12:41:22.593,2.66,-89.46,7.63,0.1464,-0.025376,-1.32248,2
2024-06-14 12:41:22.597,4.13,-96.81,7.84,0.179584,-0.010248,-1.403488,2
2024-06-14 12:41:22.602,0.63,-102.9,8.33,0.14396,-0.044896,-1.370304,2
2024-06-14 12:41:22.607,0.42,-105.14,9.31,0.147376,0.013663999999999999,-1.380552,2
2024-06-14 12:41:22.612,-0.28,-107.38,7.77,0.153232,-0.006344,-1.4332559999999999,2
2024-06-14 12:41:22.617,2.52,-113.68,7.35,0.1586,-0.003904,-1.3790879999999999,3
2024-06-14 12:41:22.622,2.1,-115.5,7.21,0.166896,-0.020496,-1.3644479999999999,3
2024-06-14 12:41:22.626,1.68,-122.99,7.35,0.184464,-0.049775999999999994,-1.465952,3
2024-06-14 12:41:22.631,-0.91,-133.21,8.19,0.158112,-0.07027199999999999,-1.5240239999999998,3
2024-06-14 12:41:22.636,-1.96,-143.36,9.59,0.192272,-0.09516,-1.5240239999999998,3
2024-06-14 12:41:22.641,-3.43,-155.82,11.27,0.158112,-0.11858400000000001,-1.5650160000000002,3
2024-06-14 12:41:22.646,-4.76,-167.58,13.44,0.16250399999999998,-0.14347200000000002,-1.621136,3
2024-06-14 12:41:22.651,-7.21,-182.07,15.96,0.15372,-0.14347200000000002,-1.658712,3
2024-06-14 12:41:22.655,-9.24,-194.95,18.34,0.156648,-0.117608,-1.703608,3
2024-06-14 12:41:22.660,-9.73,-209.23,20.65,0.14152,-0.111264,-1.7782719999999999,3
2024-06-14 12:41:22.665,-9.03,-225.75,22.12,0.14054399999999997,-0.088816,-1.8973440000000001,3
2024-06-14 12:41:22.670,-12.67,-245.35,23.87,0.130296,-0.16738399999999998,-1.9822559999999998,3
2024-06-14 12:41:22.675,-17.29,-264.53,27.09,0.133712,-0.24888,-2.034472,3
2024-06-14 12:41:22.680,-24.08,-283.22,31.64,0.099064,-0.35233600000000004,-2.0008,3
2024-06-14 12:41:22.684,-27.51,-301.35,37.66,0.105896,-0.362584,-2.128656,3
2024-06-14 12:41:22.689,-32.62,-321.09,42.77,0.088328,-0.26644799999999996,-2.1969760000000003,3
2024-06-14 12:41:22.694,-37.24,-346.99,46.06,0.08784,-0.206912,-2.2330879999999995,3
2024-06-14 12:41:22.699,-42.49,-367.5,48.51,0.10003999999999999,-0.172264,-2.443904,3
2024-06-14 12:41:22.704,-45.99,-389.13,49.91,0.069296,-0.21862399999999999,-2.5366239999999998,3
2024-06-14 12:41:22.709,-47.11,-411.6,51.24,0.09516,-0.216184,-2.729872,3
2024-06-14 12:41:22.713,-53.2,-433.79,52.08,0.171776,-0.16250399999999998,-2.931904,3
2024-06-14 12:41:22.718,-58.31,-453.39,51.45,0.211792,-0.250344,-3.080744,3
2024-06-14 12:41:22.723,-55.72,-469.0,51.94,0.290848,-0.301584,-3.343288,3
2024-06-14 12:41:22.728,-55.72,-480.55,51.31,0.29768,-0.376736,-3.474072,3
2024-06-14 12:41:22.733,-51.24,-490.7,53.13,0.33476799999999995,-0.517768,-3.49896,3
2024-06-14 12:41:22.738,-49.14,-500.29,55.58,0.18544,-0.598288,-3.422344,3
2024-06-14 12:41:22.742,-38.5,-501.97,59.92,0.13176,-0.691984,-3.386232,3
2024-06-14 12:41:22.747,-33.04,-507.43,63.98,0.034648,-0.6095119999999999,-3.353536,4
2024-06-14 12:41:22.752,-23.94,-511.63,68.39,-0.150304,-0.49288,-3.3179119999999998,4
2024-06-14 12:41:22.757,-13.58,-513.59,70.77,-0.430904,-0.349408,-3.21592,4
2024-06-14 12:41:22.762,-2.73,-513.1,72.8,-0.701256,-0.39771999999999996,-3.080744,4
2024-06-14 12:41:22.767,-0.56,-505.47,75.11,-0.9628239999999999,-0.44944799999999996,-2.8923759999999996,4
2024-06-14 12:41:22.771,6.79,-491.61,79.87,-1.288808,-0.518744,-2.574688,4
2024-06-14 12:41:22.776,-0.07,-476.98,86.45,-1.604544,-0.66124,-2.53516,4
2024-06-14 12:41:22.781,-5.39,-474.95,93.38,-1.9510239999999999,-0.618784,-2.649352,4
2024-06-14 12:41:22.786,-4.06,-464.73,99.68,-2.471232,-0.549488,-1.745576,4
2024-06-14 12:41:22.791,3.71,-421.19,105.7,-2.835768,-0.41236,-0.5280159999999999,4
2024-06-14 12:41:22.796,-28.56,-317.38,97.51,-2.03252,-0.40064799999999995,0.46603999999999995,4
2024-06-14 12:41:22.800,-1.75,-288.68,78.47,-1.5767280000000001,-0.478728,1.967128,4
2024-06-14 12:41:22.805,50.26,-134.75,66.36,-1.7206879999999998,-0.5143519999999999,-0.462136,4
2024-06-14 12:41:22.810,92.54,-91.56,45.78,-1.547448,-0.427976,-1.4273999999999998,4
2024-06-14 12:41:22.815,73.36,44.17,10.57,-1.5342719999999999,0.062952,-1.90808,4
2024-06-14 12:41:22.820,54.88,126.35,-17.08,-1.577704,0.079544,-1.09068,4
2024-06-14 12:41:22.825,14.49,173.88,-42.63,-1.5318319999999999,0.071248,-0.865712,4
2024-06-14 12:41:22.830,-24.36,204.61,-63.63,-1.31272,0.049288,-0.8891359999999999,4
2024-06-14 12:41:22.834,-59.57,221.76,-79.31,-1.116056,-0.069296,-1.015528,4
2024-06-14 12:41:22.839,-84.21,228.13,-88.48,-0.9911279999999999,-0.26400799999999996,-1.0194320000000001,4
2024-06-14 12:41:22.844,-94.36,230.86,-90.93,-0.9330559999999999,-0.420168,-0.860832,4
2024-06-14 12:41:22.849,-94.36,234.64,-88.13,-0.917928,-0.5294800000000001,-0.6587999999999999,4
2024-06-14 12:41:22.854,-83.72,241.15,-81.83,-0.906216,-0.60756,-0.5465599999999999,4
2024-06-14 12:41:22.859,-68.67,248.71,-72.87,-0.8486319999999999,-0.677832,-0.5343600000000001,4
2024-06-14 12:41:22.863,-49.77,254.8,-62.16,-0.7686000000000001,-0.693936,-0.574864,4
2024-06-14 12:41:22.868,-27.16,258.72,-50.61,-0.69784,-0.677832,-0.616832,4
2024-06-14 12:41:22.873,-5.74,261.59,-39.06,-0.655384,-0.640744,-0.640744,4
2024-06-14 12:41:22.878,12.6,264.25,-28.07,-0.622688,-0.576816,-0.641232,4
2024-06-14 12:41:22.883,26.25,265.65,-17.99,-0.5958479999999999,-0.501176,-0.662216,4
2024-06-14 12:41:22.888,34.93,267.75,-9.52,-0.565592,-0.428952,-0.6944239999999999,4
2024-06-14 12:41:22.892,39.48,270.27,-2.59,-0.545584,-0.354288,-0.73688,4
2024-06-14 12:41:22.897,40.11,273.77,2.59,-0.525576,-0.28548,-0.777872,4
2024-06-14 12:41:22.902,38.78,278.46,5.95,-0.512888,-0.22935999999999998,-0.81496,4
2024-06-14 12:41:22.907,36.89,284.9,7.56,-0.50996,-0.19422399999999998,-0.853024,4
2024-06-14 12:41:22.912,35.35,292.25,7.63,-0.50752,-0.160552,-0.899872,4
2024-06-14 12:41:22.917,34.93,301.14,6.37,-0.49776,-0.132736,-0.941352,4
2024-06-14 12:41:22.921,35.42,310.52,3.57,-0.484584,-0.110288,-0.983808,4
2024-06-14 12:41:22.926,35.98,319.9,-0.49,-0.465064,-0.076616,-1.030656,4
2024-06-14 12:41:22.931,36.68,328.37,-5.67,-0.44408,-0.046848,-1.076528,4
2024-06-14 12:41:22.936,36.75,334.6,-11.69,-0.42065600000000003,-0.015128,-1.119472,4
2024-06-14 12:41:22.941,36.05,339.36,-18.48,-0.39088799999999996,0.00488,-1.166808,4
2024-06-14 12:41:22.946,35.14,342.51,-25.48,-0.372344,0.011712,-1.219512,4
2024-06-14 12:41:22.950,35.35,344.4,-32.55,-0.34794400000000003,0.017567999999999997,-1.2702639999999998,4
2024-06-14 12:41:22.955,37.03,345.45,-39.55,-0.32696,0.00488,-1.315648,4
2024-06-14 12:41:22.960,39.62,345.31,-46.13,-0.30988,-0.001952,-1.365912,4
2024-06-14 12:41:22.965,43.19,346.29,-52.22,-0.294264,-0.015128,-1.421544,4
2024-06-14 12:41:22.970,47.11,347.83,-57.89,-0.28157600000000005,-0.025864,-1.4747359999999998,4
2024-06-14 12:41:22.975,51.24,349.72,-62.93,-0.26156799999999997,-0.032695999999999996,-1.536712,4
2024-06-14 12:41:22.979,54.81,352.66,-67.69,-0.24156,-0.034159999999999996,-1.5986879999999999,4
2024-06-14 12:41:22.984,57.05,355.74,-71.96,-0.206912,-0.027327999999999998,-1.673352,4
2024-06-14 12:41:22.989,57.54,358.33,-75.88,-0.177144,-0.022448,-1.765096,4
2024-06-14 12:41:22.994,56.0,359.66,-79.66,-0.15176800000000001,-0.023912,-1.85928,4
2024-06-14 12:41:22.999,52.43,360.22,-84.14,-0.113704,-0.018056000000000003,-1.9236959999999999,4
2024-06-14 12:41:23.004,48.93,360.08,-88.48,-0.081008,-0.018544,-1.971032,4
2024-06-14 12:41:23.008,46.06,358.96,-92.4,-0.05856,-0.0366,-2.0354479999999997,4
2024-06-14 12:41:23.013,43.33,357.21,-95.41,-0.02196,-0.050752,-2.106696,4
2024-06-14 12:41:23.018,41.44,355.25,-97.72,0.022936,-0.083936,-2.20332,4
2024-06-14 12:41:23.023,40.6,352.45,-99.4,0.040504,-0.123464,-2.334104,4
2024-06-14 12:41:23.028,41.23,349.65,-100.59,0.054655999999999996,-0.161528,-2.467816,4
2024-06-14 12:41:23.033,42.7,347.27,-101.64,0.072712,-0.20447200000000001,-2.592256,4
2024-06-14 12:41:23.038,44.94,346.5,-102.62,0.125416,-0.213744,-2.673752,4
2024-06-14 12:41:23.042,47.67,347.34,-103.81,0.246928,-0.167872,-2.694736,4
2024-06-14 12:41:23.047,50.47,351.89,-105.35,0.41577600000000003,-0.105896,-2.714744,4
2024-06-14 12:41:23.052,53.76,355.53,-105.49,0.593408,-0.05856,-2.820152,4
2024-06-14 12:41:23.057,54.46,358.12,-103.18,0.8130080000000001,0.00244,-2.92556,4
2024-06-14 12:41:23.062,49.84,358.68,-100.31,1.052128,0.076616,-2.998272,4
2024-06-14 12:41:23.067,39.83,357.21,-98.21,1.304424,0.14347200000000002,-3.0480479999999996,4
2024-06-14 12:41:23.071,26.11,353.5,-96.95,1.547448,0.20984,-3.114904,4
2024-06-14 12:41:23.076,9.66,348.6,-95.13,1.760704,0.212768,-3.18908,4
2024-06-14 12:41:23.081,-9.24,344.33,-91.49,1.96176,0.11175199999999999,-3.229096,4
2024-06-14 12:41:23.086,-29.96,341.32,-84.84,2.165744,-0.07222400000000001,-3.199328,4
2024-06-14 12:41:23.091,-51.1,338.8,-74.62,2.3443519999999998,-0.305488,-3.085136,4
2024-06-14 12:41:23.096,-67.69,336.35,-61.67,2.440976,-0.488,-2.89872,4
2024-06-14 12:41:23.100,-70.77,332.78,-49.14,2.509296,-0.530944,-2.684488,4
2024-06-14 12:41:23.105,-57.47,327.25,-38.64,2.5986,-0.503128,-2.45464,4
2024-06-14 12:41:23.110,-34.65,317.03,-28.98,2.71084,-0.482632,-2.1901439999999996,4
2024-06-14 12:41:23.115,-12.25,303.66,-19.74,2.771352,-0.460184,-1.9412639999999999,4
2024-06-14 12:41:23.120,5.32,285.95,-10.08,2.920192,-0.434808,-1.7568,4
2024-06-14 12:41:23.125,18.13,267.82,1.82,3.2105520000000003,-0.45871999999999996,-1.6103999999999998,4
2024-06-14 12:41:23.129,28.84,249.62,16.66,3.561912,-0.453352,-1.4518,4
2024-06-14 12:41:23.134,39.34,230.58,32.83,3.937672,-0.369416,-1.27856,4
2024-06-14 12:41:23.139,50.47,211.82,48.44,4.271464,-0.209352,-1.101416,4
2024-06-14 12:41:23.144,62.65,190.96,62.51,4.567192,0.016104,-0.94184,4
2024-06-14 12:41:23.149,70.98,165.83,75.6,4.793136,0.20788800000000002,-0.85156,4
2024-06-14 12:41:23.154,73.57,135.52,82.81,5.007855999999999,0.394792,-0.82228,4
2024-06-14 12:41:23.158,70.21,98.14,83.65,4.961496,0.501664,-0.82716,4
2024-06-14 12:41:23.163,58.94,56.84,85.05,4.8102160000000005,0.60024,-0.823256,4
2024-06-14 12:41:23.168,42.77,13.3,84.42,4.53596,0.6417200000000001,-0.812032,4
2024-06-14 12:41:23.173,23.8,-27.79,82.04,4.20412,0.625616,-0.815936,4
2024-06-14 12:41:23.178,5.32,-63.14,78.4,3.854224,0.55876,-0.884744,4
2024-06-14 12:41:23.183,-9.66,-90.37,73.78,3.512136,0.44456799999999996,-1.002352,4
2024-06-14 12:41:23.187,-20.72,-106.26,67.34,2.985096,0.38795999999999997,-0.7964159999999999,4
2024-06-14 12:41:23.192,-124.74,-421.4,13.72,3.5394639999999997,1.031632,-9.336416,4
