time,gyroscope_x,gyroscope_y,gyroscope_z,accelerometer_x,accelerometer_y,accelerometer_z,phase
2024-06-14 12:58:28.974,249.79500000000002,-426.685,59.43,-0.010735999999999968,-2.836988,-5.448764,1
2024-06-14 12:58:28.979,185.43,-383.145,50.75,-0.9569679999999999,0.543388,0.652212,1
2024-06-14 12:58:28.984,159.70499999999998,-352.1,37.765,-2.083272,0.35868,0.8264279999999999,1
2024-06-14 12:58:28.989,233.065,-403.83000000000004,53.305,-0.71614,0.810568,-0.8971879999999999,1
2024-06-14 12:58:28.994,243.53,-406.945,60.129999999999995,0.431636,0.028548,-1.945412,1
2024-06-14 12:58:28.999,217.28,-387.73,73.92,0.42480399999999996,-0.145424,-1.629188,1
2024-06-14 12:58:29.003,176.225,-372.05,87.15,0.366244,-0.12566,-1.239764,1
2024-06-14 12:58:29.008,145.88,-362.17999999999995,94.71000000000001,0.773968,-0.20178800000000002,-1.448872,1
2024-06-14 12:58:29.013,224.28,-243.70499999999998,102.47999999999999,0.72834,-0.420168,-1.2414720000000001,1
2024-06-14 12:58:29.018,64.575,-108.675,92.26,0.35746,-0.34477199999999997,-1.823656,1
2024-06-14 12:58:29.023,93.345,-122.745,81.375,0.03708799999999999,-0.409188,-2.0862,1
2024-06-14 12:58:29.028,110.215,-169.225,63.839999999999996,-0.050996,-0.6573359999999999,-2.066436,1
2024-06-14 12:58:29.032,101.36,-254.45,48.125,0.044896000000000005,-0.8015399999999999,-2.287988,1
2024-06-14 12:58:29.037,38.43,-252.42000000000002,33.705,0.315492,-0.738344,-2.2813999999999997,1
2024-06-14 12:58:29.042,35.07,-221.305,21.525,0.318176,-0.556808,-2.244556,1
2024-06-14 12:58:29.047,-4.34,-176.19,4.48,0.325984,-0.363316,-2.144272,1
2024-06-14 12:58:29.052,11.83,-125.825,-5.914999999999999,0.253028,-0.13468799999999997,-1.844396,1
2024-06-14 12:58:29.057,-1.3649999999999998,-88.375,-10.29,0.195932,0.00048799999999999885,-1.5652599999999999,1
2024-06-14 12:58:29.061,12.18,-53.515,-5.18,0.30744,0.104676,-1.46644,1
2024-06-14 12:58:29.066,11.27,-25.41,-1.61,0.302072,0.01586,-1.213412,1
2024-06-14 12:58:29.071,8.225,-17.465,-2.1,0.324276,0.052704,-1.064816,1
2024-06-14 12:58:29.076,7.105,-11.795,0.735,0.16348000000000001,0.020496,-1.074332,1
2024-06-14 12:58:29.081,4.515000000000001,-6.93,0.21,0.030012000000000004,-0.012931999999999999,-1.0821399999999999,2
2024-06-14 12:58:29.086,5.04,-7.0,2.065,-0.032451999999999995,0.0009759999999999999,-1.0984880000000001,2
2024-06-14 12:58:29.090,0.945,-9.065,1.505,-0.05489999999999999,0.011956000000000001,-1.0701839999999998,2
2024-06-14 12:58:29.095,2.94,-7.3500000000000005,0.84,-0.0029280000000000005,-0.017324,-1.037,2
2024-06-14 12:58:29.100,-1.4,-6.09,0.735,-0.007076,-0.041968000000000005,-1.037244,2
2024-06-14 12:58:29.105,-2.765,-5.495,1.6099999999999999,-0.009272,-0.017079999999999998,-1.03456,2
2024-06-14 12:58:29.110,-4.76,-3.955,1.96,-0.0068319999999999995,0.008784,-1.0277279999999998,2
2024-06-14 12:58:29.115,-5.425000000000001,-1.9600000000000002,1.54,-0.01708,0.020252,-1.0287039999999998,2
2024-06-14 12:58:29.119,-5.039999999999999,-1.225,1.365,-0.012931999999999999,0.01708,-1.017724,2
2024-06-14 12:58:29.124,-4.41,-0.4899999999999999,1.505,-0.014395999999999999,0.022204,-1.0126,2
2024-06-14 12:58:29.129,-3.115,-0.28,1.575,-0.012444,0.02806,-1.017236,2
2024-06-14 12:58:29.134,-2.5549999999999997,-0.35000000000000003,1.47,-0.016347999999999998,0.031232,-1.0213839999999998,2
2024-06-14 12:58:29.139,-1.085,-1.155,1.33,-0.021228,0.022448,-1.0265080000000002,2
2024-06-14 12:58:29.144,-0.595,-2.135,1.4,-0.025132,0.016836,-1.0311439999999998,2
2024-06-14 12:58:29.148,-0.105,-3.57,1.47,-0.025132,0.00976,-1.040172,2
2024-06-14 12:58:29.153,-0.035,-5.285,1.26,-0.017568,0.016592000000000003,-1.0433439999999998,2
2024-06-14 12:58:29.158,0.315,-6.825,1.19,-0.024888,0.018056,-1.044808,2
2024-06-14 12:58:29.163,0.7,-8.995000000000001,1.0150000000000001,-0.028304,0.024156,-1.050176,2
2024-06-14 12:58:29.168,1.19,-10.29,0.77,-0.028791999999999998,0.020252,-1.03578,2
2024-06-14 12:58:29.173,1.5750000000000002,-11.165,0.56,-0.025376,0.020739999999999998,-1.0248,2
2024-06-14 12:58:29.177,-0.49,-9.73,0.0,-0.02074,0.0068319999999999995,-1.019432,2
2024-06-14 12:58:29.182,-0.27999999999999997,-10.01,-0.035,-0.021471999999999998,0.014395999999999999,-1.0201639999999998,2
2024-06-14 12:58:29.187,-0.315,-10.5,-0.06999999999999999,-0.020252,0.010736,-1.0240679999999998,2
2024-06-14 12:58:29.192,-0.245,-10.955,-0.21,-0.016592,0.004148,-1.0262639999999998,2
2024-06-14 12:58:29.197,-0.735,-11.094999999999999,0.0,-0.019763999999999997,0.002928,-1.0309,2
2024-06-14 12:58:29.202,-1.225,-11.585,-0.035,-0.017812,0.005856,-1.033828,2
2024-06-14 12:58:29.209,-1.8199999999999998,-12.6,-0.035,-0.022692,0.0053679999999999995,-1.0374879999999997,2
2024-06-14 12:58:29.213,-2.31,-13.44,0.035,-0.021716,0.003416,-1.036024,2
2024-06-14 12:58:29.218,-2.7649999999999997,-14.489999999999998,-0.14,-0.019032,0.009028,-1.0348039999999998,2
2024-06-14 12:58:29.223,-2.8,-15.015,-0.21000000000000002,-0.015616,0.0075639999999999995,-1.0282159999999998,2
2024-06-14 12:58:29.228,-2.9749999999999996,-15.364999999999998,-0.21000000000000002,-0.015127999999999999,0.0075639999999999995,-1.018456,2
2024-06-14 12:58:29.233,-3.185,-15.645,-0.35,-0.006344,0.005612,-1.0165039999999999,2
2024-06-14 12:58:29.237,-3.3600000000000003,-14.91,-0.42,-0.003904,0.005856,-1.01016,2
2024-06-14 12:58:29.242,-3.3600000000000003,-14.315000000000001,-0.45499999999999996,-0.0075639999999999995,0.0046359999999999995,-1.006744,2
2024-06-14 12:58:29.247,-3.465,-13.895,-0.385,0.00366,0.006588,-1.008208,2
2024-06-14 12:58:29.252,-3.535,-14.105,-0.385,-0.00976,0.008296,-1.014308,2
2024-06-14 12:58:29.257,-3.3600000000000003,-14.175,-0.49,-0.005856,0.014884000000000001,-1.016992,2
2024-06-14 12:58:29.262,-3.605,-14.315,-0.63,-0.005612,0.013176,-1.0133320000000001,2
2024-06-14 12:58:29.266,-3.325,-14.63,-0.63,-0.00366,0.01586,-1.014552,2
2024-06-14 12:58:29.271,-3.045,-14.594999999999999,-0.735,-0.003904,0.016348,-1.0108920000000001,2
2024-06-14 12:58:29.276,-2.9050000000000002,-14.315,-0.8049999999999999,0.001952,0.014152000000000001,-1.011136,2
2024-06-14 12:58:29.281,-1.855,0.03500000000000014,-0.9450000000000001,0.0,0.01342,-1.008696,2
2024-06-14 12:58:29.286,-2.625,-13.16,-0.875,0.000732,0.012931999999999999,-1.0060120000000001,2
2024-06-14 12:58:29.290,-2.275,-13.93,-0.525,0.005123999999999999,0.014152,-1.0060120000000001,2
2024-06-14 12:58:29.295,-2.4850000000000003,-13.125,-0.5249999999999999,0.00488,0.015372,-1.008696,2
2024-06-14 12:58:29.300,-2.065,-12.775,-0.9099999999999999,0.00488,0.017812,-1.0082080000000002,2
2024-06-14 12:58:29.305,-1.225,-12.145,-1.015,0.002196,0.020007999999999998,-1.006988,2
2024-06-14 12:58:29.310,-0.9450000000000001,-11.9,-0.77,0.00732,0.012931999999999999,-1.006256,2
2024-06-14 12:58:29.315,-0.42,-11.024999999999999,-0.525,0.007808,0.010735999999999999,-1.01016,2
2024-06-14 12:58:29.319,-0.35,-9.59,-0.63,0.009028,0.008539999999999999,-1.0091839999999999,2
2024-06-14 12:58:29.324,0.455,-8.190000000000001,-0.77,0.00854,0.012688,-1.0082080000000002,2
2024-06-14 12:58:29.329,0.735,-7.0,-0.665,0.008784,0.013663999999999999,-1.0043039999999999,2
2024-06-14 12:58:29.334,0.77,-6.824999999999999,-0.595,0.010248,0.011956,-1.007964,2
2024-06-14 12:58:29.339,0.8049999999999999,-6.79,-0.77,0.011712,0.012444,-1.006256,2
2024-06-14 12:58:29.343,0.665,-6.65,-0.945,0.010492000000000001,0.005855999999999999,-1.008208,2
2024-06-14 12:58:29.348,0.35,-6.58,-0.98,0.01098,0.010003999999999999,-1.012356,2
2024-06-14 12:58:29.353,0.315,-7.035,-0.84,0.011467999999999999,0.01098,-1.0140639999999999,2
2024-06-14 12:58:29.358,0.385,-7.3149999999999995,-0.77,0.012444,0.012199999999999999,-1.012844,2
2024-06-14 12:58:29.363,0.735,-7.42,-1.12,0.014395999999999999,0.013176,-1.010648,2
2024-06-14 12:58:29.368,0.63,-6.6850000000000005,-1.26,0.01464,0.010004,-1.0072320000000001,2
2024-06-14 12:58:29.372,0.525,-7.699999999999999,-1.225,0.014639999999999999,0.006344000000000001,-1.010648,2
2024-06-14 12:58:29.377,0.455,-7.875,-1.085,0.015615999999999998,0.006344,-1.009184,2
2024-06-14 12:58:29.382,0.35,-7.699999999999999,-1.12,0.016104,0.006344000000000001,-1.0065,2
2024-06-14 12:58:29.387,-13.264999999999999,90.96499999999999,-14.139999999999999,0.009516,0.008539999999999999,-0.9311039999999999,2
2024-06-14 12:58:29.392,5.81,22.82,2.135,0.017568,0.007564,-1.0055239999999999,2
2024-06-14 12:58:29.396,-5.635,16.904999999999994,-0.10500000000000043,0.018543999999999998,0.007076,-1.008696,2
2024-06-14 12:58:29.401,4.41,-3.114999999999995,-3.2199999999999998,0.016104,0.00366,-1.01626,2
2024-06-14 12:58:29.406,-3.955,-15.330000000000005,-4.165,0.016592,0.0053679999999999995,-1.020896,2
2024-06-14 12:58:29.411,1.26,-3.780000000000001,-0.9450000000000001,0.016592000000000003,0.00366,-1.0309,2
2024-06-14 12:58:29.416,-3.955,-17.71,-0.17499999999999982,0.012931999999999999,0.008539999999999999,-1.04554,2
2024-06-14 12:58:29.421,-2.94,-17.08,-1.5750000000000002,0.01464,0.01098,-1.0523719999999999,2
2024-06-14 12:58:29.425,-4.515000000000001,-17.919999999999998,-3.255,0.013908,0.009272,-1.057252,2
2024-06-14 12:58:29.430,-7.455,-19.005000000000003,-2.485,0.015616,0.01464,-1.062376,2
2024-06-14 12:58:29.435,-8.504999999999999,-19.74,-1.33,0.015616,0.018299999999999997,-1.056032,2
2024-06-14 12:58:29.440,-10.36,-23.205000000000002,-2.0300000000000002,0.016104,0.013176,-1.066524,2
2024-06-14 12:58:29.445,-8.54,-27.159999999999997,-3.395,0.016347999999999998,0.006588,-1.0836039999999998,2
2024-06-14 12:58:29.449,-7.63,-31.009999999999998,-3.185,0.022692,0.020007999999999998,-1.077016,2
2024-06-14 12:58:29.454,-2.8,-35.629999999999995,-1.435,0.029524,0.002684,-1.0777480000000002,2
2024-06-14 12:58:29.459,1.155,-41.825,-0.56,0.018056,0.005856,-1.12972,2
2024-06-14 12:58:29.464,4.76,-48.16,-1.0499999999999998,0.020007999999999998,-0.008539999999999999,-1.1641240000000002,2
2024-06-14 12:58:29.469,7.105,-51.379999999999995,-0.245,0.029524,-0.007807999999999999,-1.291736,2
2024-06-14 12:58:29.474,-8.435,-43.54,-0.31500000000000006,0.017812,0.005612,-1.140456,2
2024-06-14 12:58:29.478,-8.995000000000001,-49.769999999999996,-0.034999999999999976,0.00976,0.0012200000000000015,-1.278804,2
2024-06-14 12:58:29.483,-10.64,-54.18000000000001,-0.525,0.013176,0.005124,-1.296616,3
2024-06-14 12:58:29.488,-12.145,-60.165000000000006,-1.54,0.0075639999999999995,0.024399999999999998,-1.343708,3
2024-06-14 12:58:29.493,-10.885000000000002,-67.97,-1.295,0.007807999999999999,-0.022935999999999998,-1.349564,3
2024-06-14 12:58:29.498,-10.43,-73.28999999999999,-0.31499999999999995,0.014639999999999999,0.004148000000000001,-1.325896,3
2024-06-14 12:58:29.502,-12.075,-79.275,-0.595,0.026108,0.0009760000000000012,-1.3085719999999998,3
2024-06-14 12:58:29.507,-12.985,-85.33,-1.26,0.022692,0.035136,-1.343464,3
2024-06-14 12:58:29.512,-14.77,-91.175,-1.9949999999999999,0.025376,0.002196,-1.33346,3
2024-06-14 12:58:29.517,-14.0,-97.50999999999999,-1.225,0.02806,0.002196,-1.345416,3
2024-06-14 12:58:29.522,-14.280000000000001,-104.16,-1.155,0.035624,0.016104,-1.335412,3
2024-06-14 12:58:29.527,-13.405,-111.055,-1.33,0.037576,0.01342,-1.37128,3
2024-06-14 12:58:29.531,-12.705,-118.755,-1.54,0.031964,0.0183,-1.3893360000000001,3
2024-06-14 12:58:29.536,-12.215,-127.19,-1.925,0.031964,0.042944,-1.3937279999999999,3
2024-06-14 12:58:29.541,-12.495000000000001,-135.695,-2.66,0.033672,0.050019999999999995,-1.413004,3
2024-06-14 12:58:29.546,-11.27,-145.6,-3.29,0.041724,0.05660799999999999,-1.413736,3
2024-06-14 12:58:29.551,-10.15,-155.89,-4.34,0.039772,0.056608,-1.4410640000000001,3
2024-06-14 12:58:29.555,-9.905000000000001,-165.79500000000002,-5.11,0.038552,0.028059999999999998,-1.49816,3
2024-06-14 12:58:29.560,-9.135,-176.61,-5.285,0.038796,0.031476,-1.537444,3
2024-06-14 12:58:29.565,-8.05,-189.35,-5.67,0.021471999999999998,0.048068,-1.6011279999999999,3
2024-06-14 12:58:29.570,-7.140000000000001,-202.51,-6.6850000000000005,0.010003999999999999,0.08052000000000001,-1.6504159999999999,3
2024-06-14 12:58:29.575,-4.97,-216.47500000000002,-8.295,0.00488,0.107604,-1.65188,3
2024-06-14 12:58:29.580,-1.645,-231.35000000000002,-9.975000000000001,0.010003999999999999,0.13078399999999998,-1.667984,3
2024-06-14 12:58:29.584,-0.10499999999999998,-251.89499999999998,-12.39,0.01098,0.142984,-1.557208,3
2024-06-14 12:58:29.589,5.635,-262.22,-12.74,0.029524,0.154696,-1.856108,3
2024-06-14 12:58:29.594,12.075,-274.08500000000004,-15.61,0.00122,0.14469200000000002,-1.764364,3
2024-06-14 12:58:29.599,13.719999999999999,-292.03999999999996,-17.535,-0.009516,0.11785200000000001,-1.813896,3
2024-06-14 12:58:29.604,18.235,-307.09,-18.235,-0.018056000000000003,0.127856,-1.9649320000000001,3
2024-06-14 12:58:29.609,20.439999999999998,-325.22,-19.880000000000003,-0.035624,0.112972,-1.9734720000000001,3
2024-06-14 12:58:29.613,19.95,-346.605,-20.615,-0.014639999999999999,0.11419199999999999,-2.035692,3
2024-06-14 12:58:29.618,17.814999999999998,-366.87,-20.86,0.010248,0.126392,-2.3509400000000005,3
2024-06-14 12:58:29.623,11.34,-386.995,-22.049999999999997,0.02928,0.19690800000000003,-2.54614,3
2024-06-14 12:58:29.628,3.325,-409.85,-23.555,0.020495999999999997,0.31646799999999997,-2.7328,3
2024-06-14 12:58:29.633,-6.65,-427.875,-27.09,0.11102000000000001,0.459696,-3.0070559999999995,3
2024-06-14 12:58:29.637,-15.294999999999998,-446.845,-31.43,0.145424,0.514108,-3.0765959999999994,3
2024-06-14 12:58:29.642,-37.135,-460.88,-37.485,0.25498,0.480436,-3.022672,3
2024-06-14 12:58:29.647,-65.135,-473.76,-40.459999999999994,0.24253599999999997,0.413336,-2.99754,3
2024-06-14 12:58:29.652,-101.605,-478.87,-43.54,0.33306,0.457012,-3.0265760000000004,3
2024-06-14 12:58:29.657,-133.945,-484.365,-46.41,0.260836,0.490684,-3.0317,3
2024-06-14 12:58:29.662,-166.985,-479.78,-53.375,0.25302800000000003,0.41723999999999994,-3.0273079999999997,3
2024-06-14 12:58:29.666,-191.8,-465.04499999999996,-67.58500000000001,0.24497599999999997,0.32256799999999997,-3.245932,3
2024-06-14 12:58:29.671,-189.315,-452.2,-76.78999999999999,0.31134399999999995,0.019032,-3.357928,3
2024-06-14 12:58:29.676,-181.37,-444.28999999999996,-82.775,0.054656,-0.132736,-3.39404,3
2024-06-14 12:58:29.681,-166.53,-437.36,-87.85,-0.27938,-0.10931199999999999,-3.252032,3
2024-06-14 12:58:29.686,-151.375,-423.36,-97.78999999999999,-0.84302,-0.08174000000000001,-3.201524,3
2024-06-14 12:58:29.690,-138.915,-413.17499999999995,-108.955,-1.3000319999999999,0.062464000000000006,-2.82918,3
2024-06-14 12:58:29.695,-128.625,-400.71500000000003,-124.88,-1.599176,-0.060756,-2.560048,4
2024-06-14 12:58:29.700,-110.18,-399.07000000000005,-138.88,-1.743868,0.05001999999999998,-2.162084,4
2024-06-14 12:58:29.705,-81.06,-411.775,-135.58999999999997,-1.918084,0.051483999999999995,-1.522072,4
2024-06-14 12:58:29.710,-43.47,-440.055,-140.595,-1.85074,-0.021228,-0.9225639999999999,4
2024-06-14 12:58:29.715,11.095,-509.495,-139.405,-1.315648,0.18885599999999997,-0.22936,4
2024-06-14 12:58:29.719,64.645,-560.8399999999999,-132.72,-0.9745360000000001,0.334036,-0.782996,4
2024-06-14 12:58:29.724,99.64500000000001,-523.11,-126.945,-0.721508,0.29523999999999995,-1.024068,4
2024-06-14 12:58:29.729,122.95500000000001,-471.69500000000005,-119.97999999999999,-0.7705519999999999,0.18641599999999997,-1.362496,4
2024-06-14 12:58:29.734,135.51999999999998,-421.155,-105.77000000000001,-0.929152,0.12053599999999999,-1.557208,4
2024-06-14 12:58:29.739,132.54500000000002,-339.28999999999996,-77.63,-1.0043039999999999,0.008539999999999999,-1.032852,4
2024-06-14 12:58:29.743,122.00999999999999,-225.715,-36.82,-1.320772,0.039528,-0.394792,4
2024-06-14 12:58:29.748,114.13499999999999,-97.93,5.705,-1.886364,0.17324,-0.05124,4
2024-06-14 12:58:29.753,102.75999999999999,29.330000000000002,38.745000000000005,-2.184776,0.18544,0.05660799999999999,4
2024-06-14 12:58:29.756,86.66,141.855,64.75,-2.0976679999999996,0.13639600000000002,-0.056364,4
2024-06-14 12:58:29.761,74.55000000000001,232.89,89.6,-1.860256,0.16104000000000002,-0.342576,4
2024-06-14 12:58:29.766,71.47,300.82500000000005,111.44,-1.62382,0.17397200000000002,-0.6414759999999999,4
2024-06-14 12:58:29.770,72.94,349.3,126.10499999999999,-1.406416,0.205204,-0.8386279999999999,4
2024-06-14 12:58:29.775,76.86,382.16499999999996,132.405,-1.2261,0.24839199999999997,-0.9481839999999999,4
2024-06-14 12:58:29.780,80.185,402.955,132.09,-1.100196,0.32866799999999996,-1.00894,4
2024-06-14 12:58:29.785,85.645,415.17,127.015,-0.9459879999999999,0.45896400000000004,-1.02358,4
2024-06-14 12:58:29.790,90.965,420.84000000000003,117.14500000000001,-0.8410679999999999,0.504104,-1.0555439999999998,4
2024-06-14 12:58:29.795,88.58500000000001,421.575,103.215,-0.777872,0.495564,-1.1031239999999998,4
2024-06-14 12:58:29.799,78.57499999999999,419.05499999999995,87.08000000000001,-0.736636,0.479216,-1.100196,4
2024-06-14 12:58:29.804,68.32,413.525,71.08500000000001,-0.701256,0.481656,-1.016016,4
2024-06-14 12:58:29.809,61.6,405.58,55.79,-0.667828,0.489952,-0.904264,4
2024-06-14 12:58:29.814,56.245000000000005,396.34000000000003,40.565,-0.6365959999999999,0.487024,-0.811056,4
2024-06-14 12:58:29.819,49.769999999999996,386.08500000000004,24.185000000000002,-0.607072,0.5058119999999999,-0.7686,4
2024-06-14 12:58:29.824,40.215,375.13,6.824999999999999,-0.567056,0.5253319999999999,-0.76982,4
2024-06-14 12:58:29.828,27.195,364.49,-11.094999999999999,-0.497272,0.5180119999999999,-0.794708,4
2024-06-14 12:58:29.833,11.795,355.46000000000004,-28.175000000000004,-0.413092,0.487756,-0.8137399999999999,4
2024-06-14 12:58:29.838,-4.0600000000000005,348.25,-43.54,-0.340868,0.432856,-0.8352120000000001,4
2024-06-14 12:58:29.843,-19.18,343.28,-56.595,-0.29743600000000003,0.36185199999999995,-0.839604,4
2024-06-14 12:58:29.848,-32.445,340.76,-67.19999999999999,-0.28889600000000004,0.283772,-0.8630279999999999,4
2024-06-14 12:58:29.853,-42.805,339.92,-75.285,-0.28792,0.20788800000000002,-0.887672,4
2024-06-14 12:58:29.857,-49.875,341.32,-80.92,-0.29524,0.135664,-0.918172,4
2024-06-14 12:58:29.862,-53.69,344.75,-84.49000000000001,-0.29499600000000004,0.07002799999999999,-0.9640439999999999,4
2024-06-14 12:58:29.867,-54.565,349.65,-86.31,-0.29060400000000003,0.022691999999999997,-1.0165039999999999,4
2024-06-14 12:58:29.872,-52.92,355.39,-86.59,-0.28548,-0.025375999999999996,-1.0801880000000001,4
2024-06-14 12:58:29.877,-49.875,361.795,-85.645,-0.278404,-0.059292,-1.155828,4
2024-06-14 12:58:29.882,-46.165,368.165,-83.72,-0.27815999999999996,-0.086132,-1.2297600000000002,4
2024-06-14 12:58:29.887,-42.629999999999995,374.46500000000003,-80.99000000000001,-0.270352,-0.098332,-1.2914919999999999,4
2024-06-14 12:58:29.891,-39.83,380.415,-77.595,-0.2623,-0.102968,-1.352004,4
2024-06-14 12:58:29.896,-38.15,386.435,-73.815,-0.25180800000000003,-0.098088,-1.405684,4
2024-06-14 12:58:29.901,-37.834999999999994,391.65,-69.965,-0.23765599999999998,-0.094428,-1.471808,4
2024-06-14 12:58:29.906,-39.095,396.235,-66.185,-0.22350399999999998,-0.08686400000000001,-1.538908,4
2024-06-14 12:58:29.911,-42.28,400.225,-62.44,-0.204472,-0.08296,-1.6121079999999999,4
2024-06-14 12:58:29.916,-47.635000000000005,403.095,-58.695,-0.18788,-0.078324,-1.6921399999999998,4
2024-06-14 12:58:29.920,-54.215,405.58,-54.67,-0.165676,-0.080764,-1.77022,4
2024-06-14 12:58:29.925,-61.775000000000006,407.435,-50.54,-0.15372,-0.090524,-1.850984,4
2024-06-14 12:58:29.930,-69.405,408.59000000000003,-45.745000000000005,-0.13078399999999998,-0.100528,-1.94102,4
2024-06-14 12:58:29.935,-76.72,409.115,-40.635000000000005,-0.113704,-0.11638799999999999,-2.042036,4
2024-06-14 12:58:29.940,-82.845,408.83500000000004,-35.245000000000005,-0.09394,-0.13200399999999998,-2.1554960000000003,4
2024-06-14 12:58:29.945,-87.57,407.82000000000005,-29.119999999999997,-0.0793,-0.1464,-2.281156,4
2024-06-14 12:58:29.949,-90.09,406.455,-22.645,-0.04636,-0.16006399999999998,-2.412916,4
2024-06-14 12:58:29.954,-90.37,404.635,-15.715,-0.011956,-0.170068,-2.5500439999999998,4
2024-06-14 12:58:29.959,-88.13,402.5,-8.19,0.029036,-0.17202,-2.706692,4
2024-06-14 12:58:29.964,-83.58,399.735,0.28,0.083936,-0.17348400000000003,-2.867488,4
2024-06-14 12:58:29.969,-76.895,396.40999999999997,10.08,0.16177199999999997,-0.167872,-3.0282839999999998,4
2024-06-14 12:58:29.974,-68.81,393.435,21.244999999999997,0.271816,-0.156404,-3.173464,4
2024-06-14 12:58:29.978,-60.62,391.895,32.865,0.419192,-0.12224399999999999,-3.2749680000000003,4
2024-06-14 12:58:29.983,-53.935,391.44,43.959999999999994,0.5977999999999999,-0.086864,-3.327916,4
2024-06-14 12:58:29.988,-49.7,392.03499999999997,53.095,0.777872,-0.032940000000000004,-3.366956,4
2024-06-14 12:58:29.993,-49.07,392.90999999999997,58.765,0.950868,0.012932,-3.4020919999999997,4
2024-06-14 12:58:29.998,-51.03,393.47,61.81,1.1482640000000002,0.053924,-3.406972,4
2024-06-14 12:58:30.003,-54.31999999999999,392.21000000000004,63.105000000000004,1.3766479999999999,0.089792,-3.39648,4
2024-06-14 12:58:30.007,-56.91,388.95500000000004,63.665000000000006,1.632116,0.11224,-3.3728119999999997,4
2024-06-14 12:58:30.012,-57.575,383.565,63.525000000000006,1.896612,0.142008,-3.317424,4
2024-06-14 12:58:30.017,-55.475,374.815,65.38,2.1728199999999998,0.156648,-3.243492,4
2024-06-14 12:58:30.022,-51.485,362.42499999999995,70.35,2.439512,0.18470799999999998,-3.1280799999999997,4
2024-06-14 12:58:30.027,-44.625,347.025,76.33500000000001,2.73768,0.173972,-2.96704,4
2024-06-14 12:58:30.032,-36.715,327.66999999999996,84.525,2.991196,0.23326400000000003,-2.719868,4
2024-06-14 12:58:30.036,-28.84,305.58500000000004,93.13499999999999,3.3323080000000003,0.084668,-2.4663519999999997,4
2024-06-14 12:58:30.041,-22.575,282.765,87.815,3.52458,0.14493599999999998,-2.101084,4
2024-06-14 12:58:30.046,-20.405,256.48,86.52,3.7549159999999997,0.2013,-1.720444,4
2024-06-14 12:58:30.051,-23.205,231.385,82.81,4.15044,0.227164,-1.2968600000000001,4
2024-06-14 12:58:30.056,-30.45,208.28500000000003,74.47999999999999,4.714568,0.267424,-0.841556,4
2024-06-14 12:58:30.061,-49.7,183.925,55.79,5.251367999999999,0.304024,-0.593164,4
2024-06-14 12:58:30.065,-85.96,155.26,29.049999999999997,5.630056,0.318176,-0.645624,4
2024-06-14 12:58:30.070,-125.44,117.74000000000001,-1.0849999999999995,5.718871999999999,0.203496,-0.902312,4
2024-06-14 12:58:30.075,-149.24,65.66,-28.07,5.452424000000001,-0.017079999999999998,-1.1519240000000002,4
2024-06-14 12:58:30.080,-147.455,1.5399999999999991,-47.285,4.992484,-0.266692,-1.26514,4
2024-06-14 12:58:30.085,-120.11999999999999,-66.465,-57.54,4.443239999999999,-0.47165199999999996,-1.232444,4
2024-06-14 12:58:30.090,-75.145,-130.26999999999998,-58.975,3.897656,-0.610976,-1.158268,4
2024-06-14 12:58:30.095,-23.799999999999997,-183.61,-53.375,3.117832,-0.696132,-1.07116,4
