time,gyroscope_x,gyroscope_y,gyroscope_z,accelerometer_x,accelerometer_y,accelerometer_z,phase
2024-06-14 09:16:27.317,-252.42000000000002,-475.72,21.7,2.339228,0.20032400000000003,-5.484388,1
2024-06-14 09:16:27.321,-263.55,-252.91000000000003,14.035,-3.1378399999999997,-0.9452559999999999,1.462292,1
2024-06-14 09:16:27.326,-288.78499999999997,-313.04,18.27,-0.660264,-0.6478200000000001,-0.8544880000000002,1
2024-06-14 09:16:27.331,-315.77,-306.495,7.140000000000001,-0.685884,-0.158356,-1.5591599999999999,1
2024-06-14 09:16:27.336,-302.08500000000004,-299.67,-4.375,0.229604,-0.159576,-1.2627000000000002,1
2024-06-14 09:16:27.341,-271.66999999999996,-311.815,-26.215,0.5489999999999999,-0.018788,-1.6225999999999998,1
2024-06-14 09:16:27.346,-209.195,-304.885,-57.365,0.351604,0.056364000000000004,-1.519388,1
2024-06-14 09:16:27.350,-141.4,-303.625,-87.78,0.092232,0.023668,-1.652368,1
2024-06-14 09:16:27.355,-77.56,-294.945,-109.2,-0.02074,0.075884,-1.678232,1
2024-06-14 09:16:27.360,-59.92,-289.485,-113.85499999999999,0.053924,0.20422800000000002,-1.8361,1
2024-06-14 09:16:27.365,-69.755,-276.5,-98.28,0.118584,0.546804,-1.874652,1
2024-06-14 09:16:27.370,-79.765,-256.97,-69.86,0.05856,0.824964,-1.9036879999999998,1
2024-06-14 09:16:27.375,-80.255,-235.025,-39.445,0.027328,0.8723000000000001,-1.8539119999999998,1
2024-06-14 09:16:27.380,-69.33500000000001,-216.16,-9.555,0.045384,0.723948,-1.8419560000000001,1
2024-06-14 09:16:27.384,-62.055,-194.35500000000002,14.7,0.06368399999999999,0.414556,-1.8636719999999998,1
2024-06-14 09:16:27.389,-47.25,-169.995,25.48,0.129076,0.046360000000000005,-1.764364,1
2024-06-14 09:16:27.394,-29.75,-135.065,15.540000000000001,0.203496,-0.14127599999999998,-1.659932,1
2024-06-14 09:16:27.399,-17.29,-88.86500000000001,-4.515,0.252784,-0.186172,-1.660664,1
2024-06-14 09:16:27.404,-13.055,-57.644999999999996,-16.345,0.231068,-0.080276,-1.42862,1
2024-06-14 09:16:27.409,-13.37,-43.19,-17.535,0.178364,0.03294,-1.279048,1
2024-06-14 09:16:27.413,-12.18,-34.545,-11.83,0.03416,0.142008,-1.136308,1
2024-06-14 09:16:27.418,-8.575,-26.810000000000002,-3.71,0.0021959999999999966,0.11882799999999999,-1.02602,1
2024-06-14 09:16:27.423,-7.244999999999999,-22.4,-0.385,-0.025376000000000003,0.026352,-0.9999119999999999,1
2024-06-14 09:16:27.428,-7.77,-19.564999999999998,-3.185,-0.079544,-0.045384,-1.0248,1
2024-06-14 09:16:27.433,-8.89,-20.09,-4.795,-0.069052,-0.00488,-1.05896,1
2024-06-14 09:16:27.438,-9.030000000000001,-22.505,-4.095,-0.006588000000000001,0.061976,-1.0750639999999998,2
2024-06-14 09:16:27.443,-7.245,-22.75,-2.3449999999999998,0.022204,0.09028,-1.0814080000000001,2
2024-06-14 09:16:27.447,-5.04,-22.365000000000002,-2.485,-0.027084,0.031964,-1.0735999999999999,2
2024-06-14 09:16:27.452,-5.845,-23.73,-3.71,-0.077592,-0.048556,-1.066524,2
2024-06-14 09:16:27.457,-8.82,-24.885,-3.255,-0.080276,-0.034892,-1.055056,2
2024-06-14 09:16:27.462,-9.975000000000001,-26.634999999999998,-1.855,-0.076616,0.020739999999999998,-1.043588,2
2024-06-14 09:16:27.467,-9.45,-27.09,-0.91,-0.058072,0.04148,-1.0482239999999998,2
2024-06-14 09:16:27.472,-7.77,-26.634999999999998,-0.84,-0.04636,0.040504,-1.04676,2
2024-06-14 09:16:27.476,-5.949999999999999,-26.424999999999997,-1.26,-0.051239999999999994,0.048068,-1.05286,2
2024-06-14 09:16:27.481,-4.305,-25.689999999999998,-1.435,-0.057583999999999996,0.040260000000000004,-1.04676,2
2024-06-14 09:16:27.486,-3.08,-24.604999999999997,-1.33,-0.06661199999999999,0.031476,-1.0352919999999999,2
2024-06-14 09:16:27.491,-2.415,-23.905,-1.33,-0.061488,0.01952,-1.0399279999999997,2
2024-06-14 09:16:27.496,-2.45,-24.185000000000002,-1.155,-0.060267999999999995,0.009516,-1.039196,2
2024-06-14 09:16:27.501,-2.5549999999999997,-25.095,-0.8400000000000001,-0.061,0.004148,-1.042368,2
2024-06-14 09:16:27.506,-3.08,-25.97,-0.42000000000000004,-0.061731999999999995,0.008296,-1.046028,2
2024-06-14 09:16:27.510,-3.36,-26.705,-0.245,-0.063196,0.011956,-1.04798,2
2024-06-14 09:16:27.515,-3.045,-27.44,-0.14,-0.06709999999999999,0.022448000000000003,-1.0396839999999998,2
2024-06-14 09:16:27.520,-2.87,-27.509999999999998,-0.10500000000000001,-0.06344,0.025863999999999998,-1.0365119999999999,2
2024-06-14 09:16:27.528,-2.2750000000000004,-28.105,-0.10500000000000001,-0.050752,0.024155999999999997,-1.03822,2
2024-06-14 09:16:27.533,-1.855,-27.755,0.0,-0.05246,0.019764,-1.03334,2
2024-06-14 09:16:27.538,-1.89,-27.125,0.07,-0.041724,0.018788,-1.0248,2
2024-06-14 09:16:27.542,-1.47,-34.825,0.245,-0.053192,0.020739999999999998,-1.0250439999999998,2
2024-06-14 09:16:27.547,-1.68,-27.825,-0.14,-0.035379999999999995,0.024644,-1.0262639999999998,2
2024-06-14 09:16:27.552,-1.7850000000000001,-27.475,-0.13999999999999999,-0.022935999999999998,0.022692,-1.0055239999999999,2
2024-06-14 09:16:27.557,-1.8199999999999998,-26.425,-0.175,-0.05734,0.019032,-1.02114,2
2024-06-14 09:16:27.562,-0.385,-28.105000000000004,-0.35000000000000003,-0.0061,0.014152000000000001,-1.00284,2
2024-06-14 09:16:27.566,-1.7850000000000001,-24.01,-0.07,-0.049776,0.017812,-1.0238239999999998,2
2024-06-14 09:16:27.571,-1.855,-25.515,0.10500000000000004,-0.057096,0.015128,-1.03212,2
2024-06-14 09:16:27.576,-1.5750000000000002,-23.765,0.175,-0.036112,0.011712,-1.02236,2
2024-06-14 09:16:27.581,-3.1500000000000004,-22.82,0.525,-0.015127999999999999,0.007076,-1.0152839999999999,2
2024-06-14 09:16:27.586,-2.765,-22.75,1.015,-0.007808,0.011224,-1.0060120000000001,2
2024-06-14 09:16:27.591,-3.08,-22.715,1.365,-0.01098,0.007808,-1.003572,2
2024-06-14 09:16:27.595,-3.255,-23.485,1.6099999999999999,-0.02684,0.008296,-1.01748,2
2024-06-14 09:16:27.600,-2.975,-26.04,1.6099999999999999,-0.0068319999999999995,0.0075639999999999995,-1.011136,2
2024-06-14 09:16:27.605,-1.4,-25.97,2.065,-0.024399999999999998,0.006344000000000001,-1.0079639999999999,2
2024-06-14 09:16:27.610,-1.015,-23.59,2.38,-0.001464,0.017812,-1.0055239999999999,2
2024-06-14 09:16:27.615,-1.575,-23.240000000000002,2.625,-0.011467999999999999,0.016348,-1.0140639999999999,2
2024-06-14 09:16:27.619,-1.68,-22.119999999999997,2.66,-0.010492000000000001,0.025863999999999998,-1.0108920000000001,2
2024-06-14 09:16:27.624,-1.505,-21.42,2.415,-0.005856,0.031476,-1.006744,2
2024-06-14 09:16:27.629,-1.575,-20.615000000000002,2.205,0.0026839999999999998,0.034892,-1.009672,2
2024-06-14 09:16:27.634,-1.19,-19.740000000000002,2.03,-0.0061,0.024399999999999998,-1.0106480000000002,2
2024-06-14 09:16:27.639,-0.8400000000000001,-19.6,2.24,-0.0046359999999999995,0.025132,-1.0130879999999998,2
2024-06-14 09:16:27.644,-0.9099999999999999,-18.9,2.31,0.0019519999999999995,0.028304,-1.007476,2
2024-06-14 09:16:27.648,-0.595,-19.215,2.31,0.0036599999999999996,0.023668,-1.011136,2
2024-06-14 09:16:27.653,-0.35,-18.689999999999998,2.4850000000000003,0.004392,0.025132,-1.011868,2
2024-06-14 09:16:27.658,-0.315,-18.619999999999997,2.625,0.0026839999999999998,0.021228,-1.0187,2
2024-06-14 09:16:27.663,0.0,-19.25,2.94,-0.002196,0.021471999999999998,-1.016748,3
2024-06-14 09:16:27.668,0.35,-19.494999999999997,3.115,0.010003999999999999,0.02196,-1.0201639999999998,3
2024-06-14 09:16:27.672,0.49,-20.965,3.325,0.0068319999999999995,0.027084,-1.0248,3
2024-06-14 09:16:27.677,0.84,-21.91,3.465,0.0075639999999999995,0.02074,-1.02724,3
2024-06-14 09:16:27.682,-2.1350000000000002,-32.865,3.71,0.022935999999999998,0.021471999999999998,-1.048956,3
2024-06-14 09:16:27.687,-0.35,-22.89,3.745,0.010492000000000001,0.027572,-1.024312,3
2024-06-14 09:16:27.692,-0.10500000000000004,-22.68,3.675,0.012931999999999999,0.019032,-1.016016,3
2024-06-14 09:16:27.697,-2.065,-23.345,3.71,0.016592,0.02318,-1.0262639999999998,3
2024-06-14 09:16:27.701,-1.575,-23.52,3.85,0.020252,0.024888,-1.025776,3
2024-06-14 09:16:27.706,-1.0150000000000001,-24.045,3.78,0.015616,0.032452,-1.0433439999999998,3
2024-06-14 09:16:27.711,-0.49,-25.27,3.675,0.029768,0.035136,-1.04188,3
2024-06-14 09:16:27.716,0.10499999999999998,-26.985,4.2,0.018299999999999997,0.021716,-1.037244,3
2024-06-14 09:16:27.721,6.02,-25.130000000000003,4.34,0.026352,0.025376,-1.0567639999999998,3
2024-06-14 09:16:27.726,7.77,-26.810000000000002,4.13,0.027084,0.024155999999999997,-1.06994,3
2024-06-14 09:16:27.730,8.504999999999999,-29.82,3.71,0.019032,0.020496,-1.06872,3
2024-06-14 09:16:27.735,8.89,-32.34,3.675,0.024156,0.021471999999999998,-1.077016,3
2024-06-14 09:16:27.740,9.8,-35.07,3.71,0.028791999999999998,0.027572,-1.078968,3
2024-06-14 09:16:27.745,10.36,-32.235,3.745,0.030988,0.027328000000000005,-1.086044,3
2024-06-14 09:16:27.750,12.285,-33.39,3.885,0.030011999999999997,0.035868,-1.098,3
2024-06-14 09:16:27.754,14.315,-35.94499999999999,3.8499999999999996,0.025863999999999998,0.035379999999999995,-1.103856,3
2024-06-14 09:16:27.759,16.240000000000002,-37.870000000000005,3.7800000000000002,0.03196399999999999,0.038307999999999995,-1.108736,3
2024-06-14 09:16:27.764,17.465,-40.425,3.465,0.038064,0.036356,-1.1141040000000002,3
2024-06-14 09:16:27.769,19.88,-42.629999999999995,3.3600000000000003,0.044408,0.035379999999999995,-1.1299639999999997,3
2024-06-14 09:16:27.774,22.75,-45.15,3.15,0.041235999999999995,0.043432000000000005,-1.120448,3
2024-06-14 09:16:27.779,25.06,-47.739999999999995,2.59,0.03782,0.056852,-1.156072,3
2024-06-14 09:16:27.783,27.825,-52.57,1.75,0.041236,0.057583999999999996,-1.181204,3
2024-06-14 09:16:27.788,32.095,-56.945,1.33,0.05953599999999999,0.050019999999999995,-1.2007240000000001,3
2024-06-14 09:16:27.793,33.6,-62.475,1.05,0.029524,0.049532,-1.222928,3
2024-06-14 09:16:27.798,33.879999999999995,-67.375,0.35,0.044896000000000005,0.026351999999999997,-1.2507439999999999,3
2024-06-14 09:16:27.803,37.345,-74.69,0.665,0.051972000000000004,-0.013908,-1.2756319999999999,3
2024-06-14 09:16:27.807,39.655,-82.03999999999999,1.0150000000000001,0.047335999999999996,0.012688000000000001,-1.2939319999999999,3
2024-06-14 09:16:27.812,40.075,-89.845,0.525,0.04148,0.02928,-1.336876,3
2024-06-14 09:16:27.817,40.95,-98.63,0.35,0.051484,-0.010736,-1.3607879999999999,3
2024-06-14 09:16:27.822,41.894999999999996,-105.945,0.525,0.060511999999999996,0.010492000000000001,-1.342488,3
2024-06-14 09:16:27.827,41.37,-112.38499999999999,0.245,0.069052,-0.00024399999999999997,-1.338584,3
2024-06-14 09:16:27.832,42.489999999999995,-120.08500000000001,0.35,0.076372,-0.008784,-1.38348,3
2024-06-14 09:16:27.836,41.685,-128.51999999999998,0.0,0.07246799999999999,0.025863999999999998,-1.424472,3
2024-06-14 09:16:27.841,40.879999999999995,-137.865,-0.06999999999999999,0.072468,-0.056608,-1.433744,3
2024-06-14 09:16:27.846,41.44,-146.96499999999997,1.47,0.062464000000000006,-0.07808000000000001,-1.4454559999999999,3
2024-06-14 09:16:27.851,37.87,-157.07999999999998,2.485,0.05538799999999999,-0.074908,-1.495232,3
2024-06-14 09:16:27.856,33.635,-169.19,4.13,0.06344,-0.142252,-1.5306119999999999,3
2024-06-14 09:16:27.860,31.045,-179.41000000000003,6.965,0.065148,-0.163236,-1.549156,3
2024-06-14 09:16:27.865,25.655,-191.31,9.275,0.06002400000000001,-0.15372000000000002,-1.541592,3
2024-06-14 09:16:27.870,20.79,-202.615,11.864999999999998,0.048799999999999996,-0.16616399999999998,-1.555012,3
2024-06-14 09:16:27.875,15.05,-214.725,14.175,0.070272,-0.13200399999999998,-1.618208,3
2024-06-14 09:16:27.880,12.075,-228.515,15.645,0.079788,-0.09272,-1.762656,3
2024-06-14 09:16:27.885,10.605,-243.81,16.485,0.078812,-0.030011999999999997,-1.850984,3
2024-06-14 09:16:27.889,4.515,-260.15500000000003,16.205,0.071492,-0.09759999999999999,-1.9317479999999998,3
2024-06-14 09:16:27.894,-6.16,-277.095,17.78,0.033428,-0.284504,-1.925892,3
2024-06-14 09:16:27.899,-14.945,-292.565,22.89,0.007807999999999999,-0.455792,-1.9412639999999999,3
2024-06-14 09:16:27.904,-23.835,-310.31,29.68,0.01098,-0.452376,-2.0108040000000003,3
2024-06-14 09:16:27.909,-30.485,-328.265,34.894999999999996,0.032208,-0.432612,-2.101572,3
2024-06-14 09:16:27.913,-32.795,-347.235,39.725,0.017568,-0.40113599999999994,-2.1959999999999997,3
2024-06-14 09:16:27.918,-31.674999999999997,-365.925,42.91,-0.005124,-0.44530000000000003,-2.212104,3
2024-06-14 09:16:27.923,-22.575,-383.03999999999996,48.230000000000004,0.035624,-0.457744,-2.297992,3
2024-06-14 09:16:27.928,-20.02,-401.625,52.885,0.05612,-0.313296,-2.3406919999999998,3
2024-06-14 09:16:27.933,-21.35,-414.82000000000005,53.235,0.17324,-0.33062,-2.617388,3
2024-06-14 09:16:27.938,-14.945,-427.14,54.6,0.30280399999999996,-0.451644,-2.825032,3
2024-06-14 09:16:27.942,-0.6650000000000003,-433.96500000000003,57.785,0.33306,-0.5124,-3.005104,3
2024-06-14 09:16:27.947,13.16,-431.025,62.125,0.250832,-0.43432,-3.075132,3
2024-06-14 09:16:27.952,24.009999999999998,-432.74,66.5,0.107848,-0.24375599999999997,-3.2810680000000003,3
2024-06-14 09:16:27.957,18.935,-434.21000000000004,68.81,-0.170068,-0.196664,-3.4953,3
2024-06-14 09:16:27.962,-9.8,-423.85,71.12,-0.211792,-0.142008,-3.5941199999999998,3
2024-06-14 09:16:27.966,-47.495000000000005,-420.315,71.61,-0.25302800000000003,-0.277428,-3.605588,4
2024-06-14 09:16:27.971,-75.845,-423.325,71.96000000000001,-0.655872,-0.570228,-3.459188,4
2024-06-14 09:16:27.976,-85.155,-420.175,75.6,-1.185352,-0.818864,-3.214944,4
2024-06-14 09:16:27.981,-83.685,-414.855,81.9,-1.574532,-0.94184,-2.836256,4
2024-06-14 09:16:27.986,-79.03,-414.12,90.30000000000001,-1.802672,-0.9928359999999999,-2.42658,4
2024-06-14 09:16:27.991,-77.14,-430.15,99.715,-1.94224,-0.91744,-1.8978320000000002,4
2024-06-14 09:16:27.995,-86.17,-457.52,106.33,-1.867576,-0.7807999999999999,-1.392752,4
2024-06-14 09:16:28.000,-102.375,-523.425,106.68,-0.951356,-0.753228,-0.455792,4
2024-06-14 09:16:28.005,-112.84,-530.6,98.0,-0.87474,-0.794708,-0.811056,4
2024-06-14 09:16:28.010,-104.58,-432.04,88.75999999999999,-1.372012,-0.6512359999999999,-1.4544839999999999,4
2024-06-14 09:16:28.015,-69.51,-345.905,76.3,-1.462292,-0.6307400000000001,-1.5010879999999998,4
2024-06-14 09:16:28.019,-37.065,-233.135,59.394999999999996,-1.586976,-0.52094,-1.096292,4
2024-06-14 09:16:28.024,-16.275,-98.805,37.379999999999995,-1.633092,-0.308172,-0.436272,4
2024-06-14 09:16:28.029,-6.195,27.790000000000003,11.445,-1.645048,-0.211304,-0.392108,4
2024-06-14 09:16:28.034,-2.7649999999999997,122.395,-14.559999999999999,-1.4742479999999998,-0.188124,-0.8552200000000001,4
2024-06-14 09:16:28.039,-5.39,177.20499999999998,-38.465,-1.240252,-0.169824,-1.069696,4
2024-06-14 09:16:28.044,-13.825,198.1,-58.345,-1.159976,-0.21789199999999997,-1.073356,4
2024-06-14 09:16:28.048,-26.634999999999998,197.26,-72.94,-1.109224,-0.26474,-0.9821,4
2024-06-14 09:16:28.053,-37.1,185.29000000000002,-82.63499999999999,-0.992104,-0.290848,-0.821304,4
2024-06-14 09:16:28.058,-40.565,171.70999999999998,-88.935,-0.8669319999999999,-0.312808,-0.6678280000000001,4
2024-06-14 09:16:28.063,-36.120000000000005,161.7,-93.135,-0.772016,-0.339648,-0.55266,4
2024-06-14 09:16:28.068,-24.885,155.4,-95.725,-0.704672,-0.35746,-0.48287599999999997,4
2024-06-14 09:16:28.071,-8.68,153.685,-96.845,-0.6648999999999999,-0.36648800000000004,-0.43944399999999995,4
2024-06-14 09:16:28.075,9.345,156.345,-96.63499999999999,-0.6539200000000001,-0.35550800000000005,-0.39405999999999997,4
2024-06-14 09:16:28.080,26.354999999999997,164.95499999999998,-95.13,-0.675392,-0.31988399999999995,-0.364292,4
2024-06-14 09:16:28.085,40.53,178.115,-92.89,-0.6932039999999999,-0.279136,-0.36722,4
2024-06-14 09:16:28.090,50.26,194.88,-89.565,-0.704672,-0.22887200000000002,-0.396012,4
2024-06-14 09:16:28.095,54.879999999999995,212.59,-85.61,-0.706868,-0.171288,-0.44090799999999997,4
2024-06-14 09:16:28.100,54.635,231.76999999999998,-81.34,-0.700768,-0.12517199999999998,-0.495564,4
2024-06-14 09:16:28.104,50.19,250.075,-76.93,-0.6883239999999999,-0.079544,-0.554856,4
2024-06-14 09:16:28.109,42.28,268.205,-71.96000000000001,-0.677344,-0.052704,-0.6195160000000001,4
2024-06-14 09:16:28.114,31.85,284.235,-66.88499999999999,-0.6548959999999999,-0.038307999999999995,-0.681736,4
2024-06-14 09:16:28.119,20.16,298.725,-61.25,-0.619272,-0.03904,-0.731024,4
2024-06-14 09:16:28.124,9.625,312.83000000000004,-55.405,-0.582916,-0.051972,-0.768356,4
2024-06-14 09:16:28.129,1.75,324.975,-49.07,-0.5453399999999999,-0.08027600000000001,-0.7966599999999999,4
2024-06-14 09:16:28.133,-1.3650000000000002,337.225,-42.105000000000004,-0.5033719999999999,-0.110044,-0.833016,4
2024-06-14 09:16:28.138,-0.21000000000000002,347.58500000000004,-34.58,-0.46677199999999996,-0.131272,-0.8703479999999999,4
2024-06-14 09:16:28.143,4.025,356.33500000000004,-26.775,-0.436516,-0.152256,-0.903532,4
2024-06-14 09:16:28.148,10.22,364.49,-19.075,-0.41138399999999997,-0.156892,-0.9411080000000001,4
2024-06-14 09:16:28.153,17.395,370.755,-11.515,-0.389912,-0.149572,-0.9877119999999999,4
2024-06-14 09:16:28.158,24.15,376.635,-4.515000000000001,-0.367952,-0.13298,-1.040172,4
2024-06-14 09:16:28.162,29.82,381.46500000000003,2.065,-0.348676,-0.10491999999999999,-1.0931199999999999,4
2024-06-14 09:16:28.167,33.635,385.805,8.155,-0.3355,-0.08125199999999999,-1.1433840000000002,4
2024-06-14 09:16:28.172,35.595,389.54999999999995,13.895,-0.312564,-0.061,-1.204628,4
2024-06-14 09:16:28.177,36.12,393.29499999999996,19.46,-0.293532,-0.045871999999999996,-1.2731919999999999,4
2024-06-14 09:16:28.182,35.91,395.53499999999997,24.85,-0.26937599999999995,-0.041235999999999995,-1.34322,4
2024-06-14 09:16:28.187,36.4,398.125,30.064999999999998,-0.23863199999999998,-0.04148,-1.4198359999999999,4
2024-06-14 09:16:28.191,38.150000000000006,399.90999999999997,34.93,-0.21472,-0.044652,-1.49206,4
2024-06-14 09:16:28.196,41.58,401.45000000000005,38.78,-0.189832,-0.041235999999999995,-1.579412,4
2024-06-14 09:16:28.201,45.64,402.815,41.405,-0.166652,-0.033184,-1.6628599999999998,4
2024-06-14 09:16:28.206,49.525,404.6,42.28,-0.14884,-0.019520000000000003,-1.741184,4
2024-06-14 09:16:28.211,53.97,406.595,41.265,-0.138104,0.0,-1.82756,4
2024-06-14 09:16:28.216,58.379999999999995,407.68,38.709999999999994,-0.1281,0.015616000000000001,-1.9215,4
2024-06-14 09:16:28.220,61.81,408.625,34.475,-0.107848,0.039772,-2.0147079999999997,4
2024-06-14 09:16:28.225,64.68,409.53499999999997,28.700000000000003,-0.09516,0.047091999999999995,-2.114504,4
2024-06-14 09:16:28.230,66.64,408.59000000000003,22.015,-0.07417599999999999,0.052216,-2.2379679999999995,4
2024-06-14 09:16:28.235,68.215,406.98,14.77,-0.045384,0.046848,-2.3785119999999997,4
2024-06-14 09:16:28.240,69.65,404.11,7.279999999999999,-0.0122,0.032452,-2.5053919999999996,4
2024-06-14 09:16:28.245,71.33,400.225,-0.45499999999999996,0.010003999999999999,0.01586,-2.63764,4
2024-06-14 09:16:28.249,74.305,397.6,-7.77,0.033672,-0.001708,-2.79624,4
2024-06-14 09:16:28.254,77.38499999999999,395.04499999999996,-15.05,0.072468,-0.008296000000000001,-2.9850960000000004,4
2024-06-14 09:16:28.259,79.13499999999999,394.345,-22.994999999999997,0.150304,0.001464,-3.150528,4
2024-06-14 09:16:28.264,78.53999999999999,395.745,-32.025,0.292312,0.050752,-3.264232,4
2024-06-14 09:16:28.269,76.545,399.105,-41.405,0.47482399999999997,0.088084,-3.3520719999999997,4
2024-06-14 09:16:28.274,73.28999999999999,403.34,-49.63,0.691252,0.108092,-3.4399119999999996,4
2024-06-14 09:16:28.278,67.9,407.435,-56.175,0.937692,0.11809599999999999,-3.4709,4
2024-06-14 09:16:28.283,59.5,411.88,-61.39,1.1770559999999999,0.12736799999999998,-3.465532,4
2024-06-14 09:16:28.288,48.58,413.875,-65.83500000000001,1.4193479999999998,0.125904,-3.469924,4
2024-06-14 09:16:28.293,36.19,412.86,-70.175,1.641632,0.12834399999999999,-3.416244,4
2024-06-14 09:16:28.298,22.015,406.45500000000004,-75.88,1.823656,0.138104,-3.194692,4
2024-06-14 09:16:28.303,2.0999999999999996,397.53,-84.84,2.0354479999999997,0.076128,-2.97558,4
2024-06-14 09:16:28.308,-22.365000000000002,380.59000000000003,-94.255,2.3031159999999997,-0.106384,-2.8404039999999995,4
2024-06-14 09:16:28.312,-44.379999999999995,358.19,-98.38499999999999,2.6427639999999997,-0.321592,-2.710352,4
2024-06-14 09:16:28.317,-49.525,333.235,-94.36,3.038532,-0.581208,-2.5646839999999997,4
2024-06-14 09:16:28.322,-39.095,308.42,-81.58500000000001,3.451868,-0.776652,-2.267492,4
2024-06-14 09:16:28.327,-13.02,284.935,-60.9,3.8598359999999996,-0.931836,-1.8768479999999998,4
2024-06-14 09:16:28.332,31.36,262.5,-30.519999999999996,4.329536,-0.987468,-1.479128,4
2024-06-14 09:16:28.337,95.375,239.4,9.905,4.836568,-0.85522,-1.2139,4
2024-06-14 09:16:28.341,167.33499999999998,211.995,52.5,5.375076,-0.432856,-1.133624,4
2024-06-14 09:16:28.346,222.67000000000002,176.32999999999998,85.75,5.821352,0.15372,-1.211948,4
2024-06-14 09:16:28.351,238.91000000000003,129.43,103.6,6.07316,0.726388,-1.3766479999999999,4
2024-06-14 09:16:28.356,210.52499999999998,72.275,106.785,6.003864,1.2270759999999998,-1.498648,4
2024-06-14 09:16:28.361,145.25,8.645,98.245,5.6425,1.52866,-1.523048,4
2024-06-14 09:16:28.366,59.43,-54.915,82.35499999999999,5.10082,1.604544,-1.4586320000000002,4
2024-06-14 09:16:28.370,-25.130000000000003,-109.76,62.790000000000006,4.534008,1.472296,-1.408124,4
2024-06-14 09:16:28.375,-201.005,-173.04000000000002,35.385,2.57542,1.342244,-6.849812,4
