time,gyroscope_x,gyroscope_y,gyroscope_z,accelerometer_x,accelerometer_y,accelerometer_z,phase
2024-06-14 09:30:11.502,245.595,-219.625,85.47,-4.555479999999999,0.05441199999999999,0.410896,1
2024-06-14 09:30:11.507,231.35,-254.625,68.565,-2.64862,-0.13541999999999998,-0.9394,1
2024-06-14 09:30:11.512,219.135,-294.17499999999995,57.33,0.03708800000000001,-0.44286,-1.9078359999999999,1
2024-06-14 09:30:11.517,204.08499999999998,-288.645,61.6,1.313452,0.0063439999999999885,-1.667984,1
2024-06-14 09:30:11.521,181.33499999999998,-298.865,72.275,1.83122,0.249612,-1.0218720000000001,1
2024-06-14 09:30:11.526,136.43,-307.92999999999995,84.035,0.6831999999999999,-0.06246399999999999,-1.3698160000000001,1
2024-06-14 09:30:11.531,67.62,-289.59000000000003,96.63499999999999,-0.443592,-0.19300399999999998,-2.047892,1
2024-06-14 09:30:11.536,26.18,-265.44000000000005,100.485,-0.648308,-0.248392,-1.936872,1
2024-06-14 09:30:11.541,20.16,-255.85,87.28999999999999,-0.090036,-0.574864,-1.8312199999999998,1
2024-06-14 09:30:11.545,29.295,-256.2,62.09,0.316712,-0.7832399999999999,-1.8548879999999999,1
2024-06-14 09:30:11.550,38.885000000000005,-259.945,32.235,0.212036,-0.83936,-1.888072,1
2024-06-14 09:30:11.555,38.745000000000005,-235.725,2.73,-0.028548,-0.6344,-1.945168,1
2024-06-14 09:30:11.560,45.010000000000005,-217.98000000000002,-17.675,-0.057828,-0.34721199999999997,-1.828048,1
2024-06-14 09:30:11.565,60.760000000000005,-185.885,-25.34,0.103944,-0.022448,-1.821948,1
2024-06-14 09:30:11.570,58.065,-140.28,-18.655,0.142008,0.27401200000000003,-1.7636319999999999,1
2024-06-14 09:30:11.574,43.96,-97.78999999999999,0.0,0.08979200000000001,0.405772,-1.367376,1
2024-06-14 09:30:11.579,26.425,-69.125,18.935000000000002,0.122,0.177388,-1.40666,1
2024-06-14 09:30:11.584,16.03,-57.68,27.51,0.11150800000000001,0.136152,-1.253672,1
2024-06-14 09:30:11.589,12.6,-44.485,25.34,0.122,-0.145912,-1.19072,1
2024-06-14 09:30:11.594,8.434999999999999,-32.269999999999996,17.255,-0.02928,-0.18934399999999998,-1.100196,1
2024-06-14 09:30:11.599,7.42,-24.85,8.469999999999999,-0.10125999999999999,-0.078812,-1.0360239999999998,1
2024-06-14 09:30:11.603,7.175000000000001,-20.58,4.62,-0.041968,0.014639999999999999,-1.038952,1
2024-06-14 09:30:11.608,5.005,-15.015,5.8100000000000005,-0.01098,0.024399999999999998,-1.0570080000000002,1
2024-06-14 09:30:11.613,2.45,-11.585,7.525,-0.024644,-0.019520000000000003,-1.0431,1
2024-06-14 09:30:11.618,1.575,-10.43,6.720000000000001,-0.051972000000000004,-0.042943999999999996,-1.0323639999999998,2
2024-06-14 09:30:11.623,1.12,-9.59,4.27,-0.050264,-0.040015999999999996,-1.029192,2
2024-06-14 09:30:11.628,0.7,-8.4,2.7649999999999997,-0.037332000000000004,-0.005855999999999999,-1.029192,2
2024-06-14 09:30:11.632,0.28,-8.049999999999999,3.01,-0.03172,0.024888,-1.024312,2
2024-06-14 09:30:11.637,-0.105,-6.86,3.675,-0.050019999999999995,0.026352,-1.0067439999999999,2
2024-06-14 09:30:11.642,0.21,-5.95,3.535,-0.06392799999999998,0.013663999999999999,-1.00406,2
2024-06-14 09:30:11.647,0.595,-5.075,2.59,-0.060024,0.011224,-0.9962519999999999,2
2024-06-14 09:30:11.652,0.77,-4.165,1.8199999999999998,-0.055388,0.013908,-1.001376,2
2024-06-14 09:30:11.657,0.875,-3.605,1.6099999999999999,-0.060756000000000004,0.018788,-1.001132,2
2024-06-14 09:30:11.661,1.295,-3.535,1.05,-0.059048,0.015371999999999999,-1.00406,2
2024-06-14 09:30:11.666,1.8199999999999998,-4.165,0.525,-0.056608,0.00488,-1.004548,2
2024-06-14 09:30:11.671,2.065,-4.9,0.28,-0.059048,0.003904,-1.00528,2
2024-06-14 09:30:11.676,2.45,-5.74,-0.035,-0.053192,0.006344000000000001,-1.00406,2
2024-06-14 09:30:11.681,2.59,-6.335,-0.21,-0.055632,0.004392,-1.002596,2
2024-06-14 09:30:11.686,2.625,-7.07,-0.35,-0.060268,0.00488,-1.0030839999999999,2
2024-06-14 09:30:11.690,2.8,-7.21,-0.45499999999999996,-0.061,0.004880000000000001,-1.0006439999999999,2
2024-06-14 09:30:11.695,2.9050000000000002,-7.595,-0.525,-0.055144,0.0021959999999999996,-1.0006439999999999,2
2024-06-14 09:30:11.700,2.66,-8.190000000000001,-0.56,-0.053192,0.0017079999999999999,-0.9974719999999999,2
2024-06-14 09:30:11.705,2.3449999999999998,-8.26,-0.315,-0.049044,0.006343999999999999,-0.99796,2
2024-06-14 09:30:11.710,1.8199999999999998,-7.875,-0.10500000000000001,-0.053192,0.003416,-0.9952759999999999,2
2024-06-14 09:30:11.714,1.26,-8.645,-0.06999999999999999,-0.048799999999999996,-0.0036599999999999996,-0.999424,2
2024-06-14 09:30:11.719,0.875,-9.24,-0.07,-0.050752,-0.0034159999999999998,-1.001376,2
2024-06-14 09:30:11.724,0.595,-10.29,0.0,-0.05124,-0.0017079999999999999,-1.003816,2
2024-06-14 09:30:11.729,0.21000000000000002,-11.55,-0.17500000000000002,-0.050508,-0.00024400000000000002,-1.005036,2
2024-06-14 09:30:11.734,0.10500000000000001,-12.565000000000001,-0.21,-0.05368,0.000244,-1.009428,2
2024-06-14 09:30:11.739,0.21000000000000002,-13.335,-0.315,-0.047824,0.00488,-0.99918,2
2024-06-14 09:30:11.743,0.21000000000000002,-13.754999999999999,-0.42,-0.051484,0.009516,-1.001376,2
2024-06-14 09:30:11.748,0.45499999999999996,-14.0,-0.5599999999999999,-0.050752,0.0075639999999999995,-1.0023520000000001,2
2024-06-14 09:30:11.753,0.45499999999999996,-14.035,-0.8400000000000001,-0.04514,0.01342,-0.9977159999999999,2
2024-06-14 09:30:11.758,0.665,-13.93,-0.98,-0.044652,0.012444,-1.0004,2
2024-06-14 09:30:11.763,0.98,-13.370000000000001,-1.225,-0.04148,0.01098,-0.996008,2
2024-06-14 09:30:11.768,1.155,-14.0,-1.26,-0.041235999999999995,0.013176,-0.999424,2
2024-06-14 09:30:11.772,1.33,-13.440000000000001,-1.54,-0.045628,0.006587999999999998,-0.99918,2
2024-06-14 09:30:11.777,1.505,-13.545,-1.645,-0.04514,0.011956,-0.999424,2
2024-06-14 09:30:11.782,-9.065000000000001,-26.634999999999998,-2.415,-0.038064,0.01464,-1.005768,2
2024-06-14 09:30:11.787,0.6649999999999999,-14.84,-1.8199999999999998,-0.040504,0.008052,-1.0043039999999999,2
2024-06-14 09:30:11.792,3.64,-14.665,-1.855,-0.034648,0.011712,-1.004792,2
2024-06-14 09:30:11.797,0.9099999999999999,-14.385000000000002,-2.8,-0.035624,0.010003999999999999,-1.0047920000000001,2
2024-06-14 09:30:11.801,4.0600000000000005,-14.559999999999999,-2.66,-0.038307999999999995,0.009516,-1.006988,2
2024-06-14 09:30:11.806,2.135,-14.420000000000002,-2.45,-0.034648,0.012199999999999999,-1.0060120000000001,2
2024-06-14 09:30:11.811,3.7800000000000002,-14.21,-2.4850000000000003,-0.033672,0.010003999999999999,-1.0023520000000001,2
2024-06-14 09:30:11.816,3.115,-13.755,-2.87,-0.031231999999999996,0.008296000000000001,-1.004548,2
2024-06-14 09:30:11.821,3.675,-13.895,-3.185,-0.02684,0.0061,-1.003816,2
2024-06-14 09:30:11.826,3.5,-13.37,-3.185,-0.029524,0.005124,-1.00284,2
2024-06-14 09:30:11.830,3.5700000000000003,-14.875,-3.115,-0.032696,0.01098,-1.005768,2
2024-06-14 09:30:11.835,4.095000000000001,-15.715,-3.255,-0.032696,-0.000244,-1.0082079999999998,2
2024-06-14 09:30:11.840,4.305,-16.695,-3.535,-0.027816,0.0068319999999999995,-1.0126,2
2024-06-14 09:30:11.845,5.005,-18.095,-3.8150000000000004,-0.031476,0.005612,-1.0152839999999999,2
2024-06-14 09:30:11.850,5.390000000000001,-19.705,-3.745,-0.025132,0.003416,-1.011136,2
2024-06-14 09:30:11.854,5.845000000000001,-21.490000000000002,-3.675,-0.020984,0.008784,-1.0140639999999999,2
2024-06-14 09:30:11.859,7.0,-23.415,-3.8150000000000004,-0.023424,0.0019520000000000002,-1.01992,2
2024-06-14 09:30:11.864,9.065,-24.57,-3.8149999999999995,-0.02074,0.008296,-1.0177239999999999,2
2024-06-14 09:30:11.869,10.99,-25.97,-3.4299999999999997,-0.019764,-0.0036599999999999996,-1.020896,2
2024-06-14 09:30:11.874,11.725,-27.93,-3.2199999999999998,-0.01586,-0.008784,-1.0262639999999998,2
2024-06-14 09:30:11.879,14.805,-18.060000000000002,-2.3449999999999998,-0.010735999999999999,-0.0068319999999999995,-1.026996,2
2024-06-14 09:30:11.883,13.649999999999999,-33.25,-2.66,-0.010735999999999999,-0.005856,-1.02968,2
2024-06-14 09:30:11.888,16.695,-36.05,-1.855,-0.013176,-0.009271999999999999,-1.036512,2
2024-06-14 09:30:11.893,16.59,-41.405,-1.75,-0.005612,0.0017080000000000003,-1.04066,2
2024-06-14 09:30:11.898,20.509999999999998,-45.394999999999996,-2.1,0.0017079999999999999,0.018056,-1.037244,2
2024-06-14 09:30:11.903,23.8,-51.38,-1.8900000000000001,0.002684,0.0009760000000000003,-1.04554,2
2024-06-14 09:30:11.908,26.88,-61.635,-0.21,0.018300000000000004,-0.004148,-1.041636,2
2024-06-14 09:30:11.912,27.965,-71.64500000000001,0.42000000000000004,0.0,-0.037576,-1.0760399999999999,2
2024-06-14 09:30:11.917,23.835,-78.33,0.35000000000000003,0.0034159999999999993,-0.050752,-1.149972,2
2024-06-14 09:30:11.922,18.305,-84.38499999999999,0.56,0.002684,-0.020984,-1.1980399999999998,2
2024-06-14 09:30:11.928,4.0600000000000005,-83.055,-1.4700000000000002,-0.006344,-0.02074,-1.288076,2
2024-06-14 09:30:11.933,-1.925,-84.595,-2.24,0.011224,-0.022448,-1.17852,2
2024-06-14 09:30:11.938,-5.25,-87.43,-2.73,0.024156,-0.01464,-1.1826679999999998,2
2024-06-14 09:30:11.942,-6.895,-90.93,-2.94,0.034648,-0.040015999999999996,-1.1894999999999998,2
2024-06-14 09:30:11.947,-9.065000000000001,-93.275,-2.52,0.040015999999999996,-0.048312,-1.211948,2
2024-06-14 09:30:11.952,-10.184999999999999,-96.53,-1.715,0.046848,-0.041968000000000005,-1.226344,2
2024-06-14 09:30:11.957,-11.059999999999999,-100.31,-1.26,0.044407999999999996,-0.032695999999999996,-1.260016,2
2024-06-14 09:30:11.962,-12.075,-104.125,-0.8049999999999999,0.053436,-0.042456,-1.2878319999999999,2
2024-06-14 09:30:11.966,-12.495000000000001,-108.57,-0.31500000000000006,0.054412,-0.04074799999999999,-1.291004,2
2024-06-14 09:30:11.971,-15.435,-111.055,0.035,0.060511999999999996,-0.035379999999999995,-1.3007639999999998,2
2024-06-14 09:30:11.976,-17.115,-113.015,0.45499999999999996,0.07344400000000001,-0.01952,-1.300764,3
2024-06-14 09:30:11.981,-19.810000000000002,-118.89500000000001,0.56,0.07222400000000001,-0.040992,-1.309548,3
2024-06-14 09:30:11.986,-22.225,-124.145,1.505,0.08052000000000001,-0.073444,-1.3002759999999998,3
2024-06-14 09:30:11.991,-24.395,-129.15,2.45,0.083692,-0.070028,-1.296128,3
2024-06-14 09:30:11.995,-25.62,-136.22,3.325,0.09174399999999999,-0.0854,-1.319796,3
2024-06-14 09:30:12.000,-28.0,-138.88,4.27,0.097356,-0.060511999999999996,-1.32614,3
2024-06-14 09:30:12.005,-32.269999999999996,-145.91500000000002,5.04,0.098088,-0.070028,-1.3549319999999998,3
2024-06-14 09:30:12.010,-35.035,-152.425,5.775,0.09686800000000001,-0.053192,-1.3856760000000001,3
2024-06-14 09:30:12.015,-39.83,-159.95,5.67,0.098332,-0.042943999999999996,-1.409344,3
2024-06-14 09:30:12.019,-42.0,-169.22500000000002,5.67,0.09540399999999999,-0.014884000000000001,-1.445456,3
2024-06-14 09:30:12.024,-43.47,-179.865,5.145,0.09394,0.0053679999999999995,-1.4727839999999999,3
2024-06-14 09:30:12.029,-42.49,-191.065,4.095,0.096136,0.041724,-1.4886439999999999,3
2024-06-14 09:30:12.034,-43.504999999999995,-203.385,2.275,0.084668,0.089548,-1.499136,3
2024-06-14 09:30:12.039,-42.209999999999994,-217.805,-0.42000000000000004,0.08588799999999999,0.120292,-1.5352480000000002,3
2024-06-14 09:30:12.044,-42.525,-228.865,-2.59,0.079788,0.059292,-1.56648,3
2024-06-14 09:30:12.048,-43.435,-245.07,-3.99,0.07442000000000001,0.020007999999999998,-1.6814040000000001,3
2024-06-14 09:30:12.053,-43.715,-262.95500000000004,-4.550000000000001,0.06734399999999999,0.019032,-1.75314,3
2024-06-14 09:30:12.058,-41.965,-285.46,-6.09,0.071004,0.11565599999999998,-1.781688,3
2024-06-14 09:30:12.063,-39.760000000000005,-305.13,-9.45,0.050752,0.21154799999999999,-1.7653400000000001,3
2024-06-14 09:30:12.068,-35.21,-326.76,-14.21,0.029768,0.283772,-1.720932,3
2024-06-14 09:30:12.072,-34.125,-346.28999999999996,-20.125,0.038551999999999996,0.29401999999999995,-1.75436,3
2024-06-14 09:30:12.077,-38.989999999999995,-362.565,-24.884999999999998,0.070272,0.14493599999999998,-1.7370359999999998,3
2024-06-14 09:30:12.082,-38.36,-385.875,-24.535,0.187392,-0.09101200000000001,-2.021052,3
2024-06-14 09:30:12.087,-36.54,-405.615,-18.270000000000003,0.310124,-0.26596,-2.3226359999999997,3
2024-06-14 09:30:12.092,-24.01,-421.96000000000004,-7.5249999999999995,0.384056,-0.406748,-2.560292,3
2024-06-14 09:30:12.097,-48.09,-429.17,-0.6300000000000001,0.467016,-0.284504,-2.713768,3
2024-06-14 09:30:12.101,-43.715,-434.105,8.715,0.34355199999999997,-0.209596,-2.73524,3
2024-06-14 09:30:12.106,-42.91,-440.475,14.91,0.314516,0.07710399999999999,-2.7459759999999998,3
2024-06-14 09:30:12.111,-52.535,-444.29,13.405000000000001,0.49141599999999996,0.288652,-2.6359320000000004,3
2024-06-14 09:30:12.116,-58.17,-449.435,9.905000000000001,0.5246,0.32208000000000003,-2.674972,3
2024-06-14 09:30:12.121,-74.655,-446.6,4.62,0.447008,0.375272,-2.806244,3
2024-06-14 09:30:12.126,-78.12,-443.45000000000005,-3.395,0.283772,0.222772,-2.615436,3
2024-06-14 09:30:12.130,-73.99000000000001,-441.66499999999996,-9.870000000000001,0.180072,0.100284,-2.5659039999999997,3
2024-06-14 09:30:12.135,-64.05000000000001,-442.47,-13.370000000000001,0.17397200000000002,0.06222,-2.6449599999999998,3
2024-06-14 09:30:12.140,-54.599999999999994,-440.055,-19.04,0.307928,0.144204,-2.623976,3
2024-06-14 09:30:12.145,-38.08,-432.425,-22.68,0.39845200000000003,0.10052799999999999,-2.6883919999999994,3
2024-06-14 09:30:12.150,-21.35,-418.11,-23.31,0.33818400000000004,0.304268,-2.71938,3
2024-06-14 09:30:12.154,-16.03,-397.32,-27.58,0.086864,0.418216,-2.5925000000000002,3
2024-06-14 09:30:12.159,-6.8950000000000005,-368.76,-31.57,-0.357704,0.45017999999999997,-2.377048,3
2024-06-14 09:30:12.164,-1.19,-332.64,-37.379999999999995,-0.9489159999999999,0.484584,-2.06302,3
2024-06-14 09:30:12.169,2.3449999999999998,-294.735,-44.8,-1.403,0.45042400000000005,-1.822924,3
2024-06-14 09:30:12.174,-0.24499999999999988,-258.29999999999995,-69.19500000000001,-2.005192,0.879864,-1.547936,3
2024-06-14 09:30:12.179,-9.065,-233.905,-79.45,-1.568676,0.43895599999999996,-1.438868,3
2024-06-14 09:30:12.183,-11.165,-236.53,-97.685,-1.225612,0.698572,-0.257908,3
2024-06-14 09:30:12.188,6.51,-201.14499999999998,-99.68,-1.4466759999999999,0.385764,-1.462292,3
2024-06-14 09:30:12.193,-10.5,-102.305,-102.13,-1.691652,0.25132,-1.50182,3
2024-06-14 09:30:12.198,-28.560000000000002,-39.55,-106.26,-1.516216,0.156892,-1.3175999999999999,3
2024-06-14 09:30:12.203,-19.495,-1.6799999999999997,-104.265,-1.320528,0.018056000000000003,-1.178764,3
2024-06-14 09:30:12.207,5.949999999999999,29.68,-95.19999999999999,-1.234884,-0.088084,-1.149728,3
2024-06-14 09:30:12.212,30.485,49.07,-84.84,-1.144604,-0.101748,-1.092632,3
2024-06-14 09:30:12.217,50.085,58.1,-75.03999999999999,-1.035292,-0.061488,-0.994544,3
2024-06-14 09:30:12.222,61.67,64.365,-65.835,-0.959652,-0.0007320000000000017,-0.9086559999999999,4
2024-06-14 09:30:12.227,67.025,70.84,-57.224999999999994,-0.91866,0.05734,-0.807884,4
2024-06-14 09:30:12.232,66.95500000000001,78.61,-49.769999999999996,-0.9013359999999999,0.117364,-0.701256,4
2024-06-14 09:30:12.236,62.09,88.75999999999999,-43.785,-0.890844,0.154696,-0.617564,4
2024-06-14 09:30:12.241,54.32,101.28999999999999,-38.675,-0.874984,0.179096,-0.563152,4
2024-06-14 09:30:12.246,45.255,115.535,-34.16,-0.8601,0.180316,-0.52338,4
2024-06-14 09:30:12.251,36.504999999999995,130.375,-29.68,-0.8418000000000001,0.15884399999999999,-0.5045919999999999,4
2024-06-14 09:30:12.256,29.259999999999998,145.35500000000002,-25.305,-0.8242320000000001,0.12102399999999999,-0.491172,4
2024-06-14 09:30:12.260,24.43,160.125,-20.86,-0.796904,0.08174000000000001,-0.48116800000000004,4
2024-06-14 09:30:12.265,22.435,174.265,-16.310000000000002,-0.772016,0.037576,-0.476044,4
2024-06-14 09:30:12.270,22.924999999999997,187.74,-11.969999999999999,-0.7415160000000001,0.009516,-0.479704,4
2024-06-14 09:30:12.275,25.27,200.48,-7.63,-0.712236,-0.009272,-0.48726800000000003,4
2024-06-14 09:30:12.280,28.035,212.66,-4.27,-0.686372,-0.00048799999999999994,-0.49727199999999994,4
2024-06-14 09:30:12.285,29.994999999999997,223.965,-2.135,-0.662948,0.023424,-0.512888,4
2024-06-14 09:30:12.289,30.59,234.57,-1.33,-0.6341559999999999,0.051239999999999994,-0.529968,4
2024-06-14 09:30:12.294,29.365000000000002,245.035,-1.8199999999999998,-0.612196,0.09345200000000001,-0.5538799999999999,4
2024-06-14 09:30:12.299,25.935000000000002,255.255,-3.5349999999999997,-0.5936520000000001,0.119804,-0.575108,4
2024-06-14 09:30:12.304,20.79,265.475,-6.475,-0.575108,0.145424,-0.597312,4
2024-06-14 09:30:12.309,15.155000000000001,275.555,-10.115,-0.5550999999999999,0.156892,-0.6234199999999999,4
2024-06-14 09:30:12.313,9.065000000000001,285.46000000000004,-14.07,-0.538264,0.16177199999999997,-0.66978,4
2024-06-14 09:30:12.318,3.395,294.735,-17.990000000000002,-0.512888,0.16372399999999998,-0.7115039999999999,4
2024-06-14 09:30:12.323,-1.47,303.415,-22.05,-0.493612,0.152988,-0.749568,4
2024-06-14 09:30:12.328,-5.635,311.64,-26.11,-0.47458,0.143716,-0.791536,4
2024-06-14 09:30:12.333,-9.065000000000001,319.515,-29.715,-0.453596,0.137372,-0.8400920000000001,4
2024-06-14 09:30:12.338,-11.620000000000001,326.375,-33.39,-0.425048,0.12736799999999998,-0.885232,4
2024-06-14 09:30:12.342,-13.37,332.885,-36.575,-0.399428,0.12492799999999998,-0.934764,4
2024-06-14 09:30:12.347,-14.7,338.65999999999997,-39.655,-0.365512,0.127856,-0.9816119999999999,4
2024-06-14 09:30:12.352,-16.52,344.295,-42.769999999999996,-0.34428400000000003,0.140056,-1.046028,4
2024-06-14 09:30:12.357,-18.689999999999998,349.755,-45.815,-0.30866000000000005,0.150792,-1.090436,4
2024-06-14 09:30:12.362,-20.93,355.145,-48.685,-0.27937999999999996,0.152256,-1.1582679999999999,4
2024-06-14 09:30:12.366,-23.8,360.115,-51.625,-0.28059999999999996,0.17324,-1.2368359999999998,4
2024-06-14 09:30:12.371,-31.744999999999997,366.135,-54.25,-0.27498799999999995,0.20495999999999998,-1.31638,4
2024-06-14 09:30:12.376,-35.980000000000004,371.42,-56.769999999999996,-0.27181599999999995,0.200324,-1.3685960000000001,4
2024-06-14 09:30:12.381,-41.3,376.845,-58.870000000000005,-0.27132799999999996,0.19397999999999999,-1.462292,4
2024-06-14 09:30:12.386,-48.79,380.485,-61.145,-0.255224,0.21960000000000002,-1.6528559999999999,4
2024-06-14 09:30:12.391,-51.555,391.37,-62.894999999999996,-0.236192,0.16592,-1.5196319999999999,4
2024-06-14 09:30:12.395,-58.415,395.46500000000003,-64.05,-0.23155599999999998,0.212768,-1.6714,4
2024-06-14 09:30:12.400,-59.64,400.96,-63.84,-0.20618,0.18226799999999999,-1.7955959999999997,4
2024-06-14 09:30:12.405,-62.545,405.475,-63.735,-0.1708,0.18568400000000002,-1.9032,4
2024-06-14 09:30:12.410,-66.08,408.79999999999995,-63.665000000000006,-0.143716,0.19495600000000002,-2.0132440000000003,4
2024-06-14 09:30:12.415,-70.45500000000001,411.775,-64.295,-0.109068,0.225212,-2.13622,4
2024-06-14 09:30:12.419,-77.315,414.435,-65.83500000000001,-0.05953599999999999,0.25839599999999996,-2.244068,4
2024-06-14 09:30:12.424,-87.5,417.20000000000005,-69.37,-0.011468,0.305488,-2.362896,4
2024-06-14 09:30:12.429,-101.325,419.615,-75.25,0.024156,0.348188,-2.490752,4
2024-06-14 09:30:12.434,-118.055,421.61,-82.845,0.076616,0.363316,-2.6188520000000004,4
2024-06-14 09:30:12.439,-137.515,423.115,-91.07,0.159576,0.35209199999999996,-2.7469520000000003,4
2024-06-14 09:30:12.444,-157.85,424.54999999999995,-98.455,0.28182,0.285724,-2.867732,4
2024-06-14 09:30:12.448,-175.735,425.565,-102.55,0.443592,0.16835999999999998,-2.989976,4
2024-06-14 09:30:12.453,-187.32,425.81,-101.395,0.625128,0.010003999999999999,-3.1017279999999996,4
2024-06-14 09:30:12.458,-192.465,424.795,-94.57,0.82716,-0.160308,-3.207624,4
2024-06-14 09:30:12.463,-189.805,422.135,-81.795,1.0435880000000002,-0.310368,-3.2981480000000003,4
2024-06-14 09:30:12.468,-180.21499999999997,417.06,-63.665,1.2817319999999999,-0.429928,-3.361588,4
2024-06-14 09:30:12.473,-165.655,408.905,-40.635000000000005,1.4779080000000002,-0.44164000000000003,-3.395016,4
2024-06-14 09:30:12.477,-148.435,394.55499999999995,-4.235,1.66896,-0.3721,-3.574356,4
2024-06-14 09:30:12.482,-129.15,385.77,11.235000000000001,1.9854280000000002,-0.540216,-3.3781799999999995,4
2024-06-14 09:30:12.487,-113.36500000000001,367.43,37.59,2.215764,-0.46311199999999997,-3.3667119999999997,4
2024-06-14 09:30:12.492,-101.465,348.21500000000003,62.02,2.44488,-0.36478,-3.327184,4
2024-06-14 09:30:12.497,-91.35,328.825,82.67,2.6781439999999996,-0.207888,-3.1815160000000002,4
2024-06-14 09:30:12.501,-84.875,308.35,97.65,2.879444,-0.04367599999999999,-2.9728959999999995,4
2024-06-14 09:30:12.506,-80.78,287.0,106.68,3.066348,0.099064,-2.7005920000000003,4
2024-06-14 09:30:12.511,-85.12,263.76,110.66999999999999,3.197864,0.153964,-2.4700119999999997,4
2024-06-14 09:30:12.516,-105.45500000000001,237.615,108.92,3.257888,0.18348799999999998,-2.3667999999999996,4
2024-06-14 09:30:12.521,-124.215,214.13,103.32,3.414536,0.09833199999999999,-2.149152,4
2024-06-14 09:30:12.526,-130.305,188.265,100.275,3.535316,-0.097356,-1.8951479999999998,4
2024-06-14 09:30:12.530,-120.575,160.965,101.395,3.6009520000000004,-0.270596,-1.552816,4
2024-06-14 09:30:12.535,-119.35,139.335,103.215,4.055036,-0.367464,-1.484008,4
2024-06-14 09:30:12.540,-131.6,126.315,100.205,4.602816,-0.37673599999999996,-1.4513119999999997,4
2024-06-14 09:30:12.545,-140.595,109.025,96.32,5.012003999999999,-0.588772,-1.3139399999999999,4
2024-06-14 09:30:12.550,-142.625,85.05,96.11,5.357263999999999,-0.7905599999999999,-1.2321999999999997,4
2024-06-14 09:30:12.554,-137.445,47.67,96.88,5.5187919999999995,-0.9298839999999999,-1.2490359999999998,4
2024-06-14 09:30:12.559,-123.06,-1.5750000000000002,96.95,5.39118,-1.03822,-1.313452,4
2024-06-14 09:30:12.564,-94.78,-59.08,96.075,5.026156,-1.086044,-1.332484,4
2024-06-14 09:30:12.569,-55.65,-117.355,94.22,4.545476000000001,-1.079212,-1.343952,4
2024-06-14 09:30:12.574,20.475,-239.89,97.30000000000001,2.4026680000000002,-0.876204,-1.8512279999999999,4
2024-06-14 09:30:12.579,170.87,-329.07,106.33,0.239852,-0.49019599999999997,-2.382904,4
2024-06-14 09:30:12.583,146.405,-300.78999999999996,91.455,-3.1829799999999997,0.021716,0.040504,4
