time,gyroscope_x,gyroscope_y,gyroscope_z,accelerometer_x,accelerometer_y,accelerometer_z,phase
2024-06-14 11:37:02.383,81.75999999999999,-326.48,74.445,0.6117079999999999,-1.1180080000000001,-4.008432,1
2024-06-14 11:37:02.388,49.805,-262.22,43.155,0.569984,-0.7625,-2.7396320000000003,1
2024-06-14 11:37:02.393,52.185,-209.86,22.225,0.44456799999999996,-0.36453599999999997,-2.3887599999999996,1
2024-06-14 11:37:02.397,27.79,-174.57999999999998,25.935000000000002,0.406992,-0.010248000000000007,-1.871236,1
2024-06-14 11:37:02.402,32.480000000000004,-91.77,31.57,0.4614039999999999,-0.43944400000000006,-2.9826559999999995,1
2024-06-14 11:37:02.407,19.18,-28.42,12.705,0.039771999999999995,-0.064904,-1.614304,1
2024-06-14 11:37:02.412,25.375,-15.645,12.25,0.145668,0.15420799999999998,-1.296372,1
2024-06-14 11:37:02.417,22.4,-8.469999999999999,21.14,0.024888,-0.11419199999999999,-1.153144,1
2024-06-14 11:37:02.422,25.130000000000003,-9.1,14.56,0.129564,0.057095999999999994,-1.198772,1
2024-06-14 11:37:02.426,24.395000000000003,-7.734999999999999,15.469999999999999,0.193492,-0.080764,-1.153876,1
2024-06-14 11:37:02.431,19.775,-1.645,11.2,0.087596,-0.080276,-0.996008,1
2024-06-14 11:37:02.436,20.055,6.859999999999999,6.265000000000001,0.11175199999999999,-0.045627999999999995,-0.9652639999999999,1
2024-06-14 11:37:02.441,24.535,10.605,1.5050000000000001,0.077348,-0.000732,-1.043344,1
2024-06-14 11:37:02.446,24.395,8.89,-0.28,-0.0024399999999999995,-0.07539599999999999,-1.0960479999999997,1
2024-06-14 11:37:02.451,20.545,4.34,1.5050000000000001,-0.057583999999999996,-0.07539599999999999,-1.0796999999999999,1
2024-06-14 11:37:02.456,18.48,1.19,2.7649999999999997,-0.030255999999999998,-0.012199999999999997,-1.109224,1
2024-06-14 11:37:02.460,19.565,-3.325,2.1,0.0036600000000000005,-0.032452,-1.136796,1
2024-06-14 11:37:02.465,16.87,-8.225,1.295,-0.065392,-0.078324,-1.1048319999999998,1
2024-06-14 11:37:02.470,13.16,-12.809999999999999,1.4,-0.10004,-0.065392,-1.0616439999999998,1
2024-06-14 11:37:02.475,11.34,-16.625,0.9450000000000001,-0.10370000000000001,-0.03904,-1.067012,1
2024-06-14 11:37:02.480,10.71,-22.085,0.14,-0.114436,-0.041724,-1.096536,1
2024-06-14 11:37:02.485,8.82,-27.79,-0.07,-0.10931199999999999,-0.070272,-1.098488,1
2024-06-14 11:37:02.489,4.865,-33.425,0.45499999999999996,-0.065392,-0.10394400000000001,-1.1004399999999999,1
2024-06-14 11:37:02.494,-1.26,-39.165,0.595,-0.031476000000000004,-0.11565600000000001,-1.0833599999999999,1
2024-06-14 11:37:02.499,-7.105,-43.225,0.9450000000000001,-0.046116,-0.10931199999999999,-1.0628639999999998,1
2024-06-14 11:37:02.504,-11.094999999999999,-46.165,1.0150000000000001,-0.072956,-0.075884,-1.074576,1
2024-06-14 11:37:02.509,-12.774999999999999,-49.455,0.665,-0.099308,-0.040015999999999996,-1.0979999999999999,1
2024-06-14 11:37:02.514,-11.97,-53.795,-0.245,-0.078812,0.01098,-1.11508,1
2024-06-14 11:37:02.519,-9.94,-58.17,-1.33,-0.048068,0.012444,-1.106052,1
2024-06-14 11:37:02.523,-8.225000000000001,-60.375,-1.7149999999999999,-0.05246000000000001,-0.020739999999999998,-1.06506,1
2024-06-14 11:37:02.528,-8.225000000000001,-60.2,-1.96,-0.051484,-0.058072,-1.03944,1
2024-06-14 11:37:02.533,-9.8,-59.71,-2.0300000000000002,-0.03952800000000001,-0.076372,-1.056032,1
2024-06-14 11:37:02.538,-12.145,-61.32,-1.89,-0.025863999999999998,-0.07685999999999998,-1.059936,1
2024-06-14 11:37:02.543,-14.245000000000001,-60.900000000000006,-1.6099999999999999,-0.010248,-0.06222,-1.051152,1
2024-06-14 11:37:02.548,-20.685000000000002,-62.405,-1.47,-0.012199999999999999,-0.048312,-1.042368,2
2024-06-14 11:37:02.552,-15.469999999999999,-63.91,-1.085,-0.01464,-0.04026,-1.0384639999999998,2
2024-06-14 11:37:02.557,-15.75,-70.035,-1.365,-0.008052,-0.05904799999999999,-1.0470039999999998,2
2024-06-14 11:37:02.562,-16.905,-66.745,-0.56,0.005124,-0.046116000000000004,-1.037,3
2024-06-14 11:37:02.567,-40.355000000000004,-81.305,0.1399999999999999,0.003904,-0.031232000000000003,-1.022848,3
2024-06-14 11:37:02.572,-17.185000000000002,-72.415,1.365,0.0046359999999999995,-0.010004,-1.03456,3
2024-06-14 11:37:02.577,-11.725000000000001,-75.25,0.9449999999999998,0.013176,-0.023424,-1.043344,3
2024-06-14 11:37:02.582,-15.855,-75.18,-0.41999999999999993,0.012444,-0.009272,-1.050176,3
2024-06-14 11:37:02.586,-18.235,-79.52,0.10499999999999998,0.008539999999999999,-0.01342,-1.059692,3
2024-06-14 11:37:02.591,-24.675,-66.255,-0.45500000000000007,0.019032,0.011224,-1.0845799999999999,3
2024-06-14 11:37:02.596,-32.585,-61.075,-2.065,0.021716,0.023667999999999998,-1.067744,3
2024-06-14 11:37:02.601,-21.63,-62.37,-2.17,0.022935999999999998,0.005856,-1.085556,3
2024-06-14 11:37:02.606,-14.385,-65.695,-2.03,0.026596,0.033672,-1.073356,3
2024-06-14 11:37:02.611,-12.705,-64.715,-0.20999999999999996,0.035624,0.006832,-1.108736,3
2024-06-14 11:37:02.615,-13.02,-64.645,0.035,0.051727999999999996,-0.00976,-1.095072,3
2024-06-14 11:37:02.620,-3.5349999999999997,-66.675,0.07000000000000006,0.065148,-0.042212,-1.1126399999999999,3
2024-06-14 11:37:02.625,-10.64,-62.405,-0.98,0.057828000000000004,0.008051999999999998,-1.179008,3
2024-06-14 11:37:02.630,-16.135,-54.32,-2.5199999999999996,0.05978,-0.059536,-1.12606,3
2024-06-14 11:37:02.635,-10.64,-54.32,0.45499999999999996,0.05856,-0.176656,-1.196332,3
2024-06-14 11:37:02.640,-15.26,-53.69,1.75,0.044163999999999995,-0.065392,-1.141676,3
2024-06-14 11:37:02.645,-19.25,-53.760000000000005,1.085,0.055875999999999995,-0.036844,-1.056764,3
2024-06-14 11:37:02.649,-19.25,-53.76,1.085,0.07466400000000001,-0.020008,-1.057252,3
2024-06-14 11:37:02.654,-19.67,-54.144999999999996,1.12,0.08125199999999999,-0.004880000000000001,-1.055788,3
2024-06-14 11:37:02.659,-19.04,-53.515,1.225,0.091988,-0.00122,-1.038464,3
2024-06-14 11:37:02.664,-17.85,-52.605000000000004,1.0150000000000001,0.08906,-0.015127999999999999,-1.028216,3
2024-06-14 11:37:02.669,-17.814999999999998,-51.519999999999996,1.0150000000000001,0.100772,-0.035136,-1.024068,3
2024-06-14 11:37:02.674,-18.165,-50.33,1.4700000000000002,0.108824,-0.02074,-1.00284,3
2024-06-14 11:37:02.678,-19.985,-48.755,1.26,0.116876,0.024644,-0.99186,3
2024-06-14 11:37:02.683,-21.7,-46.585,0.245,0.12688,0.011956,-0.96624,3
2024-06-14 11:37:02.688,-19.740000000000002,-44.835,0.06999999999999999,0.132736,0.001708,-0.952332,3
2024-06-14 11:37:02.693,-17.36,-42.980000000000004,-0.105,0.132492,0.018299999999999997,-0.9306159999999999,3
2024-06-14 11:37:02.698,-15.54,-40.775,-0.21,0.13688399999999998,0.013908,-0.9211,3
2024-06-14 11:37:02.703,-12.95,-38.78,-0.27999999999999997,0.144692,0.014152,-0.92232,3
2024-06-14 11:37:02.708,-9.52,-36.82,-0.315,0.142984,0.028547999999999997,-0.906704,3
2024-06-14 11:37:02.712,-7.105,-34.86,-0.98,0.149572,0.062708,-0.892308,3
2024-06-14 11:37:02.717,-4.6899999999999995,-33.285,-1.68,0.15176800000000001,0.055875999999999995,-0.896944,3
2024-06-14 11:37:02.722,-2.17,-31.674999999999997,-2.24,0.154208,0.044896000000000005,-0.91134,3
2024-06-14 11:37:02.727,0.42000000000000004,-30.555,-2.7649999999999997,0.155916,0.045871999999999996,-0.918172,3
2024-06-14 11:37:02.732,2.5199999999999996,-29.68,-3.43,0.15738000000000002,0.038308,-0.9362280000000001,3
2024-06-14 11:37:02.737,4.655,-29.015,-3.85,0.15445199999999998,0.042943999999999996,-0.963556,3
2024-06-14 11:37:02.741,7.3149999999999995,-29.26,-4.2,0.152256,0.03294,-0.996496,3
2024-06-14 11:37:02.746,9.1,-29.82,-4.27,0.15567199999999998,0.028303999999999996,-1.0116239999999999,3
2024-06-14 11:37:02.751,10.71,-30.1,-4.62,0.14932800000000002,0.020252,-1.0287039999999998,3
2024-06-14 11:37:02.756,11.235,-30.765,-4.585,0.149816,-0.0036599999999999996,-1.052372,3
2024-06-14 11:37:02.761,11.55,-32.305,-4.515000000000001,0.14640000000000003,0.000976,-1.099464,3
2024-06-14 11:37:02.766,11.48,-34.615,-4.41,0.146644,-0.004636,-1.1224,3
2024-06-14 11:37:02.771,10.57,-37.275,-4.095,0.15128000000000003,-0.021228,-1.146312,3
2024-06-14 11:37:02.775,10.675,-40.25,-3.535,0.15982,-0.025132,-1.173884,3
2024-06-14 11:37:02.780,8.435,-43.155,-3.115,0.161772,-0.03172,-1.17974,3
2024-06-14 11:37:02.785,6.51,-46.2,-2.555,0.17299599999999998,-0.04758,-1.200724,3
2024-06-14 11:37:02.792,3.535,-50.19,-1.8199999999999998,0.16665199999999997,-0.039040000000000005,-1.2175599999999998,3
2024-06-14 11:37:02.797,0.9450000000000001,-52.815,-1.155,0.165432,-0.048556,-1.230004,3
2024-06-14 11:37:02.802,-1.2249999999999999,-57.855000000000004,-0.63,0.175436,-0.040015999999999996,-1.220732,3
2024-06-14 11:37:02.806,-3.815,-61.425,0.0,0.183732,-0.046116000000000004,-1.2104840000000001,3
2024-06-14 11:37:02.811,-6.72,-64.225,0.595,0.1891,-0.040504,-1.223904,3
2024-06-14 11:37:02.816,-10.71,-66.78,1.225,0.19080799999999998,-0.059536,-1.2478159999999998,3
2024-06-14 11:37:02.821,-13.684999999999999,-69.50999999999999,2.1,0.18568400000000002,-0.061731999999999995,-1.263188,3
2024-06-14 11:37:02.826,-17.115000000000002,-73.675,3.01,0.18446400000000002,-0.052948,-1.328824,3
2024-06-14 11:37:02.831,-20.02,-79.44999999999999,3.745,0.182512,-0.030256,-1.375184,3
2024-06-14 11:37:02.835,-21.665,-87.605,4.2,0.175436,-0.0075639999999999995,-1.475956,3
2024-06-14 11:37:02.840,-22.82,-96.67,4.2,0.1708,-0.0017080000000000003,-1.490352,3
2024-06-14 11:37:02.845,-22.715,-107.38,4.165,0.163236,0.007076000000000001,-1.541592,3
2024-06-14 11:37:02.850,-24.674999999999997,-118.61500000000001,3.815,0.16592,-0.017568,-1.522072,3
2024-06-14 11:37:02.855,-26.46,-128.975,4.375,0.16469999999999999,-0.07417599999999999,-1.5132880000000002,3
2024-06-14 11:37:02.860,-31.534999999999997,-138.53,5.145,0.1708,-0.10126,-1.510604,3
2024-06-14 11:37:02.864,-38.08,-148.32999999999998,6.265,0.168116,-0.10614,-1.536468,3
2024-06-14 11:37:02.869,-42.525,-160.93,7.175,0.16226000000000002,-0.083204,-1.594784,3
2024-06-14 11:37:02.874,-45.92,-174.615,7.595,0.14615599999999998,-0.020252,-1.70068,3
2024-06-14 11:37:02.879,-49.0,-189.875,7.105,0.14249599999999998,0.028304,-1.763388,3
2024-06-14 11:37:02.884,-49.875,-205.065,6.335,0.11053199999999999,0.050264,-1.853424,3
2024-06-14 11:37:02.888,-45.535,-222.32,4.6899999999999995,0.11053199999999999,0.08539999999999999,-1.991284,3
2024-06-14 11:37:02.893,-41.23,-240.695,2.7300000000000004,0.114924,0.126148,-1.9097879999999998,3
2024-06-14 11:37:02.898,-39.725,-263.76,-0.21000000000000008,0.10345599999999999,0.19495600000000002,-1.979572,3
2024-06-14 11:37:02.903,-40.215,-283.57,-3.325,0.07466400000000001,0.084912,-2.04838,3
2024-06-14 11:37:02.908,-35.42,-310.73,-4.34,0.0366,0.10589599999999999,-2.141832,3
2024-06-14 11:37:02.913,-33.95,-330.365,-6.125,0.041724,0.12736799999999998,-2.334104,3
2024-06-14 11:37:02.917,-32.165,-353.815,-8.295,0.030255999999999998,0.112728,-2.5834719999999995,3
2024-06-14 11:37:02.922,-31.395000000000003,-378.21000000000004,-10.115,-0.023667999999999998,0.165676,-2.610556,3
2024-06-14 11:37:02.927,-33.11,-406.66499999999996,-12.635000000000002,-0.078324,0.21984399999999998,-2.7898959999999997,3
2024-06-14 11:37:02.932,-39.445,-434.525,-16.905,0.147132,0.284504,-3.034384,3
2024-06-14 11:37:02.937,-45.465,-450.94,-18.655,0.265228,0.16128399999999998,-3.88326,3
2024-06-14 11:37:02.942,-48.72,-481.88,-22.155,0.0976,0.327936,-3.514576,3
2024-06-14 11:37:02.946,-57.54,-508.235,-26.18,0.285236,0.515328,-3.665856,3
2024-06-14 11:37:02.951,-80.11500000000001,-525.0350000000001,-32.48,0.38039599999999996,0.5563199999999999,-4.187772000000001,3
2024-06-14 11:37:02.956,-93.625,-540.61,-38.64,0.37454,0.34282,-4.168496,3
2024-06-14 11:37:02.961,-95.06,-555.6600000000001,-38.92,0.299632,0.10662799999999999,-4.175816,3
2024-06-14 11:37:02.966,-97.72,-565.74,-41.230000000000004,0.03977199999999999,0.202764,-4.288788,3
2024-06-14 11:37:02.971,-77.07,-581.0350000000001,-47.635,0.046116000000000004,0.13664,-4.18826,3
2024-06-14 11:37:02.975,-55.790000000000006,-580.02,-52.5,-0.29182400000000003,-0.012688000000000001,-3.9284,3
2024-06-14 11:37:02.980,-13.335,-572.705,-56.0,-0.5917,-0.093208,-3.77224,3
2024-06-14 11:37:02.985,33.53,-554.6800000000001,-55.79,-0.9301280000000001,-0.00048799999999999885,-3.58436,3
2024-06-14 11:37:02.990,75.845,-528.71,-53.97,-1.3978760000000001,0.13054,-3.3691519999999997,3
2024-06-14 11:37:02.995,98.14,-492.765,-53.864999999999995,-1.939556,0.31890799999999997,-3.020964,3
2024-06-14 11:37:03.000,115.045,-470.96000000000004,-58.1,-2.2765199999999997,0.6356200000000001,-2.8013639999999995,3
2024-06-14 11:37:03.004,124.39,-451.64,-70.66499999999999,-2.720112,1.009672,-2.095228,3
2024-06-14 11:37:03.009,121.87,-437.22,-94.15,-2.465132,1.452776,-0.8820600000000001,3
2024-06-14 11:37:03.014,147.525,-459.515,-97.02,-1.159732,1.75802,0.61366,3
2024-06-14 11:37:03.019,119.455,-406.14,-91.77000000000001,-0.812032,1.7677800000000001,-0.872544,3
2024-06-14 11:37:03.024,14.174999999999999,-256.585,-114.94,-1.4022679999999998,2.230404,-1.7568000000000001,3
2024-06-14 11:37:03.028,-65.94,-148.925,-139.79000000000002,-2.1457360000000003,1.807308,-1.274168,4
2024-06-14 11:37:03.033,-117.635,-42.315,-144.865,-2.57542,1.0418800000000001,-0.8906000000000001,4
2024-06-14 11:37:03.038,-130.97,62.019999999999996,-134.505,-2.3851,0.543388,-0.919148,4
2024-06-14 11:37:03.043,-108.43,135.135,-117.985,-1.8675760000000001,0.10126,-0.9896639999999999,4
2024-06-14 11:37:03.048,-68.95,177.275,-100.1,-1.4803479999999998,-0.24278,-1.1419199999999998,4
2024-06-14 11:37:03.053,-21.21,201.285,-81.725,-1.312964,-0.40747999999999995,-1.220488,4
2024-06-14 11:37:03.057,29.645,212.66000000000003,-62.93,-1.216828,-0.457256,-1.1143480000000001,4
2024-06-14 11:37:03.062,77.245,216.33499999999998,-43.644999999999996,-1.13704,-0.378444,-0.9513559999999999,4
2024-06-14 11:37:03.067,118.72,216.51,-26.11,-1.048224,-0.21179199999999998,-0.8274039999999999,4
2024-06-14 11:37:03.072,148.435,216.825,-12.565000000000001,-0.9638,-0.040992,-0.763232,4
2024-06-14 11:37:03.077,164.39499999999998,218.32999999999998,-2.8000000000000003,-0.8830359999999999,0.110288,-0.7200439999999999,4
2024-06-14 11:37:03.082,168.385,222.075,4.585,-0.826184,0.269132,-0.650748,4
2024-06-14 11:37:03.086,162.575,228.79500000000002,9.73,-0.797636,0.438712,-0.5795,4
2024-06-14 11:37:03.091,147.7,237.79,12.18,-0.77348,0.571692,-0.546072,4
2024-06-14 11:37:03.096,124.25,248.29000000000002,11.865,-0.743468,0.677344,-0.5380199999999999,4
2024-06-14 11:37:03.101,96.03999999999999,259.0,9.8,-0.70516,0.72834,-0.555344,4
2024-06-14 11:37:03.106,66.045,269.395,6.615,-0.6734399999999999,0.7412719999999999,-0.573644,4
2024-06-14 11:37:03.111,37.065,279.05499999999995,2.975,-0.639768,0.721264,-0.603656,4
2024-06-14 11:37:03.115,11.2,287.63,-0.034999999999999976,-0.5887720000000001,0.665632,-0.642696,4
2024-06-14 11:37:03.120,-9.835,295.54,-2.17,-0.532164,0.5860879999999999,-0.6871039999999999,4
2024-06-14 11:37:03.125,-25.305,302.26,-2.835,-0.47824,0.494344,-0.732976,4
2024-06-14 11:37:03.130,-35.7,308.63,-2.065,-0.429684,0.39893999999999996,-0.779336,4
2024-06-14 11:37:03.135,-41.335,314.405,0.10499999999999998,-0.396744,0.313784,-0.834236,4
2024-06-14 11:37:03.140,-43.61,319.83,3.115,-0.3599,0.24644,-0.883768,4
2024-06-14 11:37:03.144,-43.364999999999995,325.115,7.035,-0.330864,0.20983999999999997,-0.9359839999999999,4
2024-06-14 11:37:03.149,-41.230000000000004,330.08500000000004,11.27,-0.306464,0.182024,-0.9835639999999999,4
2024-06-14 11:37:03.154,-39.129999999999995,335.37,15.364999999999998,-0.292068,0.170068,-1.022848,4
2024-06-14 11:37:03.159,-37.66,341.18,18.9,-0.28523600000000005,0.183244,-1.064084,4
2024-06-14 11:37:03.164,-37.1,347.69,21.77,-0.27620799999999995,0.207644,-1.0984880000000001,4
2024-06-14 11:37:03.169,-37.870000000000005,354.69,23.765,-0.26669199999999993,0.228384,-1.144116,4
2024-06-14 11:37:03.173,-39.83,361.40999999999997,24.675,-0.24863599999999997,0.248636,-1.1980399999999998,4
2024-06-14 11:37:03.178,-43.085,367.815,24.675,-0.223016,0.270352,-1.2544039999999999,4
2024-06-14 11:37:03.183,-47.005,373.38,23.869999999999997,-0.19885999999999998,0.289628,-1.312476,4
2024-06-14 11:37:03.188,-51.695,378.14,22.189999999999998,-0.168116,0.305244,-1.369816,4
2024-06-14 11:37:03.193,-56.805,382.025,20.265,-0.13322399999999998,0.311344,-1.42618,4
2024-06-14 11:37:03.197,-62.545,384.86,17.85,-0.101748,0.317932,-1.4862039999999999,4
2024-06-14 11:37:03.202,-67.655,386.89,15.260000000000002,-0.079788,0.315492,-1.53964,4
2024-06-14 11:37:03.207,-71.785,388.115,12.635,-0.061487999999999994,0.313296,-1.5994199999999998,4
2024-06-14 11:37:03.212,-75.25,389.05999999999995,9.8,-0.038796,0.30353600000000003,-1.6687159999999999,4
2024-06-14 11:37:03.217,-78.25999999999999,390.495,7.035,-0.013663999999999999,0.297192,-1.7360600000000002,4
2024-06-14 11:37:03.222,-80.99000000000001,391.685,4.795,0.005856,0.288408,-1.8056,4
2024-06-14 11:37:03.226,-83.09,393.61,3.2199999999999998,0.027816,0.281576,-1.874164,4
2024-06-14 11:37:03.231,-84.98,395.71000000000004,2.625,0.047092,0.277672,-1.94102,4
2024-06-14 11:37:03.236,-87.32499999999999,398.125,2.765,0.06075599999999999,0.282796,-1.995432,4
2024-06-14 11:37:03.241,-90.89500000000001,400.015,3.29,0.071736,0.301828,-2.085712,4
2024-06-14 11:37:03.246,-95.725,401.31,3.92,0.094428,0.321104,-2.1835560000000003,4
2024-06-14 11:37:03.251,-100.975,401.59,5.11,0.12688,0.346724,-2.311168,4
2024-06-14 11:37:03.255,-106.61,400.89,7.42,0.169336,0.360632,-2.4565919999999997,4
2024-06-14 11:37:03.260,-111.965,399.84000000000003,11.585,0.229848,0.365024,-2.59738,4
2024-06-14 11:37:03.265,-117.18,398.37,17.675,0.293532,0.356484,-2.724992,4
2024-06-14 11:37:03.270,-122.08,397.18,26.215,0.371612,0.338184,-2.83528,4
2024-06-14 11:37:03.275,-126.84,396.725,36.75,0.4819,0.315492,-2.9199479999999998,4
2024-06-14 11:37:03.280,-131.46,396.44500000000005,48.545,0.61244,0.30109600000000003,-3.0209639999999998,4
2024-06-14 11:37:03.284,-139.475,395.185,59.989999999999995,0.732488,0.280844,-3.167364,4
2024-06-14 11:37:03.289,-149.03,392.98,70.91,0.864004,0.23302,-3.289852,4
2024-06-14 11:37:03.294,-157.255,390.95,82.03999999999999,1.042124,0.16348000000000001,-3.3396280000000003,4
2024-06-14 11:37:03.299,-162.715,389.20000000000005,94.15,1.236104,0.085156,-3.35744,4
2024-06-14 11:37:03.304,-165.9,387.59000000000003,106.12,1.449604,0.006344,-3.384768,4
2024-06-14 11:37:03.309,-166.81,386.05,116.9,1.7028759999999998,-0.066856,-3.368176,4
2024-06-14 11:37:03.313,-165.97,384.65,125.86,1.978596,-0.16104,-3.331088,4
2024-06-14 11:37:03.318,-162.05,382.27,132.685,2.28018,-0.24887999999999996,-3.280824,4
2024-06-14 11:37:03.323,-152.215,378.245,136.885,2.64252,-0.327692,-3.2025,4
2024-06-14 11:37:03.328,-133.035,371.735,137.48000000000002,3.100996,-0.377712,-3.056832,4
2024-06-14 11:37:03.333,-105.245,363.65,133.07,3.6831799999999997,-0.400404,-2.7823320000000002,4
2024-06-14 11:37:03.338,-72.31,351.53999999999996,121.17,4.268536,-0.407968,-2.46562,4
2024-06-14 11:37:03.342,-34.93,333.62,100.31,4.846084,-0.309148,-2.1171879999999996,4
2024-06-14 11:37:03.347,5.915000000000001,306.21500000000003,69.265,5.387032,-0.133224,-1.77144,4
2024-06-14 11:37:03.352,42.455,270.16499999999996,28.735,5.840384,0.058072,-1.4740039999999999,4
2024-06-14 11:37:03.357,69.72,226.1,-18.515,6.1061,0.279136,-1.328824,4
2024-06-14 11:37:03.362,79.73,177.51999999999998,-68.215,6.364496000000001,0.357216,-1.282464,4
2024-06-14 11:37:03.366,61.495000000000005,129.185,-112.10499999999999,6.599711999999999,0.24033999999999997,-1.280756,4
2024-06-14 11:37:03.371,34.23,77.7,-142.52,6.51236,0.202276,-1.347612,4
2024-06-14 11:37:03.376,136.22,-97.72,-133.91,7.654036,-1.7385,-5.570031999999999,4
2024-06-14 11:37:03.381,204.32999999999998,-229.32,-105.14,7.160912,-2.151592,-1.789984,4
2024-06-14 11:37:03.386,299.88,-294.28,-77.875,6.153924,-2.013732,-0.4711639999999999,4
2024-06-14 11:37:03.391,402.85,-377.79,-55.825,5.058852,-0.7298039999999999,-0.716872,4
2024-06-14 11:37:03.395,458.85,-365.995,-46.725,1.274168,-0.12956399999999998,-1.33712,4
2024-06-14 11:37:03.400,476.84000000000003,-366.20500000000004,-18.795,0.6836880000000001,0.35013999999999995,-1.7097079999999998,4
2024-06-14 11:37:03.405,270.13,-327.215,10.290000000000001,0.006344000000000002,-0.7415160000000001,-3.126372,4
2024-06-14 11:37:03.410,153.01999999999998,-323.47,54.775,-0.418704,0.193004,-2.556388,4
2024-06-14 11:37:03.415,88.27,-344.75,84.14,-0.9657519999999999,0.22350399999999998,-1.930528,4
2024-06-14 11:37:03.420,115.815,-365.365,109.47999999999999,-0.38917999999999997,0.105652,-2.724016,0
