time,gyroscope_x,gyroscope_y,gyroscope_z,accelerometer_x,accelerometer_y,accelerometer_z,phase
2024-06-14 11:55:59.308,352.485,-100.45,-6.930000000000001,-2.643008,-1.329556,-6.976448,1
2024-06-14 11:55:59.313,261.87,-125.72,4.305,-3.8278719999999997,1.414224,3.69904,1
2024-06-14 11:55:59.318,379.08500000000004,-213.39499999999998,-5.5649999999999995,-2.550776,0.127368,0.2566880000000001,1
2024-06-14 11:55:59.322,374.22,-266.595,4.795,-1.525976,-0.188612,-1.346392,1
2024-06-14 11:55:59.327,340.62,-333.06,24.395000000000003,-0.700036,-0.046604,-0.800808,1
2024-06-14 11:55:59.332,290.22,-377.78999999999996,41.615,0.204228,-0.4218759999999999,-1.697996,1
2024-06-14 11:55:59.337,175.98000000000002,-390.04,65.94,0.47702,-0.629276,-1.841956,1
2024-06-14 11:55:59.342,71.25999999999999,-379.4,96.635,0.6846639999999999,-0.359412,-1.8829479999999998,1
2024-06-14 11:55:59.347,-29.365,-339.99,127.29499999999999,0.608048,-0.144448,-2.196488,1
2024-06-14 11:55:59.351,-93.17,-282.16999999999996,148.75,0.563396,-0.18226799999999999,-2.2765199999999997,1
2024-06-14 11:55:59.356,-115.88499999999999,-237.16,146.825,0.378932,-0.5206959999999999,-2.165744,1
2024-06-14 11:55:59.361,-100.31,-211.75,118.965,0.101992,-0.82594,-1.8648919999999998,1
2024-06-14 11:55:59.366,-70.07,-207.13,77.805,-0.054655999999999996,-1.004548,-1.5676999999999999,1
2024-06-14 11:55:59.371,-46.795,-209.51,32.34,-0.108824,-1.101172,-1.362496,1
2024-06-14 11:55:59.377,-37.905,-209.57999999999998,-12.88,-0.12688,-1.036512,-1.299544,1
2024-06-14 11:55:59.381,-35.665,-203.805,-51.17,-0.072224,-0.68808,-1.297348,1
2024-06-14 11:55:59.386,-34.16,-189.84,-71.925,-0.033428,-0.16860399999999998,-1.396412,1
2024-06-14 11:55:59.391,-36.19,-171.43,-70.45500000000001,-0.012199999999999999,0.33062,-1.6667640000000001,1
2024-06-14 11:55:59.396,-37.1,-143.57,-50.084999999999994,0.044896,0.646844,-1.5701399999999999,1
2024-06-14 11:55:59.401,-37.17,-120.64500000000001,-21.245,0.054900000000000004,0.663924,-1.667984,1
2024-06-14 11:55:59.405,-33.32,-99.53999999999999,5.39,0.06953999999999999,0.533628,-1.4818120000000001,1
2024-06-14 11:55:59.410,-22.75,-87.185,22.645,0.111264,0.2867,-1.431304,1
2024-06-14 11:55:59.415,-12.915,-71.92500000000001,23.975,0.09418399999999999,-0.05246,-1.404952,1
2024-06-14 11:55:59.420,-8.015,-53.375,13.125,0.10931199999999999,-0.15006,-1.312964,1
2024-06-14 11:55:59.425,-14.315,-7.175,1.085,0.13541999999999998,-0.057583999999999996,-1.235372,1
2024-06-14 11:55:59.430,-19.915,-2.2749999999999995,-2.415,0.165432,-0.011467999999999999,-1.201944,2
2024-06-14 11:55:59.434,-17.29,2.2049999999999996,-0.06999999999999999,0.06734399999999999,0.037576,-1.1746159999999999,2
2024-06-14 11:55:59.439,-9.59,1.8199999999999998,2.205,-0.059292,0.031476,-1.1241079999999999,2
2024-06-14 11:55:59.444,-10.325,-1.365,2.205,-0.12444,0.025863999999999998,-1.03578,2
2024-06-14 11:55:59.449,-5.494999999999999,0.6300000000000001,1.155,-0.102236,0.015616000000000001,-1.011624,2
2024-06-14 11:55:59.454,-6.72,1.6800000000000002,-0.035,-0.055144,0.008296,-1.0470039999999998,2
2024-06-14 11:55:59.458,-1.82,0.7350000000000001,-0.245,-0.054655999999999996,-0.008296,-1.0814080000000001,2
2024-06-14 11:55:59.463,-1.8199999999999998,-1.82,-0.21000000000000002,-0.077348,-0.013663999999999999,-1.073844,2
2024-06-14 11:55:59.468,-1.155,-4.76,-0.42000000000000004,-0.099552,0.0029280000000000005,-1.0496879999999997,2
2024-06-14 11:55:59.473,-1.225,-8.19,-0.56,-0.112484,0.0183,-1.0506639999999998,2
2024-06-14 11:55:59.478,0.07,-10.745000000000001,-0.805,-0.09784399999999999,0.017079999999999998,-1.0606679999999997,2
2024-06-14 11:55:59.483,2.135,-13.93,-0.805,-0.09759999999999999,0.011956,-1.0592039999999998,2
2024-06-14 11:55:59.487,1.82,-15.925,-1.225,-0.093696,-0.0034160000000000006,-1.047736,2
2024-06-14 11:55:59.492,0.35000000000000003,-16.975,-1.4,-0.092476,-0.009516,-1.041636,2
2024-06-14 11:55:59.497,-1.7149999999999999,-18.759999999999998,-1.26,-0.09638,-0.005856,-1.0494439999999998,2
2024-06-14 11:55:59.502,-2.38,-20.195,-1.295,-0.096868,0.0034159999999999998,-1.0543239999999998,2
2024-06-14 11:55:59.507,-3.01,-23.1,-1.47,-0.099796,0.006344,-1.051396,2
2024-06-14 11:55:59.511,-2.415,-25.55,-1.4,-0.09808800000000001,0.012444,-1.046272,2
2024-06-14 11:55:59.516,-2.1350000000000002,-27.79,-1.6099999999999999,-0.08979200000000001,0.012199999999999999,-1.03944,2
2024-06-14 11:55:59.521,-1.505,-29.295,-1.645,-0.08491199999999999,0.00732,-1.03822,2
2024-06-14 11:55:59.526,-1.435,-30.415,-1.9249999999999998,-0.080276,0.00732,-1.037,2
2024-06-14 11:55:59.531,-1.54,-30.03,-2.065,-0.08295999999999999,0.006343999999999999,-1.03578,2
2024-06-14 11:55:59.536,-1.47,-34.019999999999996,-1.8199999999999998,-0.08003199999999999,0.0034159999999999998,-1.034072,2
2024-06-14 11:55:59.540,-1.155,-36.575,-1.645,-0.08003199999999999,0.004148,-1.0365119999999999,2
2024-06-14 11:55:59.545,-0.385,-38.43,-1.435,-0.072712,0.008539999999999999,-1.02968,2
2024-06-14 11:55:59.550,-0.28,-39.655,-1.4,-0.066368,0.010735999999999999,-1.033828,2
2024-06-14 11:55:59.555,0.49,-39.06,-1.19,-0.06368399999999999,0.010736,-1.0309,2
2024-06-14 11:55:59.560,1.4,-39.305,-1.12,-0.06856399999999999,0.012444,-1.031144,2
2024-06-14 11:55:59.564,2.555,-39.69,-1.225,-0.062708,0.023424,-1.0287039999999998,2
2024-06-14 11:55:59.569,4.095000000000001,-39.06,-1.435,-0.061,0.024888,-1.0248,2
2024-06-14 11:55:59.574,6.02,-39.76,-1.645,-0.05124,0.035136,-1.027972,2
2024-06-14 11:55:59.579,7.9799999999999995,-39.655,-1.68,-0.048799999999999996,0.025376,-1.02602,2
2024-06-14 11:55:59.584,9.1,-43.085,-1.19,-0.044896,0.019032,-1.024556,2
2024-06-14 11:55:59.589,10.780000000000001,-38.71,-1.19,-0.031964,0.010003999999999999,-1.0250439999999998,2
2024-06-14 11:55:59.593,11.165,-37.625,-1.0499999999999998,-0.022203999999999998,0.010736,-1.0194320000000001,2
2024-06-14 11:55:59.598,9.030000000000001,-35.980000000000004,-0.98,-0.030987999999999998,0.008784,-1.0250439999999998,2
2024-06-14 11:55:59.603,7.244999999999999,-27.545,-1.225,-0.02562,0.004636,-1.023336,2
2024-06-14 11:55:59.608,6.4399999999999995,-25.935000000000002,-1.33,-0.026840000000000003,0.008784,-1.0213839999999998,2
2024-06-14 11:55:59.613,5.529999999999999,-24.009999999999998,-1.505,-0.020007999999999998,0.005124,-1.0218720000000001,2
2024-06-14 11:55:59.617,4.34,-23.415,-1.47,-0.01586,0.00244,-1.0243120000000001,2
2024-06-14 11:55:59.622,4.234999999999999,-3.150000000000002,0.4900000000000001,-0.01586,-0.010004,-1.0252880000000002,2
2024-06-14 11:55:59.627,13.65,-88.62,-2.52,-0.01952,-0.0053679999999999995,-1.037976,2
2024-06-14 11:55:59.632,-1.085,-17.674999999999997,-1.505,-0.014884,0.0007320000000000002,-1.031632,2
2024-06-14 11:55:59.637,-1.9600000000000002,-6.509999999999998,-0.03500000000000014,-0.01464,0.004392,-1.0457839999999998,2
2024-06-14 11:55:59.642,-3.815,-11.829999999999998,0.5949999999999998,-0.009271999999999999,-0.0012200000000000002,-1.051152,2
2024-06-14 11:55:59.646,-4.445,-14.734999999999996,0.3500000000000001,-0.014884,0.014396,-1.0438319999999999,2
2024-06-14 11:55:59.651,-0.38500000000000023,-18.585,-2.7649999999999997,-0.024644,0.022448000000000003,-1.067012,2
2024-06-14 11:55:59.656,-9.03,-19.355,-1.9249999999999998,-0.02684,0.018788,-1.087996,2
2024-06-14 11:55:59.661,-17.885,-21.455000000000002,-3.815,-0.019520000000000003,0.020495999999999997,-1.1016599999999999,2
2024-06-14 11:55:59.666,-18.375,-25.970000000000002,-4.48,-0.023424,-0.035136,-1.127036,2
2024-06-14 11:55:59.670,-18.305,-29.89,-4.795,-0.01586,0.009515999999999998,-1.064816,2
2024-06-14 11:55:59.675,-14.350000000000001,-31.675000000000004,-4.515,0.003172000000000001,0.01952,-0.979416,2
2024-06-14 11:55:59.680,-6.09,-37.66,-3.71,-0.006344,-0.022448,-1.071892,2
2024-06-14 11:55:59.685,-4.445,-39.235,-3.255,-0.001952,-0.0007320000000000004,-1.0521280000000002,2
2024-06-14 11:55:59.690,-4.13,-40.495000000000005,-3.675,0.000732,0.0046359999999999995,-1.05286,2
2024-06-14 11:55:59.695,-4.48,-41.65,-3.465,0.007808,-0.012932,-1.06628,2
2024-06-14 11:55:59.699,0.595,-42.455,-2.38,0.010492,-0.0019520000000000002,-1.059936,2
2024-06-14 11:55:59.704,1.05,-41.195,-2.73,0.018544,-0.005124,-1.074332,3
2024-06-14 11:55:59.709,-2.0999999999999996,-41.405,-2.135,-0.011224,0.023668,-1.125572,3
2024-06-14 11:55:59.714,-13.125,-39.095,-2.835,0.01098,0.004148,-1.1004399999999999,3
2024-06-14 11:55:59.719,-14.315000000000001,-39.620000000000005,-2.8,0.01098,0.010248,-1.1033680000000001,3
2024-06-14 11:55:59.723,-14.175,-41.79,-2.835,0.005612,0.014152,-1.136552,3
2024-06-14 11:55:59.728,-15.785,-43.47,-3.1500000000000004,0.009271999999999999,0.023912,-1.107516,3
2024-06-14 11:55:59.733,-15.4,-45.745000000000005,-3.3600000000000003,0.014395999999999999,0.01952,-1.123376,3
2024-06-14 11:55:59.738,-15.61,-47.985,-3.5700000000000003,0.017568,0.036356,-1.118496,3
2024-06-14 11:55:59.743,-15.504999999999999,-50.33,-4.025,0.020983999999999996,0.041724,-1.111176,3
2024-06-14 11:55:59.748,-15.19,-52.465,-4.55,0.030987999999999998,0.034648,-1.0982439999999998,3
2024-06-14 11:55:59.752,-14.805,-54.144999999999996,-4.795,0.040015999999999996,0.027816,-1.0911680000000001,3
2024-06-14 11:55:59.757,-14.629999999999999,-55.334999999999994,-4.9,0.050019999999999995,0.02562,-1.080676,3
2024-06-14 11:55:59.762,-14.594999999999999,-55.754999999999995,-4.725,0.053436,0.015372,-1.091656,3
2024-06-14 11:55:59.767,-14.42,-57.26,-4.41,0.052947999999999995,0.019276,-1.1287439999999997,3
2024-06-14 11:55:59.772,-14.175,-59.78,-4.375,0.036356,0.02684,-1.154852,3
2024-06-14 11:55:59.777,-14.420000000000002,-65.485,-4.2,0.037576,0.051728,-1.221464,3
2024-06-14 11:55:59.781,-13.895,-70.525,-4.9350000000000005,0.023912,0.061976,-1.236348,3
2024-06-14 11:55:59.786,-14.77,-75.845,-5.25,0.026108,0.02196,-1.2566000000000002,3
2024-06-14 11:55:59.791,-13.754999999999999,-81.515,-4.9,0.029524,0.021228,-1.280512,3
2024-06-14 11:55:59.796,-15.68,-87.28999999999999,-4.9,0.033428,0.018788,-1.315404,3
2024-06-14 11:55:59.801,-18.305,-94.255,-4.76,0.030988,-0.013663999999999999,-1.357128,3
2024-06-14 11:55:59.805,-19.284999999999997,-102.55000000000001,-3.6399999999999997,0.020496,-0.009028,-1.3908,3
2024-06-14 11:55:59.810,-21.0,-112.875,-3.22,0.013663999999999999,0.005612,-1.44326,3
2024-06-14 11:55:59.815,-23.1,-123.69,-3.15,0.009028000000000001,0.029036,-1.466196,3
2024-06-14 11:55:59.820,-24.009999999999998,-135.24,-3.71,0.007808,0.040260000000000004,-1.505236,3
2024-06-14 11:55:59.825,-25.340000000000003,-147.28,-4.164999999999999,-0.0026839999999999998,0.031964,-1.515972,3
2024-06-14 11:55:59.830,-25.305,-160.755,-4.41,-0.012688,0.029524,-1.5777039999999998,3
2024-06-14 11:55:59.834,-25.655,-174.265,-4.6899999999999995,-0.013908,0.036844,-1.578192,3
2024-06-14 11:55:59.839,-26.46,-187.425,-5.425,-0.017811999999999998,0.057095999999999994,-1.5713599999999999,3
2024-06-14 11:55:59.844,-25.935000000000002,-201.74,-6.58,-0.025376,0.069052,-1.6045439999999997,3
2024-06-14 11:55:59.849,-24.78,-216.615,-7.49,-0.035868,0.072956,-1.641388,3
2024-06-14 11:55:59.854,-22.435000000000002,-232.225,-8.469999999999999,-0.050019999999999995,0.093696,-1.684332,3
2024-06-14 11:55:59.858,-22.61,-247.625,-9.555,-0.052216,0.049532,-1.7526519999999999,3
2024-06-14 11:55:59.863,-22.575,-265.475,-10.045,-0.077592,0.02318,-1.859524,3
2024-06-14 11:55:59.868,-21.28,-285.04,-10.115,-0.09711199999999999,0.05124,-1.936872,3
2024-06-14 11:55:59.873,-18.27,-306.18,-11.27,-0.127368,0.152012,-2.021052,3
2024-06-14 11:55:59.878,-14.245000000000001,-328.405,-14.805,-0.183976,0.274988,-2.067656,3
2024-06-14 11:55:59.883,-8.995000000000001,-351.015,-20.055,-0.188612,0.34404,-2.1532999999999998,3
2024-06-14 11:55:59.887,-2.4499999999999997,-373.765,-25.585,-0.178364,0.373564,-2.264808,3
2024-06-14 11:55:59.892,4.06,-397.46,-30.625,-0.151036,0.317688,-2.43634,3
2024-06-14 11:55:59.897,11.795,-420.525,-33.075,-0.029768,0.21838,-2.6049439999999997,3
2024-06-14 11:55:59.902,17.92,-442.71500000000003,-32.9,0.065148,0.209596,-2.9265359999999996,3
2024-06-14 11:55:59.907,18.655,-460.355,-33.39,0.156404,0.180804,-3.181272,3
2024-06-14 11:55:59.911,24.605,-480.9,-32.305,0.22765199999999997,0.20910800000000002,-3.475048,3
2024-06-14 11:55:59.916,27.265,-490.98,-29.33,0.31768799999999997,0.374052,-3.6951359999999998,3
2024-06-14 11:55:59.921,21.07,-494.375,-31.955,0.479948,0.494344,-3.7802919999999998,3
2024-06-14 11:55:59.925,14.21,-500.46500000000003,-34.3,0.517768,0.45945199999999997,-3.71612,3
2024-06-14 11:55:59.930,7.245000000000001,-508.725,-36.155,0.447252,0.470432,-3.658292,3
2024-06-14 11:55:59.935,0.525,-508.725,-41.405,0.22228399999999998,0.420656,-3.576796,3
2024-06-14 11:55:59.939,-0.735,-492.03,-45.815,0.262788,0.28816400000000003,-3.728808,3
2024-06-14 11:55:59.944,10.08,-486.815,-47.285,-0.089792,0.243756,-3.6321839999999996,3
2024-06-14 11:55:59.949,23.625,-472.185,-47.075,-0.460916,0.24204799999999999,-3.54166,3
2024-06-14 11:55:59.954,38.045,-455.875,-47.425,-1.083604,0.33916,-3.3740319999999997,4
2024-06-14 11:55:59.959,47.39,-432.46000000000004,-48.510000000000005,-1.484496,0.437492,-3.1183199999999998,4
2024-06-14 11:55:59.964,49.980000000000004,-416.675,-55.019999999999996,-1.891976,0.569008,-2.7896520000000002,4
2024-06-14 11:55:59.968,52.57,-409.57000000000005,-61.915000000000006,-2.263344,0.570472,-2.272372,4
2024-06-14 11:55:59.973,56.035,-416.15,-72.87,-2.578836,0.5489999999999999,-1.901492,4
2024-06-14 11:55:59.978,55.16,-433.23,-91.63,-2.7874559999999997,0.5302119999999999,-0.88816,4
2024-06-14 11:55:59.983,64.33,-450.52,-110.03999999999999,-1.788764,0.755668,0.803736,4
2024-06-14 11:55:59.988,57.435,-432.425,-125.22999999999999,-1.11386,0.914512,0.03782000000000002,4
2024-06-14 11:55:59.993,-0.1750000000000007,-313.80999999999995,-141.575,-1.3219919999999998,0.853512,-2.221132,4
2024-06-14 11:55:59.997,-46.935,-190.61,-151.305,-1.763876,0.9372039999999999,-2.400228,4
2024-06-14 11:56:00.002,-61.285,-70.385,-142.41500000000002,-2.3118999999999996,0.403088,-1.4088559999999999,4
2024-06-14 11:56:00.007,-59.08,42.21,-119.42,-2.486604,-0.10174799999999999,-0.914268,4
2024-06-14 11:56:00.012,-36.504999999999995,135.59,-93.485,-2.323124,-0.13663999999999998,-1.1370399999999998,4
2024-06-14 11:56:00.017,0.9799999999999995,201.215,-69.755,-1.942728,-0.094184,-1.275876,4
2024-06-14 11:56:00.021,35.0,242.375,-47.74,-1.619428,-0.091012,-1.1941359999999999,4
2024-06-14 11:56:00.026,61.81,264.635,-28.735,-1.478884,-0.06002400000000001,-1.0943399999999999,4
2024-06-14 11:56:00.031,81.655,275.45,-14.665,-1.437892,0.027572,-0.9574559999999999,4
2024-06-14 11:56:00.036,94.815,278.355,-5.984999999999999,-1.3646919999999998,0.1281,-0.8144720000000001,4
2024-06-14 11:56:00.041,96.70500000000001,277.865,-2.24,-1.27734,0.24912399999999998,-0.687592,4
2024-06-14 11:56:00.046,88.515,276.95500000000004,-2.205,-1.17364,0.355996,-0.630496,4
2024-06-14 11:56:00.050,71.68,276.32500000000005,-5.18,-1.0833599999999999,0.435784,-0.6038999999999999,4
2024-06-14 11:56:00.055,49.245,276.5,-10.184999999999999,-1.0157720000000001,0.482632,-0.5721799999999999,4
2024-06-14 11:56:00.060,24.92,277.06,-16.03,-0.959652,0.478728,-0.5529040000000001,4
2024-06-14 11:56:00.065,1.5750000000000002,278.775,-21.455,-0.89426,0.44895999999999997,-0.550708,4
2024-06-14 11:56:00.070,-17.885,281.4,-25.515,-0.83448,0.38674,-0.55754,4
2024-06-14 11:56:00.075,-31.674999999999997,284.725,-27.509999999999998,-0.773236,0.299388,-0.5978000000000001,4
2024-06-14 11:56:00.079,-39.305,288.68,-27.335,-0.731268,0.21350000000000002,-0.602436,4
2024-06-14 11:56:00.084,-41.894999999999996,293.54499999999996,-25.2,-0.6805159999999999,0.134932,-0.634644,4
2024-06-14 11:56:00.089,-40.005,298.69,-21.244999999999997,-0.637816,0.074176,-0.670512,4
2024-06-14 11:56:00.094,-35.455,304.15,-15.995,-0.601216,0.029768000000000003,-0.704428,4
2024-06-14 11:56:00.099,-29.33,310.31,-10.325,-0.572668,0.011224,-0.73566,4
2024-06-14 11:56:00.104,-23.555,316.89,-4.865,-0.543388,0.010004,-0.778848,4
2024-06-14 11:56:00.108,-19.11,323.47,-0.35000000000000003,-0.515084,0.033184,-0.8239879999999999,4
2024-06-14 11:56:00.113,-16.975,330.26,3.045,-0.494832,0.058072,-0.878644,4
2024-06-14 11:56:00.118,-17.5,337.78499999999997,5.285,-0.479216,0.08759600000000001,-0.9237839999999999,4
2024-06-14 11:56:00.123,-19.74,345.765,6.405,-0.4697,0.108092,-0.958432,4
2024-06-14 11:56:00.128,-23.625,354.515,6.475,-0.46042799999999995,0.12346399999999999,-1.0084520000000001,4
2024-06-14 11:56:00.133,-28.560000000000002,362.95000000000005,5.845,-0.457256,0.128832,-1.068476,4
2024-06-14 11:56:00.137,-33.53,371.315,5.32,-0.4514,0.11712,-1.136796,4
2024-06-14 11:56:00.142,-37.555,379.19,5.109999999999999,-0.44700799999999996,0.096868,-1.189988,4
2024-06-14 11:56:00.147,-40.879999999999995,386.96000000000004,5.390000000000001,-0.441396,0.084668,-1.253672,4
2024-06-14 11:56:00.152,-43.435,393.995,5.845,-0.438224,0.072956,-1.324188,4
2024-06-14 11:56:00.157,-44.66,400.57500000000005,6.545,-0.42358399999999996,0.05245999999999999,-1.394704,4
2024-06-14 11:56:00.161,-44.695,406.41999999999996,7.525,-0.41138399999999997,0.0427,-1.462536,4
2024-06-14 11:56:00.166,-43.925,411.845,8.504999999999999,-0.39283999999999997,0.034892,-1.53354,4
2024-06-14 11:56:00.171,-42.629999999999995,416.885,9.379999999999999,-0.37942,0.040748000000000006,-1.5957599999999998,4
2024-06-14 11:56:00.176,-41.37,421.04999999999995,9.94,-0.36209600000000003,0.045384,-1.669448,4
2024-06-14 11:56:00.181,-41.265,424.095,10.185,-0.33989199999999997,0.065148,-1.747528,4
2024-06-14 11:56:00.186,-42.455,425.845,9.905,-0.307196,0.07808,-1.822924,4
2024-06-14 11:56:00.190,-45.43000000000001,425.915,9.205,-0.25790799999999997,0.09028,-1.891,4
2024-06-14 11:56:00.195,-50.61,423.71000000000004,7.945,-0.18592799999999998,0.101748,-1.973716,4
2024-06-14 11:56:00.200,-57.89,418.28499999999997,6.195,-0.111264,0.132492,-2.087176,4
2024-06-14 11:56:00.205,-66.57,409.185,3.92,-0.02318,0.154696,-2.232112,4
2024-06-14 11:56:00.210,-75.74000000000001,396.655,1.575,0.0732,0.14444800000000002,-2.3563080000000003,4
2024-06-14 11:56:00.215,-84.84,381.465,-0.35000000000000003,0.185196,0.13298,-2.490508,4
2024-06-14 11:56:00.219,-90.965,362.95000000000005,-0.665,0.30987999999999993,0.13298,-2.6513039999999997,4
2024-06-14 11:56:00.224,-91.56,341.845,1.33,0.41967999999999994,0.12736799999999998,-2.8457719999999997,4
2024-06-14 11:56:00.229,-87.675,320.88,5.53,0.5094719999999999,0.102968,-3.04268,4
2024-06-14 11:56:00.234,-79.72999999999999,303.695,12.844999999999999,0.620492,0.07612799999999999,-3.176148,4
2024-06-14 11:56:00.239,-67.515,291.655,24.045,0.735416,0.065148,-3.243004,4
2024-06-14 11:56:00.244,-52.57,285.005,38.29,0.8649800000000001,0.099552,-3.3293799999999996,4
2024-06-14 11:56:00.248,-39.269999999999996,282.345,53.76,1.0216279999999998,0.18007199999999998,-3.430152,4
2024-06-14 11:56:00.253,-32.375,284.27,68.53,1.220732,0.286456,-3.469436,4
2024-06-14 11:56:00.258,-33.739999999999995,291.62,81.19999999999999,1.424472,0.382836,-3.476756,4
2024-06-14 11:56:00.263,-41.370000000000005,304.46500000000003,91.28,1.616256,0.459208,-3.440156,4
2024-06-14 11:56:00.268,-52.955,319.655,99.505,1.811944,0.511668,-3.4164879999999997,4
2024-06-14 11:56:00.273,-65.1,335.82500000000005,106.295,2.0025079999999997,0.5441199999999999,-3.3386519999999997,4
2024-06-14 11:56:00.277,-75.355,350.49,111.09,2.172576,0.571448,-3.2098199999999997,4
2024-06-14 11:56:00.282,-85.82,362.28499999999997,112.805,2.342644,0.58682,-3.033164,4
2024-06-14 11:56:00.287,-97.86,369.565,111.54499999999999,2.5005119999999996,0.5953600000000001,-2.829424,4
2024-06-14 11:56:00.292,-110.355,370.44,107.59,2.640324,0.585356,-2.638128,4
2024-06-14 11:56:00.297,-123.41,363.195,100.24000000000001,2.761348,0.550952,-2.49002,4
2024-06-14 11:56:00.302,-138.635,350.315,88.41,2.9443479999999997,0.47458,-2.349964,4
2024-06-14 11:56:00.306,-153.685,332.91999999999996,72.1,3.1805399999999997,0.33428,-2.326784,4
2024-06-14 11:56:00.311,-164.29000000000002,312.48,53.480000000000004,3.394528,0.140544,-2.206004,4
2024-06-14 11:56:00.316,-164.01,288.05,34.545,3.604612,-0.061,-2.078392,4
2024-06-14 11:56:00.321,-150.22,261.65999999999997,15.47,3.8676440000000003,-0.19276,-1.9576120000000001,4
2024-06-14 11:56:00.326,-127.015,235.02499999999998,-4.13,4.165568,-0.30988,-1.7809560000000002,4
2024-06-14 11:56:00.330,-103.03999999999999,207.69,-24.605,4.381752,-0.408944,-1.592832,4
2024-06-14 11:56:00.335,-82.775,178.5,-45.08,4.518879999999999,-0.492148,-1.447652,4
2024-06-14 11:56:00.340,-67.83,145.70499999999998,-65.03,4.627216000000001,-0.587796,-1.3786,4
2024-06-14 11:56:00.345,-54.95,108.43,-82.075,4.652348,-0.71492,-1.376892,4
2024-06-14 11:56:00.350,-37.31,66.64,-93.87,4.577928,-0.8234999999999999,-1.355664,4
2024-06-14 11:56:00.355,-12.844999999999999,23.1,-100.555,4.409079999999999,-0.8918200000000001,-1.340048,4
2024-06-14 11:56:00.359,18.060000000000002,-19.67,-103.565,4.182892,-0.87962,-1.347856,4
2024-06-14 11:56:00.364,53.41,-59.465,-104.22999999999999,3.91254,-0.774944,-1.412516,4
2024-06-14 11:56:00.369,41.16,-258.15999999999997,-75.18,2.186484,-2.09352,-4.3236799999999995,4
