time,gyroscope_x,gyroscope_y,gyroscope_z,accelerometer_x,accelerometer_y,accelerometer_z,phase
2024-06-14 11:55:59.811,-376.775,-63.35,-85.61,-2.618852,-1.2200000000000002,6.061692000000001,1
2024-06-14 11:55:59.815,-557.8299999999999,-294.21000000000004,-30.590000000000003,-0.689544,-0.42163199999999995,0.31232000000000004,1
2024-06-14 11:55:59.820,-522.55,-134.54,-62.16,-1.3542,0.7049159999999999,-2.001776,1
2024-06-14 11:55:59.825,-404.95000000000005,-176.295,-94.815,-1.044076,0.64294,-1.41642,1
2024-06-14 11:55:59.830,-289.555,-307.23,-120.155,0.009028,0.8886479999999999,-1.730204,1
2024-06-14 11:55:59.835,-126.91,-337.05,-146.65,0.427244,0.9110959999999999,-1.80926,1
2024-06-14 11:55:59.840,-21.349999999999998,-322.245,-170.8,0.9428159999999999,0.7503,-2.1654999999999998,1
2024-06-14 11:55:59.844,52.92,-301.66499999999996,-177.31,0.6246400000000001,0.699792,-2.343376,1
2024-06-14 11:55:59.849,86.87,-278.915,-163.695,0.281332,0.9325680000000001,-2.381684,1
2024-06-14 11:55:59.854,79.1,-259.245,-129.71,0.0366,1.217072,-2.155496,1
2024-06-14 11:55:59.859,72.345,-250.14499999999998,-79.975,0.011467999999999997,1.473516,-2.024224,1
2024-06-14 11:55:59.864,64.82,-246.61,-23.240000000000002,0.125416,1.317844,-1.901492,1
2024-06-14 11:55:59.869,56.49,-240.485,29.925000000000004,0.136396,0.9367159999999999,-1.803648,1
2024-06-14 11:55:59.876,52.78,-222.74,64.68,0.07686000000000001,0.369416,-1.7131239999999999,1
2024-06-14 11:55:59.880,46.2,-193.48000000000002,69.685,0.037332000000000004,-0.304756,-1.7592400000000001,1
2024-06-14 11:55:59.885,41.16,-154.45499999999998,46.795,0.052947999999999995,-0.721508,-1.667252,1
2024-06-14 11:55:59.890,34.474999999999994,-121.87,10.5,0.08735200000000001,-0.77226,-1.546472,1
2024-06-14 11:55:59.895,19.04,-88.445,-23.66,0.100772,-0.62464,-1.536956,1
2024-06-14 11:55:59.900,6.825,-63.665,-43.295,0.06783199999999999,-0.250832,-1.4405759999999999,1
2024-06-14 11:55:59.904,0.28000000000000025,-26.18,-41.894999999999996,0.131516,0.101748,-1.3127199999999999,1
2024-06-14 11:55:59.909,3.1500000000000004,-11.445,-25.549999999999997,0.033184,0.179828,-1.219756,1
2024-06-14 11:55:59.914,3.08,-5.915,-13.93,0.073932,0.127612,-1.198528,1
2024-06-14 11:55:59.919,5.18,-3.57,-10.465,0.054655999999999996,0.05002000000000001,-1.180472,2
2024-06-14 11:55:59.924,7.5600000000000005,-1.855,-11.024999999999999,0.016836,-0.020496,-1.152412,2
2024-06-14 11:55:59.929,6.3,-6.825,-12.425,-0.05612,-0.038307999999999995,-1.1031239999999998,2
2024-06-14 11:55:59.933,3.955,-7.49,-11.059999999999999,-0.082472,0.035868000000000004,-1.0618879999999997,2
2024-06-14 11:55:59.938,2.59,-6.195,-6.16,-0.062464000000000006,0.05709600000000001,-1.055788,2
2024-06-14 11:55:59.943,0.5249999999999999,-6.93,-2.59,-0.041724,0.049776,-1.07604,2
2024-06-14 11:55:59.948,1.96,-9.765,-1.365,-0.0732,0.05538799999999999,-1.072136,2
2024-06-14 11:55:59.953,4.235,-13.895,-1.7149999999999999,-0.108336,0.022204,-1.061644,2
2024-06-14 11:55:59.958,4.655,-16.799999999999997,-1.9949999999999999,-0.10589599999999999,-0.015127999999999999,-1.032852,2
2024-06-14 11:55:59.962,3.5,-20.65,-1.54,-0.080764,-0.012199999999999999,-1.0421239999999998,2
2024-06-14 11:55:59.967,1.7149999999999999,-21.455,-0.98,-0.090524,-0.006343999999999999,-1.048712,2
2024-06-14 11:55:59.972,1.015,-23.1,-0.7,-0.08784,0.0060999999999999995,-1.0445639999999998,2
2024-06-14 11:55:59.977,0.595,-23.520000000000003,-0.77,-0.08710799999999999,0.008539999999999999,-1.0457839999999998,2
2024-06-14 11:55:59.982,0.665,-23.765,-0.77,-0.084668,0.020252,-1.049444,2
2024-06-14 11:55:59.987,1.155,-24.255,-0.8049999999999999,-0.07686,0.008052,-1.052128,2
2024-06-14 11:55:59.991,1.435,-25.865,-1.085,-0.0915,0.020984000000000003,-1.060668,2
2024-06-14 11:55:59.996,1.785,-27.369999999999997,-1.225,-0.098088,0.010735999999999999,-1.054568,2
2024-06-14 11:56:00.001,1.82,-29.225,-1.19,-0.091744,0.008052,-1.05042,2
2024-06-14 11:56:00.006,1.785,-30.939999999999998,-1.26,-0.09101200000000001,0.003172,-1.0431,2
2024-06-14 11:56:00.011,1.155,-32.69,-1.085,-0.088328,-0.000732,-1.0362679999999997,2
2024-06-14 11:56:00.016,0.63,-34.16,-1.0150000000000001,-0.077836,-0.000732,-1.0287039999999998,2
2024-06-14 11:56:00.020,0.17500000000000002,-35.245000000000005,-1.12,-0.080276,-0.0014639999999999996,-1.028216,2
2024-06-14 11:56:00.025,-0.315,-36.224999999999994,-1.155,-0.071004,0.00048800000000000004,-1.027484,2
2024-06-14 11:56:00.030,-0.385,-37.065,-1.225,-0.07075999999999999,0.003172,-1.02602,2
2024-06-14 11:56:00.035,-0.49,-38.36,-1.26,-0.065636,0.005612,-1.0309,2
2024-06-14 11:56:00.040,-0.42,-38.99,-1.33,-0.062708,0.002196,-1.023336,2
2024-06-14 11:56:00.044,-0.875,-38.57,-1.505,-0.061,0.004392,-1.0213839999999998,2
2024-06-14 11:56:00.049,-1.05,-38.605000000000004,-1.365,-0.061,0.0007319999999999996,-1.022116,2
2024-06-14 11:56:00.054,-2.38,-43.224999999999994,-1.33,-0.06417199999999999,-0.004148,-1.0213839999999998,2
2024-06-14 11:56:00.059,-2.66,-39.515,-0.9450000000000001,-0.057583999999999996,-0.011224,-1.0206520000000001,2
2024-06-14 11:56:00.064,-2.31,-29.61,-0.42,-0.051972000000000004,-0.011224,-1.019432,2
2024-06-14 11:56:00.069,-7.42,-47.495000000000005,0.105,-0.041236,-0.013663999999999999,-1.0140639999999999,2
2024-06-14 11:56:00.073,-7.105,-37.625,0.24500000000000002,-0.038064,-0.009272,-1.013088,2
2024-06-14 11:56:00.078,-7.49,-37.065,0.8049999999999999,-0.036112000000000005,-0.0039040000000000004,-1.0133320000000001,2
2024-06-14 11:56:00.083,-8.329999999999998,-35.595,0.91,-0.027327999999999998,0.0,-1.0128439999999999,2
2024-06-14 11:56:00.088,-8.995000000000001,-33.495000000000005,0.98,-0.025376,0.003172,-1.014552,2
2024-06-14 11:56:00.093,-8.89,-33.355000000000004,0.91,-0.025863999999999998,0.0029279999999999996,-1.0187,2
2024-06-14 11:56:00.098,-9.030000000000001,-31.255000000000003,1.155,-0.026108,0.012931999999999999,-1.02114,2
2024-06-14 11:56:00.102,-7.945,-29.47,1.435,-0.019520000000000003,0.020496,-1.021628,2
2024-06-14 11:56:00.107,-7.035,-29.61,1.505,-0.014152,0.024399999999999998,-1.025776,2
2024-06-14 11:56:00.112,-5.88,-29.225,1.54,-0.012199999999999999,0.027083999999999997,-1.0267519999999999,2
2024-06-14 11:56:00.117,-4.585,-28.35,1.435,-0.009028,0.030256,-1.0348039999999998,2
2024-06-14 11:56:00.122,-2.765,-21.700000000000003,1.05,-0.00366,0.02684,-1.0304119999999999,2
2024-06-14 11:56:00.127,-3.5700000000000003,-29.925,1.19,-0.005612,0.02684,-1.03822,2
2024-06-14 11:56:00.131,-4.585,-35.980000000000004,0.525,-0.0026839999999999998,0.021471999999999998,-1.0277279999999998,2
2024-06-14 11:56:00.136,-3.325,-28.14,0.14,-0.00122,0.008539999999999999,-1.0252879999999998,2
2024-06-14 11:56:00.141,-3.71,-28.0,0.35,0.00048799999999999994,0.003172,-1.0248,2
2024-06-14 11:56:00.146,-4.095,-27.86,0.7,-0.00024399999999999986,0.0034159999999999998,-1.025288,2
2024-06-14 11:56:00.151,-4.41,-26.915,1.0150000000000001,0.004148,0.0024400000000000003,-1.016748,2
2024-06-14 11:56:00.156,-5.6,-25.689999999999998,1.295,0.008784,0.0046359999999999995,-1.0218720000000001,2
2024-06-14 11:56:00.160,-5.915,-24.745,1.575,0.012199999999999999,0.0017080000000000003,-1.024068,2
2024-06-14 11:56:00.165,-7.035,-24.465,1.96,0.007076,-0.0036599999999999996,-1.0309,2
2024-06-14 11:56:00.170,-7.49,-24.884999999999998,2.4850000000000003,0.007076,0.003416,-1.037732,2
2024-06-14 11:56:00.175,-7.595,-26.18,2.87,0.004148,0.000488,-1.0470039999999998,2
2024-06-14 11:56:00.180,-8.75,-28.07,3.29,0.008296,0.0031719999999999995,-1.057252,2
2024-06-14 11:56:00.185,-8.995000000000001,-29.925,3.395,0.013176,0.01464,-1.0570080000000002,2
2024-06-14 11:56:00.189,-8.785,-32.34,3.36,0.020252,0.020496,-1.056764,2
2024-06-14 11:56:00.194,-7.455,-34.44,3.36,0.021227999999999997,0.023668,-1.071892,2
2024-06-14 11:56:00.199,-6.4399999999999995,-37.905,3.185,0.018299999999999997,0.035379999999999995,-1.097756,2
2024-06-14 11:56:00.204,-4.234999999999999,-42.0,2.6950000000000003,0.013663999999999999,0.037332,-1.1092239999999998,2
2024-06-14 11:56:00.209,-1.4,-47.005,2.625,0.017079999999999998,0.034892,-1.124108,2
2024-06-14 11:56:00.213,0.27999999999999997,-49.349999999999994,2.45,0.020496,0.027572,-1.1470440000000002,2
2024-06-14 11:56:00.218,2.415,-53.69,2.555,0.0183,0.00366,-1.1531440000000002,3
2024-06-14 11:56:00.223,5.32,-55.51,3.3600000000000003,0.018544,0.022448,-1.1467999999999998,3
2024-06-14 11:56:00.228,7.07,-55.474999999999994,3.6399999999999997,0.023912,0.024156,-1.215852,3
2024-06-14 11:56:00.233,3.7800000000000002,-49.769999999999996,3.745,0.03782,0.033916,-1.117032,3
2024-06-14 11:56:00.238,4.48,-56.175,3.465,0.050264,0.03172,-1.100684,3
2024-06-14 11:56:00.242,7.21,-60.865,4.095000000000001,0.042943999999999996,0.04953200000000001,-1.1028799999999999,3
2024-06-14 11:56:00.247,12.39,-67.655,5.53,0.034159999999999996,0.12980799999999998,-1.243668,3
2024-06-14 11:56:00.252,13.79,-63.42,6.335000000000001,0.02684,0.108092,-1.2404959999999998,3
2024-06-14 11:56:00.257,15.504999999999999,-63.245000000000005,3.29,0.046848,0.023668,-1.169248,3
2024-06-14 11:56:00.262,13.23,-67.83,2.975,0.043432,0.02562,-1.2504999999999997,3
2024-06-14 11:56:00.267,12.495000000000001,-72.44999999999999,2.485,0.047824,0.013420000000000001,-1.2627000000000002,3
2024-06-14 11:56:00.271,12.565000000000001,-77.10499999999999,2.17,0.048068,0.047091999999999995,-1.277828,3
2024-06-14 11:56:00.276,12.11,-82.285,1.19,0.047824000000000005,0.058072,-1.3051559999999998,3
2024-06-14 11:56:00.281,13.3,-88.58500000000001,0.14,0.043188,0.072712,-1.3603,3
2024-06-14 11:56:00.286,14.98,-95.655,-1.155,0.034892,0.090524,-1.399584,3
2024-06-14 11:56:00.291,17.744999999999997,-105.56,-3.08,0.014151999999999998,0.12273200000000001,-1.5001120000000001,3
2024-06-14 11:56:00.296,19.25,-118.51,-4.375,0.050508,0.0026840000000000006,-1.453996,3
2024-06-14 11:56:00.300,24.185000000000002,-124.425,-3.745,0.02806,0.068564,-1.4579,3
2024-06-14 11:56:00.305,25.515,-133.245,-4.9,0.030256,0.073444,-1.551352,3
2024-06-14 11:56:00.310,22.295,-150.85000000000002,-5.18,0.037332000000000004,0.036844,-1.491328,3
2024-06-14 11:56:00.315,29.505000000000003,-156.38,-5.39,0.015127999999999999,0.044163999999999995,-1.5718480000000001,3
2024-06-14 11:56:00.320,29.435000000000002,-169.39999999999998,-6.02,0.013908,0.026352,-1.583804,3
2024-06-14 11:56:00.325,28.84,-180.215,-6.720000000000001,0.013908,0.012199999999999999,-1.6030799999999998,3
2024-06-14 11:56:00.329,27.825000000000003,-194.14499999999998,-6.58,0.011224,-0.009516,-1.6189399999999998,3
2024-06-14 11:56:00.334,25.095,-207.76,-6.4399999999999995,0.010248,-0.02806,-1.6152799999999998,3
2024-06-14 11:56:00.339,22.715,-221.34,-5.635,0.004392,-0.053192,-1.66286,3
2024-06-14 11:56:00.344,22.085,-237.44,-4.55,-0.0075639999999999995,-0.026108,-1.706048,3
2024-06-14 11:56:00.349,22.68,-255.255,-4.585,-0.028059999999999995,0.05246,-1.8529360000000001,3
2024-06-14 11:56:00.353,21.875,-274.645,-5.67,-0.04392,0.040504,-1.9412639999999999,3
2024-06-14 11:56:00.358,19.810000000000002,-294.56,-6.09,-0.066368,-0.026108,-2.046916,3
2024-06-14 11:56:00.363,17.15,-314.125,-4.97,-0.08052,-0.12273200000000001,-2.085956,3
2024-06-14 11:56:00.368,13.79,-335.65,-2.1,-0.126636,-0.19641999999999998,-2.127436,3
2024-06-14 11:56:00.373,7.734999999999999,-361.095,1.54,-0.15616,-0.261568,-2.159644,3
2024-06-14 11:56:00.378,4.27,-385.245,6.125,-0.163968,-0.280356,-2.259684,3
2024-06-14 11:56:00.382,0.735,-413.35,10.08,-0.13346799999999998,-0.22082,-2.446344,3
2024-06-14 11:56:00.387,-5.495,-438.55,11.865,-0.11419199999999999,-0.155916,-2.652036,3
2024-06-14 11:56:00.392,-15.785,-464.38,11.48,-0.04660399999999999,-0.148108,-2.82674,3
2024-06-14 11:56:00.397,-21.07,-487.34000000000003,10.92,0.052703999999999994,-0.204228,-2.9333679999999998,3
2024-06-14 11:56:00.402,-21.700000000000003,-504.525,10.43,0.276696,-0.197396,-3.260816,3
2024-06-14 11:56:00.407,-17.15,-514.08,9.17,0.470188,-0.23058,-3.50384,3
2024-06-14 11:56:00.411,-14.42,-516.3199999999999,10.745000000000001,0.7007680000000001,-0.064416,-3.546052,3
2024-06-14 11:56:00.416,-22.75,-511.805,7.7700000000000005,0.825452,0.037820000000000006,-3.617788,3
2024-06-14 11:56:00.421,-26.95,-511.875,5.985,0.670268,-0.11321600000000001,-3.468216,3
2024-06-14 11:56:00.426,-20.895,-494.13,12.46,0.6702680000000001,-0.14273999999999998,-3.7122159999999997,3
2024-06-14 11:56:00.431,-28.875,-484.855,16.415,0.464088,0.030255999999999998,-3.7244159999999997,4
2024-06-14 11:56:00.436,-44.239999999999995,-480.935,14.42,-0.061,0.023668,-3.440888,4
2024-06-14 11:56:00.440,-58.1,-467.95,13.93,-0.589016,-0.079788,-3.276432,4
2024-06-14 11:56:00.445,-73.185,-453.91499999999996,13.86,-1.073356,-0.23082399999999997,-3.1737080000000004,4
2024-06-14 11:56:00.450,-81.445,-439.775,16.275,-1.344196,-0.392596,-2.902868,4
2024-06-14 11:56:00.455,-79.065,-429.8,21.91,-1.5537919999999998,-0.568764,-2.681072,4
2024-06-14 11:56:00.460,-67.83,-423.67499999999995,32.55,-1.885632,-0.76494,-2.323856,4
2024-06-14 11:56:00.465,-48.3,-418.03999999999996,50.295,-2.2533399999999997,-0.912804,-1.7770519999999999,4
2024-06-14 11:56:00.469,-27.58,-416.36,77.56,-2.38998,-0.960872,-1.06384,4
2024-06-14 11:56:00.474,-5.705,-438.13,106.925,-1.620648,-1.17242,-0.193248,4
2024-06-14 11:56:00.479,26.25,-446.74,133.14,-1.012356,-1.3073519999999998,-0.726144,4
2024-06-14 11:56:00.484,82.425,-337.96000000000004,170.345,-1.2927119999999999,-0.844972,-2.0327640000000002,4
2024-06-14 11:56:00.489,125.405,-223.16,199.43,-1.9903080000000002,-0.6585559999999999,-1.9085679999999998,4
2024-06-14 11:56:00.494,127.225,-116.79500000000002,198.24,-2.375584,-0.45042399999999994,-1.535248,4
2024-06-14 11:56:00.498,83.37,14.245000000000001,169.26,-2.700592,0.654896,-0.292068,4
2024-06-14 11:56:00.503,46.339999999999996,94.92,168.735,-2.3431319999999998,0.506544,-0.9049959999999999,4
2024-06-14 11:56:00.508,-13.02,168.7,139.44,-1.9703,0.44822799999999996,-1.306132,4
2024-06-14 11:56:00.513,-62.58,220.08,110.215,-1.6772559999999999,0.38039599999999996,-1.1080040000000002,4
2024-06-14 11:56:00.518,-102.305,251.54500000000002,83.72,-1.547936,0.268644,-1.045052,4
2024-06-14 11:56:00.522,-128.45,265.125,63.595,-1.474492,0.090524,-0.951356,4
2024-06-14 11:56:00.527,-142.59,272.86,49.805,-1.37738,-0.09296399999999999,-0.819352,4
2024-06-14 11:56:00.532,-143.04500000000002,275.275,42.7,-1.294176,-0.219356,-0.7290719999999999,4
2024-06-14 11:56:00.537,-129.43,273.42,41.335,-1.183644,-0.42089999999999994,-0.676856,4
2024-06-14 11:56:00.542,-105.21000000000001,272.02,41.019999999999996,-1.098976,-0.55388,-0.654164,4
2024-06-14 11:56:00.547,-72.135,268.59000000000003,41.16,-1.0128439999999999,-0.6897880000000001,-0.626348,4
2024-06-14 11:56:00.551,-37.345,268.485,40.915,-0.9494039999999999,-0.711016,-0.5733999999999999,4
2024-06-14 11:56:00.556,-2.59,265.195,42.385000000000005,-0.894504,-0.682956,-0.598532,4
2024-06-14 11:56:00.561,26.67,264.355,43.575,-0.837408,-0.589016,-0.610244,4
2024-06-14 11:56:00.566,48.335,265.615,43.715,-0.7986120000000001,-0.482876,-0.650992,4
2024-06-14 11:56:00.571,61.25,268.45,42.0,-0.759084,-0.36966,-0.6731959999999999,4
2024-06-14 11:56:00.576,65.485,272.475,37.905,-0.726388,-0.261568,-0.701744,4
2024-06-14 11:56:00.580,62.93,279.78999999999996,32.025,-0.6922280000000001,-0.16909200000000002,-0.7427360000000001,4
2024-06-14 11:56:00.585,55.510000000000005,288.085,24.64,-0.654652,-0.10223600000000001,-0.782264,4
2024-06-14 11:56:00.590,45.955,298.69,16.555,-0.617564,-0.06124399999999999,-0.8210599999999999,4
2024-06-14 11:56:00.595,36.644999999999996,308.90999999999997,8.645,-0.576816,-0.04514,-0.868884,4
2024-06-14 11:56:00.600,29.189999999999998,319.97,1.19,-0.533384,-0.055876,-0.910364,4
2024-06-14 11:56:00.605,25.375,330.26,-5.1450000000000005,-0.500688,-0.08832799999999999,-0.9518439999999999,4
2024-06-14 11:56:00.609,25.270000000000003,339.745,-10.36,-0.458476,-0.12004799999999999,-0.998448,4
2024-06-14 11:56:00.614,28.490000000000002,348.11,-14.35,-0.422852,-0.152256,-1.0411480000000002,4
2024-06-14 11:56:00.619,33.88,354.83000000000004,-17.395,-0.392596,-0.17031200000000002,-1.093852,4
2024-06-14 11:56:00.624,40.495000000000005,360.815,-19.845,-0.36941599999999997,-0.176656,-1.130696,4
2024-06-14 11:56:00.629,47.39,365.925,-21.805,-0.351116,-0.17153200000000002,-1.1699799999999998,4
2024-06-14 11:56:00.634,53.41,369.565,-23.625,-0.33232799999999996,-0.156404,-1.22488,4
2024-06-14 11:56:00.638,58.275,373.345,-25.689999999999998,-0.311832,-0.134932,-1.286124,4
2024-06-14 11:56:00.643,61.075,376.21500000000003,-28.14,-0.29621600000000003,-0.10247999999999999,-1.354444,4
2024-06-14 11:56:00.648,62.125,379.12,-30.66,-0.28548,-0.079544,-1.4274,4
2024-06-14 11:56:00.653,61.46,381.81500000000005,-33.215,-0.269864,-0.069296,-1.4876679999999998,4
2024-06-14 11:56:00.658,59.955,384.265,-35.28,-0.25864,-0.060023999999999994,-1.5620880000000001,4
2024-06-14 11:56:00.662,58.31,387.625,-36.785,-0.24204799999999999,-0.057828000000000004,-1.6335799999999998,4
2024-06-14 11:56:00.667,56.489999999999995,390.88,-37.730000000000004,-0.22594399999999998,-0.05246,-1.71654,4
2024-06-14 11:56:00.672,54.67,393.68,-37.974999999999994,-0.213744,-0.055632,-1.7990119999999998,4
2024-06-14 11:56:00.677,53.795,396.9,-37.730000000000004,-0.20129999999999998,-0.054412,-1.89222,4
2024-06-14 11:56:00.682,53.655,399.525,-36.260000000000005,-0.188856,-0.058316,-1.985916,4
2024-06-14 11:56:00.687,54.6,400.47,-33.845,-0.16616399999999998,-0.070272,-2.085224,4
2024-06-14 11:56:00.691,56.385000000000005,401.52,-33.565,-0.11687600000000001,-0.11419199999999999,-2.2106399999999997,4
2024-06-14 11:56:00.696,58.730000000000004,400.925,-33.46,-0.09296399999999999,-0.09125599999999999,-2.293844,4
2024-06-14 11:56:00.701,62.230000000000004,398.405,-31.884999999999998,-0.040504,-0.08271599999999998,-2.4236519999999997,4
2024-06-14 11:56:00.706,66.15,393.05,-29.575000000000003,0.022448000000000003,-0.098332,-2.5546800000000003,4
2024-06-14 11:56:00.711,69.54499999999999,386.155,-28.104999999999997,0.085644,-0.091256,-2.685708,4
2024-06-14 11:56:00.716,72.66,377.3,-26.32,0.156648,-0.091256,-2.834548,4
2024-06-14 11:56:00.720,75.39,366.45,-24.5,0.24692799999999998,-0.08247199999999999,-2.999736,4
2024-06-14 11:56:00.725,76.825,356.23,-23.555,0.342088,-0.065148,-3.158092,4
2024-06-14 11:56:00.730,75.11,347.83000000000004,-24.255000000000003,0.434808,-0.02928,-3.2920480000000003,4
2024-06-14 11:56:00.735,69.86000000000001,341.70500000000004,-26.46,0.533384,-0.006344000000000001,-3.4252719999999997,4
2024-06-14 11:56:00.740,60.760000000000005,339.605,-30.134999999999998,0.655384,0.009516,-3.5140879999999997,4
2024-06-14 11:56:00.745,49.875,339.815,-35.0,0.7820199999999999,-0.011467999999999999,-3.579968,4
2024-06-14 11:56:00.749,40.565,344.96000000000004,-39.165,0.93574,-0.08052,-3.639016,4
2024-06-14 11:56:00.754,36.015,353.605,-41.370000000000005,1.112396,-0.15128,-3.650728,4
2024-06-14 11:56:00.759,37.905,366.52,-41.055,1.308572,-0.22692,-3.6478,4
2024-06-14 11:56:00.764,44.205,381.57,-38.045,1.5325639999999998,-0.303048,-3.630476,4
2024-06-14 11:56:00.769,50.68,395.78,-33.32,1.7758319999999999,-0.37088,-3.582652,4
2024-06-14 11:56:00.774,55.545,407.4,-27.37,2.0449640000000002,-0.449204,-3.482612,4
2024-06-14 11:56:00.778,58.31,412.33500000000004,-19.775,2.3541119999999998,-0.55022,-3.312544,4
2024-06-14 11:56:00.783,62.09,412.055,-9.555,2.700592,-0.6739280000000001,-3.117832,4
2024-06-14 11:56:00.788,70.91,403.79499999999996,4.445,3.0155959999999995,-0.7832399999999999,-2.8728559999999996,4
2024-06-14 11:56:00.793,88.58500000000001,387.79999999999995,22.365000000000002,3.299124,-0.847656,-2.6176320000000004,4
2024-06-14 11:56:00.798,118.65,364.98,43.68,3.55508,-0.833504,-2.3338599999999996,4
2024-06-14 11:56:00.803,159.495,337.33000000000004,67.445,3.8688640000000003,-0.778604,-2.109624,4
2024-06-14 11:56:00.807,200.48000000000002,307.15999999999997,92.435,4.232668,-0.624152,-1.97518,4
2024-06-14 11:56:00.812,234.99,275.485,116.97,4.629412,-0.369904,-1.8817279999999998,4
2024-06-14 11:56:00.817,261.52,243.425,138.845,5.007368,-0.019275999999999995,-1.692872,4
2024-06-14 11:56:00.822,278.39,210.76999999999998,155.75,5.24478,0.40552800000000006,-1.47986,4
2024-06-14 11:56:00.827,280.945,175.21,165.025,5.3314,0.86742,-1.31638,4
2024-06-14 11:56:00.831,262.115,136.43,164.99,5.3131,1.2993000000000001,-1.25782,4
2024-06-14 11:56:00.836,215.985,92.33,155.995,5.205496,1.6645679999999998,-1.268556,4
2024-06-14 11:56:00.841,143.325,45.08,140.21,4.996876,1.8722119999999998,-1.290516,4
2024-06-14 11:56:00.846,53.585,-3.6049999999999995,121.24,4.713592,1.86782,-1.30662,4
2024-06-14 11:56:00.851,-38.43,-50.68,102.97,4.397124,1.6384599999999998,-1.3549319999999998,4
2024-06-14 11:56:00.856,-118.79,-94.29,88.305,4.06992,1.2536720000000001,-1.507676,4
2024-06-14 11:56:00.860,-178.115,-132.685,79.13499999999999,3.74906,0.814716,-1.708732,4
2024-06-14 11:56:00.865,-216.47500000000002,-165.13,75.705,3.418684,0.410408,-1.877092,4
2024-06-14 11:56:00.870,-375.655,-213.01,15.715000000000003,0.26327600000000007,0.529968,-2.63886,4
