time,gyroscope_x,gyroscope_y,gyroscope_z,accelerometer_x,accelerometer_y,accelerometer_z,phase
2024-06-14 12:23:56.486,290.92,-205.52,-24.85,-4.392976,2.602016,1.492792,1
2024-06-14 12:23:56.491,317.38,-279.02,-36.26,-0.8744959999999999,-0.024887999999999997,-1.237568,1
2024-06-14 12:23:56.496,363.58,-306.04,-28.42,-1.6699359999999999,-0.08003199999999999,-0.8110559999999999,1
2024-06-14 12:23:56.501,372.47,-351.82,-7.28,-0.106872,0.13322399999999998,-1.85928,1
2024-06-14 12:23:56.506,272.65,-378.07,23.52,0.26937599999999995,0.010736,-2.858216,1
2024-06-14 12:23:56.510,162.96,-389.13,55.58,0.41724,-0.46848,-2.716208,1
2024-06-14 12:23:56.515,62.86,-378.21,68.39,0.61976,-0.647576,-2.594696,1
2024-06-14 12:23:56.520,10.08,-346.99,69.37,0.403576,-0.6954,-2.7166959999999998,2
2024-06-14 12:23:56.525,-2.03,-300.3,45.78,0.260104,-1.0379759999999998,-2.5132,2
2024-06-14 12:23:56.530,3.57,-257.18,-1.33,0.20251999999999998,-0.89304,-2.5829839999999997,2
2024-06-14 12:23:56.535,12.25,-233.94,-38.08,0.119072,-0.36112,-2.2291839999999996,2
2024-06-14 12:23:56.539,4.06,-211.05,-49.07,0.06978399999999998,0.093696,-1.9607839999999999,2
2024-06-14 12:23:56.544,-5.53,-191.45,-33.67,0.12395199999999999,0.433344,-1.719712,2
2024-06-14 12:23:56.549,-14.77,-164.64,-5.32,0.153232,0.450912,-1.6221119999999998,2
2024-06-14 12:23:56.554,-11.48,-143.29,19.32,0.11956,0.366976,-1.6621279999999998,2
2024-06-14 12:23:56.559,-1.82,-121.17,29.4,0.037088,0.0366,-1.4410640000000001,2
2024-06-14 12:23:56.563,3.57,-102.06,23.45,0.02928,-0.122488,-1.3195519999999998,2
2024-06-14 12:23:56.568,4.76,-83.44,12.46,0.050263999999999996,-0.20251999999999998,-1.228296,2
2024-06-14 12:23:56.573,-0.35,-66.36,1.4,0.04392,-0.091256,-1.197552,2
2024-06-14 12:23:56.578,-1.75,-51.66,-0.28,0.08930400000000001,0.07564,-1.1843759999999999,2
2024-06-14 12:23:56.583,1.12,-41.86,5.04,0.131272,0.18788,-1.153144,2
2024-06-14 12:23:56.588,6.58,-33.67,10.57,0.105408,0.12736799999999998,-1.179984,2
2024-06-14 12:23:56.592,9.52,-29.12,11.27,0.079056,0.033671999999999994,-1.153632,2
2024-06-14 12:23:56.597,9.94,-24.22,6.93,-0.06978399999999998,-0.079056,-1.1228879999999999,2
2024-06-14 12:23:56.602,7.84,-21.07,2.03,-0.03172,-0.049288,-1.0887280000000001,2
2024-06-14 12:23:56.607,5.32,-17.99,-0.14,0.032208,0.011224,-1.0872639999999998,2
2024-06-14 12:23:56.612,4.69,-16.45,-0.35,0.005856,0.045872,-1.0789680000000001,2
2024-06-14 12:23:56.616,4.27,-15.54,0.77,-0.004391999999999999,0.045384,-1.0589600000000001,2
2024-06-14 12:23:56.621,4.97,-16.31,0.28,-0.056608,0.028791999999999998,-1.04676,2
2024-06-14 12:23:56.626,5.32,-17.5,-0.49,-0.042455999999999994,0.02684,-1.039928,2
2024-06-14 12:23:56.631,5.53,-19.18,-2.31,-0.051728,0.016104,-1.055056,2
2024-06-14 12:23:56.636,4.55,-21.77,-2.45,-0.020007999999999998,0.02196,-1.0535919999999999,2
2024-06-14 12:23:56.641,3.64,-24.29,-3.08,-0.110776,0.0,-1.07848,2
2024-06-14 12:23:56.645,1.68,-26.95,-3.22,-0.06978399999999998,-0.000976,-1.059936,2
2024-06-14 12:23:56.650,0.0,-28.77,-3.22,0.023424,0.017567999999999997,-1.044808,2
2024-06-14 12:23:56.655,-1.75,-31.22,-3.71,0.015616,0.002928,-1.050176,2
2024-06-14 12:23:56.660,-3.85,-33.25,-4.13,-0.07564,-0.0068319999999999995,-1.062864,2
2024-06-14 12:23:56.665,-5.32,-36.19,-4.06,-0.117608,-0.008296,-1.077016,2
2024-06-14 12:23:56.670,-6.09,-38.85,-3.92,-0.128832,-0.005368,-1.08092,2
2024-06-14 12:23:56.674,-6.23,-41.44,-4.13,-0.11175199999999999,-0.001952,-1.063352,2
2024-06-14 12:23:56.679,-6.09,-43.96,-4.2,-0.020496,0.015616,-1.037488,2
2024-06-14 12:23:56.684,-5.95,-46.48,-4.2,0.072712,0.028304,-1.0296800000000002,2
2024-06-14 12:23:56.689,-6.02,-47.53,-4.41,0.023424,0.051728,-1.01992,2
2024-06-14 12:23:56.694,-5.32,-50.89,-4.41,-0.106384,0.01464,-1.06628,2
2024-06-14 12:23:56.698,-10.08,-83.65,-4.2,0.014152,0.033184,-1.0365119999999999,2
2024-06-14 12:23:56.703,-2.03,-46.55,-3.78,-0.00488,0.031232,-1.0340719999999999,2
2024-06-14 12:23:56.708,-2.59,-47.95,-3.22,-0.0034159999999999998,0.032208,-1.032608,2
2024-06-14 12:23:56.713,0.28,-49.7,-3.36,-0.001464,0.039528,-1.032608,2
2024-06-14 12:23:56.718,1.19,-51.73,-4.41,0.020984,0.050752,-1.02236,2
2024-06-14 12:23:56.723,3.71,-51.94,-4.48,0.020007999999999998,0.049288,-1.020896,2
2024-06-14 12:23:56.727,73.01,-37.17,-2.8,0.0068319999999999995,0.0366,-1.1180080000000001,2
2024-06-14 12:23:56.732,-4.55,-23.03,-3.15,0.034648,0.048312,-1.013576,2
2024-06-14 12:23:56.737,15.12,-33.32,-0.49,0.043432000000000005,0.040992,-1.011624,2
2024-06-14 12:23:56.742,3.08,-37.87,-4.13,0.050263999999999996,0.037576,-1.00772,2
2024-06-14 12:23:56.747,12.39,-39.55,-6.16,0.05124,0.036112000000000005,-1.011136,2
2024-06-14 12:23:56.751,7.77,-40.18,-5.74,0.050263999999999996,0.028791999999999998,-1.0140639999999999,2
2024-06-14 12:23:56.756,8.96,-41.65,-3.92,0.050752,0.023424,-1.021872,2
2024-06-14 12:23:56.761,9.45,-42.42,-4.76,0.050752,0.023912,-1.032608,2
2024-06-14 12:23:56.766,7.07,-43.68,-7.07,0.060024,0.014152,-1.040904,2
2024-06-14 12:23:56.771,9.03,-45.29,-6.86,0.06344,0.008296,-1.039928,2
2024-06-14 12:23:56.776,4.97,-47.53,-5.6,0.062464,0.018056000000000003,-1.0462719999999999,2
2024-06-14 12:23:56.780,7.56,-48.51,-5.04,0.07466400000000001,0.018056000000000003,-1.04188,2
2024-06-14 12:23:56.785,5.04,-48.44,-6.72,0.078568,0.01464,-1.044808,2
2024-06-14 12:23:56.790,9.66,-52.78,-6.72,0.08052,0.020007999999999998,-1.0462719999999999,2
2024-06-14 12:23:56.795,8.82,-53.69,-5.95,0.08491199999999999,0.019032,-1.04432,2
2024-06-14 12:23:56.800,3.22,-65.03,-5.25,0.09516,0.024887999999999997,-1.05652,2
2024-06-14 12:23:56.804,5.25,-49.77,-6.23,0.096136,0.0,-1.072136,2
2024-06-14 12:23:56.809,6.37,-48.93,-5.18,0.10248,-0.002928,-1.0677439999999998,2
2024-06-14 12:23:56.814,-1.82,-51.24,-4.97,0.105896,-0.022936,-1.0735999999999999,2
2024-06-14 12:23:56.819,-7.84,-54.39,-4.97,0.103456,-0.020496,-1.074576,2
2024-06-14 12:23:56.824,-14.35,-56.35,-5.46,0.09955199999999999,0.009272,-1.097512,2
2024-06-14 12:23:56.829,-13.93,-54.74,-5.18,0.108824,0.021472,-1.05408,2
2024-06-14 12:23:56.833,-14.35,-54.95,-4.97,0.11516799999999999,0.031232,-1.05408,2
2024-06-14 12:23:56.838,-15.33,-56.7,-5.04,0.11419199999999999,0.03172,-1.07848,2
2024-06-14 12:23:56.843,-14.7,-59.71,-5.53,0.1098,0.04636,-1.13704,2
2024-06-14 12:23:56.848,-14.98,-63.77,-6.51,0.121512,0.052216,-1.1102,2
2024-06-14 12:23:56.853,-9.59,-64.61,-6.23,0.122488,0.079056,-1.1380160000000001,2
2024-06-14 12:23:56.857,-8.33,-67.27,-7.07,0.125416,0.057583999999999996,-1.119472,2
2024-06-14 12:23:56.862,-14.21,-75.11,-8.82,0.12444,0.061488,-1.1672960000000001,2
2024-06-14 12:23:56.867,-16.87,-82.95,-9.31,0.13224799999999998,0.045384,-1.1180080000000001,2
2024-06-14 12:23:56.872,-12.32,-78.19,-8.4,0.152256,0.060024,-1.245864,2
2024-06-14 12:23:56.877,-9.94,-88.06,-10.43,0.138592,0.079544,-1.2141440000000001,2
2024-06-14 12:23:56.882,-9.03,-93.87,-11.55,0.14396,0.054168,-1.2146320000000002,2
2024-06-14 12:23:56.886,-8.61,-96.74,-12.67,0.147864,0.078568,-1.217072,2
2024-06-14 12:23:56.891,-10.08,-101.71,-13.44,0.13956799999999997,0.055144,-1.3132080000000002,2
2024-06-14 12:23:56.896,-15.12,-116.2,-14.98,0.166408,0.073688,-1.358104,2
2024-06-14 12:23:56.901,-16.03,-120.75,-15.96,0.159088,0.059536,-1.341024,2
2024-06-14 12:23:56.906,-17.78,-126.42,-16.45,0.163968,0.048799999999999996,-1.336632,2
2024-06-14 12:23:56.910,-20.16,-133.56,-16.66,0.167872,0.06539199999999999,-1.37372,2
2024-06-14 12:23:56.915,-23.03,-142.45,-17.85,0.16738399999999998,0.048799999999999996,-1.387384,2
2024-06-14 12:23:56.920,-22.05,-150.29,-17.64,0.17372800000000002,0.016104,-1.414712,2
2024-06-14 12:23:56.925,-21.7,-158.83,-17.64,0.177632,0.045384,-1.369816,2
2024-06-14 12:23:56.930,-25.13,-167.23,-18.76,0.186904,0.077104,-1.46888,2
2024-06-14 12:23:56.935,-28.14,-181.09,-20.09,0.171776,0.050263999999999996,-1.5342719999999999,3
2024-06-14 12:23:56.939,-29.68,-192.64,-20.86,0.176656,0.047335999999999996,-1.45668,3
2024-06-14 12:23:56.944,-30.24,-204.54,-21.63,0.188368,0.02928,-1.479616,3
2024-06-14 12:23:56.949,-30.59,-214.69,-21.91,0.184952,0.03904,-1.487424,3
2024-06-14 12:23:56.954,-31.15,-230.79,-22.96,0.159576,0.064416,-1.6138160000000001,3
2024-06-14 12:23:56.959,-33.95,-249.13,-24.43,0.172264,0.06978399999999998,-1.53964,3
2024-06-14 12:23:56.963,-35.35,-265.37,-26.32,0.172264,0.11467999999999999,-1.6108879999999999,3
2024-06-14 12:23:56.968,-36.89,-280.91,-28.7,0.167872,0.089792,-1.757776,3
2024-06-14 12:23:56.973,-40.39,-299.04,-29.82,0.17324,0.07564,-1.9056399999999998,3
2024-06-14 12:23:56.978,-43.33,-324.38,-31.15,0.1464,0.096136,-1.9534639999999999,3
2024-06-14 12:23:56.983,-44.45,-347.27,-33.53,0.154208,0.120536,-2.043744,3
2024-06-14 12:23:56.988,-46.69,-376.11,-36.75,0.13322399999999998,0.16104,-2.137928,3
2024-06-14 12:23:56.992,-48.58,-406.56,-39.83,0.235216,0.186416,-2.264808,3
2024-06-14 12:23:56.997,-54.46,-437.22,-42.84,0.21862399999999999,0.219112,-2.495632,3
2024-06-14 12:23:57.002,-59.22,-471.24,-44.66,0.18788,0.171776,-2.795752,3
2024-06-14 12:23:57.007,-58.24,-496.65,-43.05,0.314272,0.14932800000000002,-3.1105119999999995,3
2024-06-14 12:23:57.012,-63.49,-514.92,-36.96,0.540216,0.19422399999999998,-3.674152,3
2024-06-14 12:23:57.013,-67.13,-537.67,-35.77,0.546072,0.215208,-3.626328,3
2024-06-14 12:23:57.017,-69.93,-547.19,-35.7,0.410408,0.198128,-3.94304,3
2024-06-14 12:23:57.022,-80.29,-558.6,-33.74,0.249856,0.290848,-4.131408,3
2024-06-14 12:23:57.027,-85.19,-571.55,-36.75,0.211304,0.135176,-3.991352,3
2024-06-14 12:23:57.032,-64.61,-581.98,-41.58,0.203008,-0.223992,-3.91132,3
2024-06-14 12:23:57.037,-19.18,-590.31,-37.31,0.209352,-0.303048,-4.063088,3
2024-06-14 12:23:57.042,7.49,-608.37,-29.19,0.061,0.13224799999999998,-3.958168,3
2024-06-14 12:23:57.046,11.9,-623.98,-25.34,-0.309392,0.531432,-3.6985520000000003,3
2024-06-14 12:23:57.051,6.3,-619.08,-28.77,-0.397232,0.6822239999999999,-3.346704,3
2024-06-14 12:23:57.056,-1.12,-602.91,-33.67,-0.810568,0.7500560000000001,-2.9885119999999996,3
2024-06-14 12:23:57.061,-21.63,-577.99,-49.0,-0.94916,0.315736,-2.117432,3
2024-06-14 12:23:57.066,-34.79,-529.48,-50.33,-1.72752,1.03456,-1.7480159999999998,3
2024-06-14 12:23:57.071,-39.06,-494.13,-69.44,-1.687016,1.3800640000000002,-2.514664,3
2024-06-14 12:23:57.075,-64.61,-479.5,-93.94,-1.72996,1.48108,-2.830888,3
2024-06-14 12:23:57.080,-126.28,-435.33,-133.98,-1.567456,1.31028,-2.7420720000000003,3
2024-06-14 12:23:57.085,-180.95,-402.29,-177.73,-0.799832,1.331264,-1.7265439999999999,3
2024-06-14 12:23:57.090,-174.3,-399.49,-187.95,-0.779824,1.1126399999999999,-1.3000319999999999,3
2024-06-14 12:23:57.095,-145.25,-273.28,-182.63,-2.169648,0.335256,-1.606984,4
2024-06-14 12:23:57.100,-129.5,-123.48,-161.91,-2.6595999999999997,-0.122488,-1.3073519999999998,4
2024-06-14 12:23:57.104,-61.25,-0.28,-116.06,-1.9232079999999998,-0.357704,-1.0535919999999999,4
2024-06-14 12:23:57.109,18.48,88.06,-68.32,-1.677744,-0.38600799999999996,-1.44204,4
2024-06-14 12:23:57.114,71.68,164.71,-29.12,-1.718248,-0.32256799999999997,-1.49328,4
2024-06-14 12:23:57.119,108.85,217.77,2.52,-1.4879120000000001,-0.08784,-1.351272,4
2024-06-14 12:23:57.124,141.89,250.53,22.12,-1.284416,0.057583999999999996,-1.323456,4
2024-06-14 12:23:57.129,154.84,273.63,30.03,-1.225856,0.183488,-1.2536720000000001,4
2024-06-14 12:23:57.133,155.12,294.56,31.99,-1.1741279999999998,0.331352,-1.1126399999999999,4
2024-06-14 12:23:57.138,145.18,314.09,29.75,-1.08092,0.446032,-1.011136,4
2024-06-14 12:23:57.143,129.78,331.94,22.4,-1.00528,0.532408,-0.975024,4
2024-06-14 12:23:57.148,107.17,348.39,11.48,-0.959896,0.559736,-0.9725839999999999,4
2024-06-14 12:23:57.153,80.71,361.34,-0.91,-0.885232,0.549488,-0.96136,4
2024-06-14 12:23:57.158,54.67,370.37,-13.44,-0.793,0.506056,-0.960872,4
2024-06-14 12:23:57.162,30.87,375.55,-25.62,-0.735416,0.441152,-0.9472079999999999,4
2024-06-14 12:23:57.167,12.81,378.56,-36.19,-0.681736,0.349408,-0.92476,4
2024-06-14 12:23:57.172,1.19,380.73,-44.52,-0.6222,0.254248,-0.9086559999999999,4
2024-06-14 12:23:57.177,-3.71,382.41,-49.84,-0.5777920000000001,0.14396,-0.927688,4
2024-06-14 12:23:57.182,-3.71,384.37,-52.22,-0.539728,0.049775999999999994,-0.973072,4
2024-06-14 12:23:57.187,0.49,387.03,-51.66,-0.508496,-0.027327999999999998,-1.0126,4
2024-06-14 12:23:57.191,7.28,390.32,-48.37,-0.504104,-0.07222400000000001,-1.05408,4
2024-06-14 12:23:57.196,14.35,395.71,-43.26,-0.511424,-0.088816,-1.0970239999999998,4
2024-06-14 12:23:57.201,20.37,403.13,-37.17,-0.508984,-0.071248,-1.159488,4
2024-06-14 12:23:57.206,24.15,412.16,-30.52,-0.481168,-0.053192,-1.217072,4
2024-06-14 12:23:57.211,27.3,422.24,-23.73,-0.479704,-0.00244,-1.2639200000000002,4
2024-06-14 12:23:57.216,28.07,432.39,-17.71,-0.484096,0.04636,-1.326872,4
2024-06-14 12:23:57.220,26.53,442.96,-13.09,-0.472872,0.09467199999999999,-1.395192,4
2024-06-14 12:23:57.225,23.03,452.62,-9.8,-0.44895999999999997,0.150304,-1.474248,4
2024-06-14 12:23:57.230,18.13,461.09,-7.77,-0.418704,0.20007999999999998,-1.54208,4
2024-06-14 12:23:57.235,11.69,468.51,-6.37,-0.381616,0.22838399999999998,-1.5845360000000002,4
2024-06-14 12:23:57.240,4.83,474.46,-5.32,-0.33671999999999996,0.25473599999999996,-1.636264,4
2024-06-14 12:23:57.245,-2.59,478.87,-4.76,-0.292312,0.279624,-1.6928720000000002,4
2024-06-14 12:23:57.250,-10.15,481.74,-4.55,-0.245464,0.31232,-1.7441119999999999,4
2024-06-14 12:23:57.254,-16.66,483.35,-4.48,-0.194712,0.338184,-1.821216,4
2024-06-14 12:23:57.259,-25.41,484.47,-4.76,-0.14103200000000002,0.384544,-1.891488,4
2024-06-14 12:23:57.264,-33.46,485.24,-4.97,-0.105408,0.406992,-1.967616,4
2024-06-14 12:23:57.269,-41.23,486.43,-4.76,-0.0732,0.415288,-2.036912,4
2024-06-14 12:23:57.274,-47.32,487.13,-3.43,-0.03904,0.407968,-2.080832,4
2024-06-14 12:23:57.279,-51.52,487.55,-0.63,-0.004391999999999999,0.39967199999999997,-2.137928,4
2024-06-14 12:23:57.283,-54.53,486.71,3.43,0.023424,0.40455199999999997,-2.203808,4
2024-06-14 12:23:57.288,-58.03,484.54,8.19,0.054168,0.427488,-2.2760320000000003,4
2024-06-14 12:23:57.293,-62.72,480.9,13.16,0.07808,0.457744,-2.350696,4
2024-06-14 12:23:57.298,-68.81,476.28,18.41,0.087352,0.499712,-2.4429279999999998,4
2024-06-14 12:23:57.303,-76.93,471.45,23.24,0.08637600000000001,0.554368,-2.5693200000000003,4
2024-06-14 12:23:57.308,-87.01,467.53,27.65,0.108824,0.601216,-2.7376799999999997,4
2024-06-14 12:23:57.312,-95.62,465.43,32.9,0.20788800000000002,0.640744,-2.919704,4
2024-06-14 12:23:57.317,-100.66,465.15,39.76,0.40064799999999995,0.683688,-3.0709839999999997,4
2024-06-14 12:23:57.322,-102.06,465.64,46.9,0.61976,0.7686000000000001,-3.212504,4
2024-06-14 12:23:57.327,-101.71,466.06,53.55,0.861808,0.874984,-3.310592,4
2024-06-14 12:23:57.332,-101.71,464.94,59.22,1.1082480000000001,0.975024,-3.189568,4
2024-06-14 12:23:57.337,-121.73,461.51,62.58,1.1546079999999999,0.9086559999999999,-3.2300720000000003,4
2024-06-14 12:23:57.341,-182.35,454.37,62.65,1.381528,0.8486319999999999,-3.355,4
2024-06-14 12:23:57.346,-237.16,446.18,63.07,1.694824,0.6783199999999999,-3.439424,4
2024-06-14 12:23:57.351,-270.9,431.41,66.01,1.95444,0.43432,-3.544344,4
2024-06-14 12:23:57.356,-283.36,419.23,73.29,2.251632,0.172264,-3.607296,4
2024-06-14 12:23:57.361,-271.74,406.42,85.4,2.5366239999999998,-0.066368,-3.588264,4
2024-06-14 12:23:57.366,-243.39,394.38,123.27,2.626904,0.34794400000000003,-3.470168,4
2024-06-14 12:23:57.370,-202.51,381.15,112.63,3.111,-0.394792,-3.27692,4
2024-06-14 12:23:57.375,-169.33,363.93,125.23,3.476024,-0.391864,-3.095872,4
2024-06-14 12:23:57.380,-144.34,340.13,133.56,3.891312,-0.328912,-2.907016,4
2024-06-14 12:23:57.385,-128.87,309.96,133.98,4.289032,-0.215208,-2.68644,4
2024-06-14 12:23:57.390,-119.14,273.77,125.09,4.659912,-0.09759999999999999,-2.4468319999999997,4
2024-06-14 12:23:57.395,-111.51,233.1,106.68,4.969791999999999,-0.008296,-2.238944,4
2024-06-14 12:23:57.399,-102.55,189.91,81.06,5.238192,-0.001464,-2.0876639999999997,4
2024-06-14 12:23:57.404,-93.66,146.93,51.45,5.46804,-0.081496,-1.9929919999999999,4
2024-06-14 12:23:57.409,-82.25,105.77,22.47,5.614439999999999,-0.22594399999999998,-1.919792,4
2024-06-14 12:23:57.414,-67.41,66.85,-2.66,5.639328,-0.423584,-1.8670879999999999,4
2024-06-14 12:23:57.419,-50.82,30.1,-21.0,5.595896,-0.654408,-1.845616,4
2024-06-14 12:23:57.424,-32.76,-5.53,-31.01,5.4577919999999995,-0.892552,-1.822192,4
2024-06-14 12:23:57.428,-10.43,-40.95,-32.9,5.2069600000000005,-1.070184,-1.7982799999999999,4
2024-06-14 12:23:57.433,15.26,-74.69,-27.16,4.913671999999999,-1.140944,-1.831952,4
2024-06-14 12:23:57.438,43.54,-106.19,-16.24,4.565728,-1.096048,-1.875872,4
2024-06-14 12:23:57.443,71.96,-134.68,-3.64,4.19192,-0.931592,-1.91052,4
2024-06-14 12:23:57.448,112.42,-200.34,-2.87,2.8601680000000003,1.685064,-4.058696,4
2024-06-14 12:23:57.453,174.86,-338.59,-58.8,0.25473599999999996,-1.471808,-0.72468,4
2024-06-14 12:23:57.458,334.67,-131.74,-29.89,-4.687728,1.973472,0.76616,4
