time,gyroscope_x,gyroscope_y,gyroscope_z,accelerometer_x,accelerometer_y,accelerometer_z,phase
2024-06-14 11:01:16.964,-173.32,-537.11,-15.61,0.647088,0.7076,-11.219119999999998,1
2024-06-14 11:01:16.968,-235.13,-231.49,-13.09,-0.814472,-0.093208,6.894952,1
2024-06-14 11:01:16.973,-137.41,-249.48,5.81,-4.00404,0.362584,-1.37616,1
2024-06-14 11:01:16.978,-205.38,-273.56,2.8,0.108336,-0.0732,-1.423984,1
2024-06-14 11:01:16.983,-180.46,-301.28,-5.04,-1.041392,-0.07027199999999999,-1.179984,1
2024-06-14 11:01:16.988,-152.18,-312.06,-11.76,0.002928,0.056119999999999996,-1.3908,1
2024-06-14 11:01:16.993,-123.62,-297.99,-16.66,0.29133600000000004,0.22106399999999998,-1.513776,1
2024-06-14 11:01:16.997,-103.95,-276.22,-18.2,0.56852,0.27571999999999997,-1.5049919999999999,1
2024-06-14 11:01:17.002,-89.39,-258.23,-18.13,0.589504,0.179584,-1.5064559999999998,1
2024-06-14 11:01:17.007,-52.15,-247.31,-21.84,0.371856,0.14396,-1.625528,1
2024-06-14 11:01:17.012,-24.36,-232.89,-27.72,0.108824,-0.015616,-1.475712,1
2024-06-14 11:01:17.017,-27.23,-226.8,-31.43,-0.034159999999999996,0.013663999999999999,-1.491816,1
2024-06-14 11:01:17.021,-22.54,-212.03,-26.95,0.004391999999999999,0.32452,-1.7109279999999998,1
2024-06-14 11:01:17.026,-20.37,-194.04,-16.24,0.083448,0.32696,-1.621624,1
2024-06-14 11:01:17.031,-31.5,-179.13,-8.12,0.20447200000000001,0.11223999999999999,-1.7324,1
2024-06-14 11:01:17.036,-21.91,-142.87,-7.0,0.301584,0.169336,-1.8177999999999999,1
2024-06-14 11:01:17.041,-21.14,-115.08,-4.41,0.23277599999999998,0.042944,-1.672376,1
2024-06-14 11:01:17.046,-19.81,-52.85,-5.04,0.165432,0.032695999999999996,-1.815848,1
2024-06-14 11:01:17.050,-10.85,-60.34,-9.17,0.13224799999999998,0.010248,-1.549888,1
2024-06-14 11:01:17.055,-10.5,-53.62,-10.78,0.088816,0.032695999999999996,-1.423984,1
2024-06-14 11:01:17.060,-6.02,-35.84,-10.78,0.272304,0.131272,-1.4771759999999998,1
2024-06-14 11:01:17.065,-1.61,-14.77,-3.92,0.150304,0.032695999999999996,-1.21024,1
2024-06-14 11:01:17.070,-6.23,-17.29,-0.91,0.042944,0.066368,-1.155096,1
2024-06-14 11:01:17.075,-1.82,-20.44,0.0,0.083936,0.068808,-1.119472,1
2024-06-14 11:01:17.079,1.19,-19.53,0.98,0.101992,-0.087352,-1.063352,1
2024-06-14 11:01:17.084,3.64,-22.68,-0.21,-0.018544,0.083936,-1.113128,1
2024-06-14 11:01:17.089,7.0,-21.7,-1.68,0.034159999999999996,-0.000976,-1.0833599999999999,1
2024-06-14 11:01:17.094,3.78,-20.44,-4.62,0.14444800000000002,-0.18788,-1.05652,1
2024-06-14 11:01:17.099,2.73,-19.67,-2.66,0.076128,0.06490399999999999,-1.121424,1
2024-06-14 11:01:17.104,0.91,-19.53,-2.17,0.045384,0.041479999999999996,-1.0560319999999999,1
2024-06-14 11:01:17.108,-0.35,-18.69,-1.05,0.060024,0.023912,-1.0657919999999999,1
2024-06-14 11:01:17.113,0.21,-18.27,-0.42,0.041968,0.024399999999999998,-1.060912,1
2024-06-14 11:01:17.118,0.98,-17.57,-0.49,0.035624,0.026352,-1.059936,1
2024-06-14 11:01:17.123,2.45,-18.34,-0.35,0.034159999999999996,0.038064,-1.064816,1
2024-06-14 11:01:17.128,3.99,-19.88,-0.84,0.01952,0.11956,-1.08092,2
2024-06-14 11:01:17.133,6.3,-23.1,-0.28,0.036112000000000005,0.035135999999999994,-1.057008,2
2024-06-14 11:01:17.137,7.91,-26.81,-0.42,0.023424,0.029768,-1.057008,2
2024-06-14 11:01:17.142,9.66,-30.52,-0.42,0.016104,0.045872,-1.05652,2
2024-06-14 11:01:17.147,11.2,-34.09,-1.47,0.0366,-0.0034159999999999998,-1.052616,2
2024-06-14 11:01:17.152,12.81,-37.03,-0.84,0.027327999999999998,0.030744,-1.062864,2
2024-06-14 11:01:17.157,14.7,-38.36,-1.33,0.037576,-0.002928,-1.033584,2
2024-06-14 11:01:17.161,15.05,-40.6,-1.89,0.048312,0.025864,-1.062864,2
2024-06-14 11:01:17.165,16.52,-41.09,-1.54,0.059048,-0.02684,-1.049688,2
2024-06-14 11:01:17.170,16.8,-40.67,-1.82,0.052704,-0.01952,-1.047248,2
2024-06-14 11:01:17.175,17.22,-40.6,-1.54,0.048799999999999996,0.032208,-1.050176,2
2024-06-14 11:01:17.180,17.64,-39.76,-1.26,0.042944,0.05856,-1.025288,2
2024-06-14 11:01:17.185,17.92,-43.4,-1.4,-0.012688,0.049775999999999994,-1.043344,2
2024-06-14 11:01:17.189,17.99,-38.01,-0.91,0.027816,0.050752,-1.00772,2
2024-06-14 11:01:17.194,17.01,-38.57,-0.84,-0.02928,0.06344,-1.052128,2
2024-06-14 11:01:17.199,17.01,-37.8,-0.98,0.060512,0.044408,-1.010648,2
2024-06-14 11:01:17.204,16.38,-36.05,-1.05,-0.040015999999999996,0.028791999999999998,-1.0535919999999999,2
2024-06-14 11:01:17.209,15.4,-35.0,-1.33,0.06344,0.013663999999999999,-1.01016,2
2024-06-14 11:01:17.214,14.42,-34.16,-1.05,-0.051728,0.054168,-1.041392,2
2024-06-14 11:01:17.218,12.46,-35.14,-0.7,0.020984,0.034159999999999996,-0.994544,2
2024-06-14 11:01:17.223,9.87,-34.51,-0.56,-0.081984,0.054168,-1.0755519999999998,2
2024-06-14 11:01:17.228,5.04,-14.98,-0.98,0.042455999999999994,0.023912,-0.987712,2
2024-06-14 11:01:17.233,4.06,-32.2,-0.56,0.12688,-0.061975999999999996,-0.9882,2
2024-06-14 11:01:17.238,2.94,-35.0,-0.63,0.060512,-0.001464,-0.99552,2
2024-06-14 11:01:17.243,-1.12,-32.9,0.56,0.203984,-0.028304,-0.893528,2
2024-06-14 11:01:17.247,-2.1,-33.88,0.14,0.093208,-0.024399999999999998,-0.97356,2
2024-06-14 11:01:17.252,-0.56,-30.38,0.63,0.14444800000000002,0.00976,-0.900848,2
2024-06-14 11:01:17.257,-4.13,-35.07,0.14,0.098576,-0.012199999999999999,-0.982832,2
2024-06-14 11:01:17.262,-1.89,-36.47,0.63,-0.119072,0.054655999999999996,-1.0555439999999998,2
2024-06-14 11:01:17.267,-4.9,-36.61,0.7,0.055632,0.030256,-0.98332,2
2024-06-14 11:01:17.272,-4.34,-35.56,1.19,0.113216,-0.00732,-0.992592,2
2024-06-14 11:01:17.276,-3.92,-35.7,2.1,0.06539199999999999,-0.04392,-1.0438319999999999,2
2024-06-14 11:01:17.281,-4.83,-70.49,1.33,0.11175199999999999,-0.000976,-1.00284,2
2024-06-14 11:01:17.286,-1.68,-57.05,0.63,0.122488,0.018056000000000003,-0.9940559999999999,2
2024-06-14 11:01:17.291,-7.07,-50.68,1.33,0.210816,-0.052704,-0.968192,2
2024-06-14 11:01:17.296,-0.7,-46.13,0.56,0.122976,-0.006344,-0.9940559999999999,2
2024-06-14 11:01:17.301,-3.01,-41.79,1.54,0.127856,0.020984,-0.988688,2
2024-06-14 11:01:17.305,-2.03,-41.02,1.89,0.078568,0.034648,-0.9969839999999999,2
2024-06-14 11:01:17.310,0.07,-35.21,1.54,0.077104,0.083448,-1.006256,2
2024-06-14 11:01:17.315,-1.47,-34.79,0.77,0.13810399999999998,0.011712,-0.9921039999999999,2
2024-06-14 11:01:17.320,0.42,-32.13,0.49,0.13224799999999998,0.018544,-1.0004,2
2024-06-14 11:01:17.325,0.35,-29.33,1.26,0.16835999999999998,-0.024887999999999997,-1.0194320000000001,2
2024-06-14 11:01:17.330,-0.77,-30.03,1.05,0.13419999999999999,-0.001464,-1.0189439999999998,2
2024-06-14 11:01:17.334,-0.98,-30.66,1.4,0.14005599999999999,0.002928,-1.011624,2
2024-06-14 11:01:17.339,-2.87,-30.38,1.19,0.13468799999999997,0.00732,-1.0194320000000001,2
2024-06-14 11:01:17.344,-3.78,-29.4,1.33,0.18056,0.003904,-0.94428,2
2024-06-14 11:01:17.349,-4.62,-31.36,1.33,0.1464,-0.000488,-1.005768,2
2024-06-14 11:01:17.354,-5.95,-30.94,1.61,0.152744,0.0,-0.989664,2
2024-06-14 11:01:17.359,-5.67,-31.08,2.03,0.14884,0.006344,-0.9882,2
2024-06-14 11:01:17.363,-4.62,-26.81,2.24,0.08686400000000001,0.047335999999999996,-1.021872,2
2024-06-14 11:01:17.368,-5.6,-30.38,2.31,0.147864,0.016104,-1.035048,2
2024-06-14 11:01:17.373,-5.39,-31.78,2.17,0.156648,0.004391999999999999,-1.003816,2
2024-06-14 11:01:17.378,-5.04,-31.22,2.24,0.16006399999999998,0.020496,-1.008208,2
2024-06-14 11:01:17.383,-5.39,-31.29,2.17,0.16250399999999998,0.023424,-1.0189439999999998,2
2024-06-14 11:01:17.388,-4.2,-31.92,1.96,0.16738399999999998,0.033184,-1.0238239999999998,2
2024-06-14 11:01:17.392,-2.87,-31.85,1.61,0.169336,0.039528,-1.0477359999999998,2
2024-06-14 11:01:17.397,-1.68,-32.13,0.91,0.17812,0.044896,-1.052128,2
2024-06-14 11:01:17.402,-0.35,-31.15,0.21,0.206424,0.022936,-1.020896,3
2024-06-14 11:01:17.407,1.96,-31.57,-0.21,0.177632,0.052216,-1.040416,3
2024-06-14 11:01:17.412,2.03,-34.09,-0.98,0.177632,0.031232,-1.064328,3
2024-06-14 11:01:17.417,3.71,-36.05,-1.54,0.179584,0.038064,-1.09068,3
2024-06-14 11:01:17.421,9.31,-38.92,-2.03,0.183976,0.037576,-1.114104,3
2024-06-14 11:01:17.426,20.79,-41.72,-1.96,0.182512,0.056119999999999996,-1.15168,3
2024-06-14 11:01:17.431,35.35,-42.7,-0.98,0.184952,0.022936,-1.150216,3
2024-06-14 11:01:17.436,37.45,-43.96,-1.75,0.190808,0.025864,-1.1956,3
2024-06-14 11:01:17.441,38.57,-49.49,-2.8,0.185928,0.031232,-1.1712,3
2024-06-14 11:01:17.446,37.94,-54.74,-3.15,0.186416,0.015128,-1.239032,3
2024-06-14 11:01:17.450,39.41,-59.01,-3.57,0.19422399999999998,0.012688,-1.226832,3
2024-06-14 11:01:17.455,40.53,-54.95,-3.5,0.16835999999999998,0.020984,-1.403976,3
2024-06-14 11:01:17.460,36.68,-57.75,-4.34,0.21228,0.012688,-0.984784,3
2024-06-14 11:01:17.465,42.35,-65.38,-4.41,0.177144,0.025864,-1.24928,3
2024-06-14 11:01:17.470,44.17,-70.7,-4.9,0.22204,0.005368,-1.038952,3
2024-06-14 11:01:17.475,47.18,-82.81,-6.16,0.220576,0.032208,-1.258064,3
2024-06-14 11:01:17.479,50.82,-91.84,-6.51,0.22106399999999998,0.028791999999999998,-1.387384,3
2024-06-14 11:01:17.484,50.82,-98.35,-6.72,0.209352,0.0068319999999999995,-1.3898240000000002,3
2024-06-14 11:01:17.489,46.2,-107.1,-7.0,0.216184,-0.018544,-1.407392,3
2024-06-14 11:01:17.494,45.15,-116.41,-7.21,0.209352,-0.02684,-1.4508240000000001,3
2024-06-14 11:01:17.499,45.15,-126.28,-7.35,0.206912,-0.041479999999999996,-1.48596,3
2024-06-14 11:01:17.504,45.01,-136.57,-7.42,0.202032,-0.049288,-1.585512,3
2024-06-14 11:01:17.508,43.33,-151.34,-6.86,0.20105599999999998,-0.08003199999999999,-1.5372000000000001,3
2024-06-14 11:01:17.513,40.39,-162.75,-6.02,0.20105599999999998,-0.107848,-1.5045039999999998,3
2024-06-14 11:01:17.518,36.82,-173.11,-4.83,0.198616,-0.09711199999999999,-1.549888,3
2024-06-14 11:01:17.523,33.81,-180.18,-4.2,0.19032,-0.06831999999999999,-1.645536,3
2024-06-14 11:01:17.528,35.42,-196.07,-3.64,0.202032,-0.05124,-1.695312,3
2024-06-14 11:01:17.533,34.44,-209.02,-3.5,0.17372800000000002,-0.062952,-1.631872,3
2024-06-14 11:01:17.537,35.35,-224.21,-2.17,0.174216,-0.136152,-1.708,3
2024-06-14 11:01:17.542,35.91,-238.7,0.14,0.174704,-0.171776,-1.82024,3
2024-06-14 11:01:17.547,35.35,-254.94,2.94,0.147864,-0.18544,-1.8778240000000002,3
2024-06-14 11:01:17.552,33.88,-274.47,5.67,0.14054399999999997,-0.227896,-1.985672,3
2024-06-14 11:01:17.557,34.3,-294.35,9.03,0.195688,-0.220576,-2.1120639999999997,3
2024-06-14 11:01:17.562,34.93,-311.64,13.09,0.18056,-0.22935999999999998,-2.338496,3
2024-06-14 11:01:17.566,37.38,-336.07,18.83,0.133712,-0.372832,-2.4156,3
2024-06-14 11:01:17.571,43.05,-357.7,26.67,0.09759999999999999,-0.394792,-2.358016,3
2024-06-14 11:01:17.576,48.3,-381.36,33.81,0.120048,-0.406016,-2.480504,3
2024-06-14 11:01:17.581,48.44,-407.96,38.99,0.156648,-0.40503999999999996,-2.62788,3
2024-06-14 11:01:17.586,44.73,-435.12,45.15,0.088328,-0.370392,-2.875784,3
2024-06-14 11:01:17.591,40.04,-462.28,48.44,0.132736,-0.308904,-2.9846079999999997,3
2024-06-14 11:01:17.595,38.99,-487.13,48.93,0.165432,-0.27083999999999997,-3.126616,3
2024-06-14 11:01:17.600,43.19,-505.26,47.46,0.208376,-0.240584,-3.173952,3
2024-06-14 11:01:17.605,56.56,-512.68,47.46,0.235704,-0.25473599999999996,-2.98412,3
2024-06-14 11:01:17.610,70.91,-516.81,50.05,0.227896,-0.125416,-2.8274719999999998,3
2024-06-14 11:01:17.615,64.4,-517.51,50.61,0.247416,0.021472,-2.8577280000000003,3
2024-06-14 11:01:17.620,49.91,-520.17,48.09,0.32939999999999997,0.085888,-2.997296,3
2024-06-14 11:01:17.624,41.65,-521.29,42.7,0.205936,-0.09272,-3.081232,3
2024-06-14 11:01:17.629,42.28,-520.66,49.35,-0.01464,-0.37868799999999997,-2.868464,3
2024-06-14 11:01:17.634,24.43,-520.45,59.29,0.10492,-0.60268,-2.9104319999999997,3
2024-06-14 11:01:17.639,4.41,-524.37,59.57,-0.11223999999999999,-0.50752,-2.789408,3
2024-06-14 11:01:17.644,12.32,-523.53,63.91,-0.38600799999999996,-0.515328,-2.280424,4
2024-06-14 11:01:17.649,25.83,-498.4,67.62,-0.920368,-0.574864,-1.65676,4
2024-06-14 11:01:17.653,28.28,-454.02,71.54,-1.20048,-0.8701039999999999,-1.274168,4
2024-06-14 11:01:17.658,36.4,-404.32,80.64,-1.617232,-1.1468,-1.520608,4
2024-06-14 11:01:17.663,75.88,-341.67,101.01,-1.775344,-1.340048,-1.260992,4
2024-06-14 11:01:17.668,99.96,-268.45,128.24,-1.6421199999999998,-1.12972,-1.1946240000000001,4
2024-06-14 11:01:17.673,113.54,-193.83,144.9,-1.541104,-0.683688,-1.236104,4
2024-06-14 11:01:17.678,128.03,-126.42,154.7,-1.786568,-0.363072,-1.0833599999999999,4
2024-06-14 11:01:17.682,116.06,-64.12,156.87,-1.658224,-0.06539199999999999,-1.4844959999999998,4
2024-06-14 11:01:17.687,93.66,-4.97,138.25,-1.223904,0.10052799999999999,-0.857904,4
2024-06-14 11:01:17.692,62.79,51.66,105.35,-1.5259759999999998,0.054655999999999996,-1.201944,4
2024-06-14 11:01:17.697,26.11,110.88,79.66,-1.821704,0.07808,-1.071648,4
2024-06-14 11:01:17.702,-26.18,155.26,63.14,-1.8670879999999999,0.28694400000000003,-0.94916,4
2024-06-14 11:01:17.707,-64.05,188.37,53.13,-1.53964,0.209352,-1.103856,4
2024-06-14 11:01:17.711,-94.85,196.91,46.27,-1.2234159999999998,0.06783199999999999,-0.89304,4
2024-06-14 11:01:17.716,-123.06,201.18,40.95,-0.979904,-0.26449599999999995,-0.853024,4
2024-06-14 11:01:17.721,-137.83,202.02,33.81,-0.9989359999999999,-0.220088,-0.808128,4
2024-06-14 11:01:17.726,-139.79,207.34,31.99,-1.010648,-0.336232,-0.697352,4
2024-06-14 11:01:17.731,-129.36,215.46,32.97,-0.9901519999999999,-0.44408,-0.6153679999999999,4
2024-06-14 11:01:17.736,-109.41,224.91,36.54,-0.920368,-0.5094719999999999,-0.5729120000000001,4
2024-06-14 11:01:17.740,-84.98,233.94,41.16,-0.846192,-0.5343600000000001,-0.564616,4
2024-06-14 11:01:17.745,-59.71,243.81,45.71,-0.78324,-0.515816,-0.569496,4
2024-06-14 11:01:17.750,-34.65,256.34,49.35,-0.740296,-0.47433600000000004,-0.5875520000000001,4
2024-06-14 11:01:17.755,-12.25,269.15,51.1,-0.703696,-0.40259999999999996,-0.6065839999999999,4
2024-06-14 11:01:17.760,4.9,280.98,50.89,-0.655872,-0.311832,-0.641232,4
2024-06-14 11:01:17.765,16.45,291.76,48.51,-0.6070720000000001,-0.214232,-0.6792959999999999,4
2024-06-14 11:01:17.769,22.82,300.44,44.17,-0.5611999999999999,-0.12736799999999998,-0.7276079999999999,4
2024-06-14 11:01:17.774,24.71,309.12,37.8,-0.51728,-0.053192,-0.767624,4
2024-06-14 11:01:17.779,23.17,316.96,29.96,-0.487512,0.002928,-0.8017839999999999,4
2024-06-14 11:01:17.784,19.25,324.59,21.21,-0.455304,0.032695999999999996,-0.833016,4
2024-06-14 11:01:17.789,14.77,331.87,12.04,-0.419192,0.043432000000000005,-0.8642479999999999,4
2024-06-14 11:01:17.794,11.41,339.15,3.15,-0.391864,0.027816,-0.901336,4
2024-06-14 11:01:17.798,10.01,347.62,-5.11,-0.36356,0.000488,-0.945256,4
2024-06-14 11:01:17.803,10.85,355.81,-12.74,-0.333792,-0.032208,-0.994544,4
2024-06-14 11:01:17.808,13.93,363.93,-19.04,-0.298168,-0.077592,-1.04188,4
2024-06-14 11:01:17.813,19.18,371.7,-24.29,-0.26693599999999995,-0.121512,-1.094096,4
2024-06-14 11:01:17.818,26.18,378.42,-27.79,-0.22838399999999998,-0.156648,-1.15168,4
2024-06-14 11:01:17.823,33.67,382.97,-29.82,-0.184952,-0.176656,-1.21512,4
2024-06-14 11:01:17.827,41.23,386.4,-30.17,-0.147864,-0.192272,-1.2834400000000001,4
2024-06-14 11:01:17.832,48.72,388.64,-28.84,-0.105896,-0.192272,-1.355176,4
2024-06-14 11:01:17.837,55.51,389.97,-26.11,-0.055632,-0.18104800000000001,-1.431792,4
2024-06-14 11:01:17.842,61.39,390.53,-22.82,-0.0068319999999999995,-0.16348,-1.504016,4
2024-06-14 11:01:17.847,66.15,390.74,-19.67,0.040504,-0.128832,-1.58844,4
2024-06-14 11:01:17.852,69.44,390.67,-17.22,0.08295999999999999,-0.089792,-1.667984,4
2024-06-14 11:01:17.856,71.12,392.77,-15.61,0.11956,-0.042455999999999994,-1.7465519999999999,4
2024-06-14 11:01:17.861,71.26,394.66,-15.47,0.15128,-0.0034159999999999998,-1.824632,4
2024-06-14 11:01:17.866,70.14,396.9,-16.59,0.17812,0.02684,-1.899296,4
2024-06-14 11:01:17.871,68.67,398.65,-19.04,0.202032,0.048312,-1.981768,4
2024-06-14 11:01:17.876,67.62,399.35,-22.47,0.23424,0.054655999999999996,-2.0574079999999997,4
2024-06-14 11:01:17.881,67.62,399.35,-26.74,0.27083999999999997,0.054168,-2.134512,4
2024-06-14 11:01:17.885,68.95,398.65,-31.29,0.311832,0.039528,-2.2140560000000002,4
2024-06-14 11:01:17.890,71.89,398.09,-35.63,0.367952,0.030744,-2.302872,4
2024-06-14 11:01:17.895,75.18,397.18,-39.62,0.428952,0.022936,-2.3833919999999997,4
2024-06-14 11:01:17.900,78.12,395.64,-43.19,0.496784,0.015128,-2.452688,4
2024-06-14 11:01:17.905,80.78,394.87,-46.41,0.565104,0.024399999999999998,-2.525888,4
2024-06-14 11:01:17.910,83.23,394.66,-49.63,0.636352,0.04392,-2.5986,4
2024-06-14 11:01:17.914,84.0,395.78,-53.41,0.716872,0.07222400000000001,-2.661552,4
2024-06-14 11:01:17.919,82.67,397.6,-58.17,0.807152,0.088816,-2.711816,4
2024-06-14 11:01:17.924,79.66,400.33,-63.63,0.908168,0.08930400000000001,-2.769888,4
2024-06-14 11:01:17.929,75.88,402.92,-69.09,1.0384639999999998,0.071248,-2.834304,4
2024-06-14 11:01:17.934,71.82,405.86,-74.2,1.191208,0.04636,-2.890424,4
2024-06-14 11:01:17.939,67.48,406.42,-78.4,1.382992,0.013176,-2.934344,4
2024-06-14 11:01:17.943,63.49,405.3,-81.62,1.60796,-0.027816,-2.9533759999999996,4
2024-06-14 11:01:17.948,60.62,400.05,-83.58,1.844152,-0.072712,-2.93288,4
2024-06-14 11:01:17.953,58.87,390.25,-84.0,2.0788800000000003,-0.108336,-2.886032,4
2024-06-14 11:01:17.958,58.38,376.6,-82.88,2.30092,-0.127856,-2.798192,4
2024-06-14 11:01:17.963,57.26,359.94,-80.29,2.5053919999999996,-0.107848,-2.6796079999999995,4
2024-06-14 11:01:17.968,54.11,337.82,-77.7,2.664968,-0.062464,-2.612752,4
2024-06-14 11:01:17.972,40.32,313.46,-76.09,2.9275119999999997,-0.119072,-2.4966079999999997,4
2024-06-14 11:01:17.977,18.9,284.9,-74.27,3.175416,-0.186904,-2.33996,4
2024-06-14 11:01:17.982,-0.49,255.08,-71.12,3.356464,-0.250344,-2.116944,4
2024-06-14 11:01:17.987,-11.97,224.56,-66.22,3.47212,-0.350872,-1.83244,4
2024-06-14 11:01:17.992,-12.04,194.6,-58.45,3.621936,-0.459696,-1.5469600000000001,4
2024-06-14 11:01:17.997,3.71,168.35,-47.74,3.81616,-0.5045919999999999,-1.353712,4
2024-06-14 11:01:18.001,28.28,144.55,-35.91,4.024536,-0.455792,-1.220488,4
2024-06-14 11:01:18.006,48.65,118.58,-25.27,4.221688,-0.3172,-1.103368,4
2024-06-14 11:01:18.011,61.46,91.49,-17.57,4.349544,-0.122976,-1.0091839999999999,4
2024-06-14 11:01:18.016,66.15,62.72,-13.02,4.397367999999999,0.091256,-0.960384,4
2024-06-14 11:01:18.021,62.65,31.57,-11.9,4.3890720000000005,0.29524,-0.9516,4
2024-06-14 11:01:18.026,50.82,-3.01,-15.33,4.312456,0.44408,-0.984784,4
2024-06-14 11:01:18.030,31.85,-39.27,-21.35,4.149464,0.504104,-1.033096,4
2024-06-14 11:01:18.035,-172.62,-328.86,-39.27,7.04428,1.71532,-6.007768,4
