time,gyroscope_x,gyroscope_y,gyroscope_z,accelerometer_x,accelerometer_y,accelerometer_z,phase
2024-06-14 11:01:14.352,90.09,-314.09,45.99,5.75596,-0.493368,-5.526112,1
2024-06-14 11:01:14.356,155.33,-377.86,14.77,5.183536,0.86864,0.10003999999999999,1
2024-06-14 11:01:14.361,79.17,-355.6,-45.08,-1.413248,-0.634888,0.289872,1
2024-06-14 11:01:14.366,254.03,-373.52,-38.08,1.130208,0.328424,-1.504016,1
2024-06-14 11:01:14.371,244.23,-401.03,-30.94,0.045384,0.020007999999999998,-1.721664,1
2024-06-14 11:01:14.376,245.0,-346.92,-16.1,0.036112000000000005,0.22935999999999998,-1.5518399999999999,1
2024-06-14 11:01:14.380,208.74,-336.21,5.6,-0.255224,-0.052216,-1.900272,1
2024-06-14 11:01:14.385,185.92,-331.31,24.08,0.059536,0.06978399999999998,-1.7977919999999998,1
2024-06-14 11:01:14.390,153.02,-312.2,41.02,0.25668799999999997,-0.243024,-2.2291839999999996,1
2024-06-14 11:01:14.395,101.01,-278.46,55.02,0.532408,-0.28206400000000004,-1.8919759999999999,1
2024-06-14 11:01:14.400,84.49,-250.67,56.28,0.49580799999999997,-0.610976,-2.439512,1
2024-06-14 11:01:14.404,43.47,-221.48,49.35,0.5475359999999999,-0.467016,-1.957856,1
2024-06-14 11:01:14.409,31.36,-199.36,36.19,0.373808,-0.554856,-2.649352,1
2024-06-14 11:01:14.414,19.11,-148.89,19.6,0.296704,-0.506544,-2.132072,1
2024-06-14 11:01:14.419,20.65,-122.22,2.17,0.248392,-0.179096,-1.99348,1
2024-06-14 11:01:14.424,4.06,-105.28,-3.22,0.325496,0.040504,-2.031544,1
2024-06-14 11:01:14.428,1.61,-87.29,-0.56,0.35721600000000003,0.260592,-1.665544,1
2024-06-14 11:01:14.433,-5.18,-71.54,5.39,0.342576,0.299144,-1.491816,1
2024-06-14 11:01:14.438,-8.47,-68.46,13.02,0.29768,0.240584,-1.4771759999999998,1
2024-06-14 11:01:14.443,-11.97,-48.93,15.61,0.084424,-0.03904,-1.2229279999999998,1
2024-06-14 11:01:14.447,-4.83,-33.81,8.82,0.125904,-0.104432,-1.0955599999999999,1
2024-06-14 11:01:14.448,-8.75,-39.27,12.18,0.101504,-0.043432000000000005,-1.131672,1
2024-06-14 11:01:14.451,-4.9,-27.51,3.43,0.106384,-0.050263999999999996,-1.0438319999999999,1
2024-06-14 11:01:14.456,-5.88,-21.91,0.63,0.037576,-0.125904,-1.031144,1
2024-06-14 11:01:14.461,-9.03,-18.27,-0.28,0.07027199999999999,-0.020007999999999998,-1.007232,1
2024-06-14 11:01:14.466,-8.47,-13.16,3.92,0.165432,0.208376,-0.988688,1
2024-06-14 11:01:14.471,-7.42,-11.69,1.4,0.056608,-0.068808,-1.1028799999999999,1
2024-06-14 11:01:14.475,-4.69,-10.36,3.01,0.027327999999999998,-0.069296,-1.04432,1
2024-06-14 11:01:14.480,-1.61,-11.2,2.45,0.045872,-0.039528,-1.060912,1
2024-06-14 11:01:14.485,-0.84,-12.95,2.8,0.008296,-0.25132,-1.091168,2
2024-06-14 11:01:14.490,-4.34,-14.77,0.84,0.016592,-0.081984,-1.0775039999999998,2
2024-06-14 11:01:14.495,-6.86,-16.73,0.07,0.039528,-0.08247199999999999,-1.0735999999999999,2
2024-06-14 11:01:14.500,-9.73,-18.9,0.98,0.018544,-0.184464,-1.0833599999999999,2
2024-06-14 11:01:14.504,-13.09,-22.05,-0.21,0.032695999999999996,-0.037576,-1.066768,2
2024-06-14 11:01:14.509,-13.51,-25.41,0.98,0.052704,0.02196,-1.062864,2
2024-06-14 11:01:14.514,-15.12,-30.52,-0.63,0.027816,-0.033184,-1.071648,2
2024-06-14 11:01:14.519,-15.33,-32.83,0.77,0.050263999999999996,0.11956,-1.016504,2
2024-06-14 11:01:14.524,-15.82,-34.3,-0.7,0.0068319999999999995,-0.1098,-1.061888,2
2024-06-14 11:01:14.529,-17.43,-35.49,-1.12,0.025864,-0.083936,-1.021872,2
2024-06-14 11:01:14.533,-17.36,-37.31,-0.35,0.027327999999999998,-0.081496,-1.057008,2
2024-06-14 11:01:14.538,-18.9,-40.74,-0.98,0.033671999999999994,-0.059048,-1.04188,2
2024-06-14 11:01:14.543,-20.37,-42.91,-1.05,0.04636,-0.063928,-1.02236,2
2024-06-14 11:01:14.548,-22.05,-47.46,-0.84,0.028791999999999998,-0.025864,-1.03212,2
2024-06-14 11:01:14.553,-23.94,-45.22,-0.42,0.041479999999999996,-0.0068319999999999995,-1.03456,2
2024-06-14 11:01:14.558,-26.39,-46.06,-0.35,0.050263999999999996,-0.041968,-1.03456,2
2024-06-14 11:01:14.562,-26.74,-52.5,-0.42,0.058072,-0.015128,-1.043344,2
2024-06-14 11:01:14.567,-28.42,-54.6,-0.49,0.0366,-0.021472,-1.042368,2
2024-06-14 11:01:14.572,-29.19,-56.49,-0.42,0.038064,-0.041479999999999996,-1.0365119999999999,2
2024-06-14 11:01:14.577,-30.1,-57.12,-0.28,0.04392,-0.040504,-1.040416,2
2024-06-14 11:01:14.582,-29.26,-58.52,-0.49,0.078568,-0.027816,-1.02236,2
2024-06-14 11:01:14.587,-28.91,-57.89,-0.7,0.103456,-0.016592,-1.005768,2
2024-06-14 11:01:14.591,-28.0,-57.89,-0.84,0.083448,0.011224,-1.010648,2
2024-06-14 11:01:14.596,-25.41,-58.03,-0.84,0.039528,-0.000976,-1.015528,2
2024-06-14 11:01:14.601,-23.52,-57.82,-0.84,0.042455999999999994,-0.024399999999999998,-1.010648,2
2024-06-14 11:01:14.606,-21.77,-60.34,-1.05,0.060512,-0.032695999999999996,-1.003328,2
2024-06-14 11:01:14.611,-20.51,-57.75,-1.12,0.08052,-0.026352,-0.9940559999999999,2
2024-06-14 11:01:14.616,-18.62,-57.54,-1.19,0.096624,-0.013176,-0.974536,2
2024-06-14 11:01:14.620,-17.01,-54.25,-1.26,0.13468799999999997,0.011224,-0.9472079999999999,2
2024-06-14 11:01:14.625,-20.16,-25.55,-1.47,0.125416,0.024887999999999997,-0.9535520000000001,2
2024-06-14 11:01:14.630,-9.52,-30.24,0.63,0.098088,-0.027327999999999998,-0.9755119999999999,2
2024-06-14 11:01:14.635,-16.03,-23.87,1.4,0.09516,-0.024887999999999997,-0.9901519999999999,2
2024-06-14 11:01:14.640,-7.21,-42.84,1.75,0.19032,0.055144,-0.959408,2
2024-06-14 11:01:14.645,-4.13,-40.25,-0.91,0.137616,-0.017567999999999997,-0.99308,2
2024-06-14 11:01:14.649,-2.73,-84.28,-1.19,0.118096,-0.012688,-0.96136,2
2024-06-14 11:01:14.654,-2.17,-45.43,0.42,0.13419999999999999,-0.02684,-0.9969839999999999,2
2024-06-14 11:01:14.659,-4.13,-44.24,0.49,0.12980799999999998,0.008296,-0.965264,2
2024-06-14 11:01:14.664,-2.59,-44.87,-1.19,0.108336,-0.044408,-1.002352,2
2024-06-14 11:01:14.669,-4.69,-43.89,-2.66,0.137616,-0.006344,-1.013088,2
2024-06-14 11:01:14.674,-5.53,-43.75,-1.82,0.152256,0.002928,-0.987712,2
2024-06-14 11:01:14.678,-7.63,-45.22,-1.47,0.161528,-0.007808,-0.9901519999999999,2
2024-06-14 11:01:14.683,-5.95,-44.24,-2.03,0.197152,0.039528,-0.946232,2
2024-06-14 11:01:14.688,-6.58,-39.13,-3.36,0.15616,-0.027327999999999998,-1.006256,2
2024-06-14 11:01:14.693,-5.25,-39.13,-2.73,0.149816,0.059536,-0.9764879999999999,2
2024-06-14 11:01:14.698,-1.4,-40.11,-1.61,0.16250399999999998,-0.033184,-0.976,2
2024-06-14 11:01:14.703,1.47,-36.89,-2.03,0.16835999999999998,0.028304,-1.01992,2
2024-06-14 11:01:14.707,2.87,-35.56,-3.01,0.17372800000000002,0.008783999999999998,-1.016016,2
2024-06-14 11:01:14.712,7.0,-36.54,-3.43,0.179096,0.017567999999999997,-0.989664,2
2024-06-14 11:01:14.717,11.41,-35.98,-3.22,0.189832,-0.005856,-0.989664,2
2024-06-14 11:01:14.722,5.74,-34.02,-2.8,0.186904,0.00732,-1.007232,2
2024-06-14 11:01:14.727,8.05,-34.09,-2.87,0.182024,0.045384,-0.9964959999999999,2
2024-06-14 11:01:14.732,7.42,-34.23,-3.43,0.202032,-0.018544,-1.020896,2
2024-06-14 11:01:14.736,6.86,-34.93,-2.73,0.193736,-0.011224,-1.0248,2
2024-06-14 11:01:14.741,6.86,-36.54,-2.24,0.203008,-0.014152,-1.017968,2
2024-06-14 11:01:14.746,6.51,-37.87,-2.1,0.20544800000000002,-0.011712,-1.03212,2
2024-06-14 11:01:14.751,5.67,-39.2,-2.38,0.21472,-0.00244,-1.039928,2
2024-06-14 11:01:14.756,4.41,-40.88,-2.45,0.21032800000000001,-0.017079999999999998,-1.057008,2
2024-06-14 11:01:14.761,0.35,-41.09,-1.75,0.21862399999999999,-0.028304,-1.1048319999999998,2
2024-06-14 11:01:14.765,-6.3,-41.86,-1.26,0.206424,-0.034159999999999996,-1.05652,2
2024-06-14 11:01:14.770,-6.02,-42.98,-0.98,0.23326399999999997,-0.024399999999999998,-1.1126399999999999,2
2024-06-14 11:01:14.775,-6.65,-45.57,-0.49,0.22935999999999998,-0.034648,-1.07848,2
2024-06-14 11:01:14.780,-11.62,-47.32,-0.07,0.263032,-0.010736,-1.100928,2
2024-06-14 11:01:14.785,-14.7,-49.28,0.56,0.24644,-0.041968,-1.116056,2
2024-06-14 11:01:14.790,-18.13,-50.61,1.33,0.249368,-0.011224,-1.121424,2
2024-06-14 11:01:14.794,-22.12,-50.61,1.75,0.244488,-0.033671999999999994,-1.118496,2
2024-06-14 11:01:14.799,-26.18,-52.01,2.24,0.270352,-0.028791999999999998,-1.089704,2
2024-06-14 11:01:14.804,-30.17,-53.48,3.01,0.301584,-0.017567999999999997,-1.1082480000000001,2
2024-06-14 11:01:14.809,-34.09,-55.58,3.64,0.23424,-0.023912,-1.1555840000000002,2
2024-06-14 11:01:14.814,-37.24,-57.47,4.13,0.26108,-0.028304,-1.150704,2
2024-06-14 11:01:14.819,-39.55,-60.2,4.76,0.250832,-0.026352,-1.1712,3
2024-06-14 11:01:14.823,-40.18,-63.07,5.39,0.25864,-0.027816,-1.1638799999999998,3
2024-06-14 11:01:14.828,-41.44,-64.54,6.16,0.26937599999999995,-0.027816,-1.2136559999999998,3
2024-06-14 11:01:14.833,-42.84,-68.04,7.0,0.26352,-0.028304,-1.2078,3
2024-06-14 11:01:14.838,-43.19,-72.87,7.7,0.258152,-0.033184,-1.2307359999999998,3
2024-06-14 11:01:14.843,-43.82,-78.54,8.54,0.277672,-0.040015999999999996,-1.33224,3
2024-06-14 11:01:14.848,-46.97,-86.1,9.45,0.28206400000000004,-0.000488,-1.343464,3
2024-06-14 11:01:14.852,-45.22,-95.62,9.59,0.262544,0.005368,-1.3908,3
2024-06-14 11:01:14.857,-43.61,-105.14,10.08,0.26352,0.000976,-1.3785999999999998,3
2024-06-14 11:01:14.862,-41.72,-114.66,10.36,0.267424,0.029768,-1.4454559999999999,3
2024-06-14 11:01:14.867,-40.74,-126.07,10.22,0.264984,0.030744,-1.44692,3
2024-06-14 11:01:14.872,-39.13,-137.83,10.15,0.26596,0.036112000000000005,-1.467904,3
2024-06-14 11:01:14.877,-39.48,-150.22,9.73,0.24790399999999999,0.07027199999999999,-1.5220719999999999,3
2024-06-14 11:01:14.881,-41.16,-163.87,8.75,0.24790399999999999,0.077104,-1.53232,3
2024-06-14 11:01:14.886,-43.19,-177.1,7.84,0.243024,0.073688,-1.538664,3
2024-06-14 11:01:14.891,-45.43,-190.4,6.86,0.254248,0.08003199999999999,-1.60796,3
2024-06-14 11:01:14.896,-46.69,-201.88,5.74,0.244976,0.07027199999999999,-1.600152,3
2024-06-14 11:01:14.901,-49.7,-217.21,4.9,0.24888,0.044896,-1.6992159999999998,3
2024-06-14 11:01:14.906,-52.92,-233.94,4.13,0.22447999999999999,0.093696,-1.737768,3
2024-06-14 11:01:14.910,-53.55,-250.88,2.31,0.240096,0.118096,-1.762656,3
2024-06-14 11:01:14.915,-52.64,-268.87,0.91,0.23912,0.117608,-1.895392,3
2024-06-14 11:01:14.920,-53.9,-287.07,-1.26,0.22935999999999998,0.138592,-1.984696,3
2024-06-14 11:01:14.925,-55.02,-307.93,-3.92,0.23472800000000002,0.18056,-2.0705839999999998,3
2024-06-14 11:01:14.930,-56.35,-329.77,-7.42,0.274744,0.2074,-2.1886799999999997,3
2024-06-14 11:01:14.935,-56.77,-347.76,-10.78,0.26352,0.155672,-2.3277599999999996,3
2024-06-14 11:01:14.939,-57.54,-374.22,-13.65,0.260592,0.171776,-2.453664,3
2024-06-14 11:01:14.944,-55.44,-399.91,-17.01,0.223992,0.25132,-2.539552,3
2024-06-14 11:01:14.949,-52.99,-427.56,-20.65,0.2196,0.293288,-2.658136,3
2024-06-14 11:01:14.954,-52.01,-459.2,-22.89,0.30109600000000003,0.246928,-3.037312,3
2024-06-14 11:01:14.959,-45.15,-489.65,-25.62,0.40015999999999996,0.349408,-3.282288,3
2024-06-14 11:01:14.964,-46.27,-519.19,-27.23,0.45383999999999997,0.45139999999999997,-3.38916,3
2024-06-14 11:01:14.968,-58.87,-534.03,-28.63,0.633912,0.426024,-3.3857440000000003,3
2024-06-14 11:01:14.973,-67.69,-541.31,-28.07,0.6241519999999999,0.367952,-3.449672,3
2024-06-14 11:01:14.978,-72.31,-533.75,-32.62,0.570472,0.374784,-3.0002240000000002,3
2024-06-14 11:01:14.983,-74.55,-530.81,-35.07,0.68076,0.166896,-2.6961999999999997,3
2024-06-14 11:01:14.988,-86.8,-526.61,-33.46,0.680272,0.053192,-3.180784,3
2024-06-14 11:01:14.993,-95.9,-518.42,-34.79,0.35965600000000003,0.08295999999999999,-3.249104,3
2024-06-14 11:01:14.997,-80.99,-512.33,-39.83,0.32208,0.12834399999999999,-3.121736,3
2024-06-14 11:01:15.002,-13.65,-527.17,-40.67,0.030256,0.122,-3.182248,4
2024-06-14 11:01:15.007,-33.32,-482.23,-51.94,-0.14591200000000001,0.28450400000000003,-2.185264,4
2024-06-14 11:01:15.012,-15.68,-458.85,-60.97,-0.599752,0.36844,-1.362984,4
2024-06-14 11:01:15.017,11.06,-430.43,-58.03,-1.4483840000000001,0.594384,-0.874984,4
2024-06-14 11:01:15.022,6.58,-361.69,-56.56,-1.737768,1.0482239999999998,-1.216096,4
2024-06-14 11:01:15.026,-37.73,-268.73,-87.85,-2.002752,1.37372,-1.725568,4
2024-06-14 11:01:15.031,-62.44,-192.29,-128.31,-1.4947439999999999,1.133136,-1.852936,4
2024-06-14 11:01:15.036,-84.98,-129.85,-160.37,-1.776808,0.455304,-1.951512,4
2024-06-14 11:01:15.041,-91.49,-92.96,-182.7,-0.930616,0.04392,-1.6577359999999999,4
2024-06-14 11:01:15.046,-57.4,-86.31,-175.42,-0.8593679999999999,-0.184464,-1.159976,4
2024-06-14 11:01:15.051,-22.12,-10.29,-162.4,-1.651392,-0.122,-1.346392,4
2024-06-14 11:01:15.055,19.88,47.81,-148.12,-2.046672,-0.216184,-1.159488,4
2024-06-14 11:01:15.060,63.07,90.72,-131.88,-1.921744,-0.354288,-1.126792,4
2024-06-14 11:01:15.065,102.9,119.35,-118.44,-1.538176,-0.290848,-1.0574959999999998,4
2024-06-14 11:01:15.070,138.18,132.51,-112.21,-1.286856,-0.083448,-1.022848,4
2024-06-14 11:01:15.075,163.24,138.74,-110.25,-1.25904,0.098088,-0.9960079999999999,4
2024-06-14 11:01:15.080,170.73,147.07,-107.59,-1.326384,0.245952,-0.898408,4
2024-06-14 11:01:15.084,163.94,160.44,-102.69,-1.378112,0.385032,-0.7564,4
2024-06-14 11:01:15.089,146.37,176.61,-97.93,-1.3688399999999998,0.508496,-0.660752,4
2024-06-14 11:01:15.094,121.52,194.46,-95.9,-1.318088,0.5826720000000001,-0.628544,4
2024-06-14 11:01:15.099,91.7,212.66,-96.46,-1.260016,0.59048,-0.62464,4
2024-06-14 11:01:15.104,61.11,231.0,-97.23,-1.21268,0.555344,-0.611952,4
2024-06-14 11:01:15.109,32.06,249.27,-96.53,-1.1712,0.49532,-0.604632,4
2024-06-14 11:01:15.113,7.35,266.07,-93.31,-1.113616,0.411872,-0.611952,4
2024-06-14 11:01:15.118,-12.39,281.19,-87.85,-1.0360239999999998,0.311832,-0.633912,4
2024-06-14 11:01:15.123,-27.65,294.14,-80.5,-0.9516,0.216184,-0.673928,4
2024-06-14 11:01:15.128,-38.78,305.27,-71.26,-0.864736,0.125416,-0.720776,4
2024-06-14 11:01:15.133,-47.53,315.07,-60.41,-0.7817759999999999,0.047335999999999996,-0.7759199999999999,4
2024-06-14 11:01:15.138,-53.55,324.1,-48.02,-0.7041839999999999,-0.005368,-0.8217920000000001,4
2024-06-14 11:01:15.142,-57.19,332.22,-35.21,-0.649528,-0.039528,-0.864736,4
2024-06-14 11:01:15.147,-59.64,340.83,-22.4,-0.6056079999999999,-0.06539199999999999,-0.9076799999999999,4
2024-06-14 11:01:15.152,-62.51,350.35,-10.08,-0.57096,-0.08003199999999999,-0.9486720000000001,4
2024-06-14 11:01:15.157,-65.38,360.08,1.19,-0.533384,-0.09028,-1.002352,4
2024-06-14 11:01:15.162,-67.76,369.39,11.34,-0.486048,-0.104432,-1.057008,4
2024-06-14 11:01:15.167,-69.51,377.79,19.74,-0.441152,-0.11175199999999999,-1.11752,4
2024-06-14 11:01:15.171,-70.07,384.79,26.88,-0.396256,-0.126392,-1.1721759999999999,4
2024-06-14 11:01:15.176,-69.02,390.39,32.83,-0.352824,-0.142496,-1.231712,4
2024-06-14 11:01:15.181,-66.5,394.59,37.73,-0.319152,-0.150304,-1.298568,4
2024-06-14 11:01:15.186,-63.35,398.16,41.16,-0.288408,-0.1464,-1.369816,4
2024-06-14 11:01:15.191,-60.62,400.96,43.54,-0.25912799999999997,-0.144936,-1.4483840000000001,4
2024-06-14 11:01:15.196,-58.8,402.99,44.45,-0.233752,-0.12444,-1.521584,4
2024-06-14 11:01:15.200,-58.73,405.09,44.17,-0.197152,-0.108824,-1.591368,4
2024-06-14 11:01:15.205,-60.48,407.26,42.7,-0.16494399999999998,-0.090768,-1.6699359999999999,4
2024-06-14 11:01:15.210,-63.77,409.5,40.11,-0.12736799999999998,-0.077104,-1.750944,4
2024-06-14 11:01:15.215,-68.6,412.3,36.26,-0.073688,-0.06588,-1.83,4
2024-06-14 11:01:15.220,-74.41,415.66,31.57,-0.007808,-0.07173600000000001,-1.9236959999999999,4
2024-06-14 11:01:15.225,-80.29,419.37,26.53,0.056608,-0.08686400000000001,-2.02276,4
2024-06-14 11:01:15.229,-84.98,422.87,21.84,0.13078399999999998,-0.11956,-2.124752,4
2024-06-14 11:01:15.234,-87.99,425.74,18.27,0.198128,-0.16738399999999998,-2.21796,4
2024-06-14 11:01:15.239,-87.78,428.26,16.87,0.26156799999999997,-0.247416,-2.307752,4
2024-06-14 11:01:15.244,-84.63,429.24,17.99,0.31964,-0.327936,-2.394616,4
2024-06-14 11:01:15.249,-77.42,428.75,21.98,0.374296,-0.382104,-2.4795279999999997,4
2024-06-14 11:01:15.254,-67.9,427.42,28.28,0.442616,-0.407968,-2.573224,4
2024-06-14 11:01:15.258,-58.1,425.81,36.19,0.5182559999999999,-0.40552799999999994,-2.6586239999999997,4
2024-06-14 11:01:15.263,-48.58,423.85,45.36,0.5836480000000001,-0.38600799999999996,-2.740608,4
2024-06-14 11:01:15.268,-38.22,421.96,55.09,0.649528,-0.34208799999999995,-2.81088,4
2024-06-14 11:01:15.273,-27.16,420.21,65.03,0.725168,-0.2928,-2.88408,4
2024-06-14 11:01:15.278,-15.89,418.11,74.9,0.8164239999999999,-0.22594399999999998,-2.946544,4
2024-06-14 11:01:15.283,-4.69,415.59,84.42,0.920368,-0.135176,-2.994856,4
2024-06-14 11:01:15.287,5.88,412.72,92.75,1.0365119999999999,-0.020007999999999998,-3.021696,4
2024-06-14 11:01:15.292,14.14,409.71,98.91,1.152656,0.12688,-3.014376,4
2024-06-14 11:01:15.297,13.37,406.98,100.94,1.246352,0.28450400000000003,-3.041216,4
2024-06-14 11:01:15.302,0.14,407.61,97.79,1.384456,0.426024,-3.094408,4
2024-06-14 11:01:15.307,-11.97,409.15,90.65,1.582096,0.512888,-3.0895279999999996,4
2024-06-14 11:01:15.312,-15.75,407.68,80.99,1.8080399999999999,0.545096,-3.0636639999999997,4
2024-06-14 11:01:15.316,-12.25,402.71,71.19,2.0593600000000003,0.5524159999999999,-3.01828,4
2024-06-14 11:01:15.321,-5.18,393.82,62.58,2.300432,0.5734,-2.920192,4
2024-06-14 11:01:15.326,3.5,381.15,56.21,2.5498,0.609024,-2.745976,4
2024-06-14 11:01:15.331,10.85,364.21,52.01,2.800144,0.657336,-2.521496,4
2024-06-14 11:01:15.336,13.51,343.56,50.26,3.0866,0.642696,-2.294576,4
2024-06-14 11:01:15.341,10.29,314.93,47.04,3.2461759999999997,0.776408,-2.036424,4
2024-06-14 11:01:15.345,-1.89,282.66,42.42,3.542392,0.885232,-1.7265439999999999,4
2024-06-14 11:01:15.350,-29.47,252.84,33.32,3.965976,1.067256,-1.462536,4
2024-06-14 11:01:15.355,-68.39,226.73,22.68,4.424207999999999,1.1180080000000001,-1.2287839999999999,4
2024-06-14 11:01:15.360,-108.78,197.96,5.11,4.83852,0.916952,-1.0248,4
2024-06-14 11:01:15.365,-146.93,165.06,-11.34,5.112776,0.581208,-0.8988959999999999,4
2024-06-14 11:01:15.370,-174.93,129.08,-21.77,5.268448,0.130296,-0.84424,4
2024-06-14 11:01:15.374,-183.61,88.62,-25.69,5.252344,-0.337696,-0.897432,4
2024-06-14 11:01:15.379,-166.39,43.05,-22.68,5.118632,-0.787632,-0.931592,4
2024-06-14 11:01:15.384,-122.92,-6.93,-13.37,4.8434,-1.111176,-0.934032,4
2024-06-14 11:01:15.389,-59.85,-55.79,-0.56,4.419327999999999,-1.235128,-0.95648,4
2024-06-14 11:01:15.394,10.43,-96.53,13.44,3.938648,-1.116056,-1.000888,4
2024-06-14 11:01:15.399,72.31,-125.37,24.43,3.481392,-0.771528,-1.1126399999999999,4
2024-06-14 11:01:15.403,113.75,-146.23,27.44,2.7181599999999997,0.632936,-0.884744,4
2024-06-14 11:01:15.408,229.53,-503.72,-4.06,3.892776,-0.399184,-5.33872,4
