time,gyroscope_x,gyroscope_y,gyroscope_z,accelerometer_x,accelerometer_y,accelerometer_z,phase
2024-06-14 09:19:32.966,-109.19999999999999,-336.315,-36.364999999999995,6.373768,0.427976,-0.671732,1
2024-06-14 09:19:32.971,-87.57,-362.635,-32.83,0.884012,0.40455199999999997,-1.032364,1
2024-06-14 09:19:32.976,-72.44999999999999,-385.56,-34.195,-1.228052,0.19886000000000004,-1.7033639999999999,1
2024-06-14 09:19:32.980,-60.935,-416.08,-33.25,-2.226256,-0.11126399999999997,-2.0805879999999997,1
2024-06-14 09:19:32.985,-66.675,-414.015,-21.314999999999998,-0.6856399999999999,-0.073688,-2.152568,1
2024-06-14 09:19:32.990,-91.525,-380.695,-10.64,0.997716,0.18910000000000002,-2.054724,1
2024-06-14 09:19:32.995,-99.225,-342.96500000000003,-4.199999999999999,1.069452,0.44164000000000003,-2.154764,1
2024-06-14 09:19:33.000,-86.8,-322.945,0.0,0.375272,0.264984,-2.2777399999999997,1
2024-06-14 09:19:33.005,-77.735,-313.11,-1.05,-0.15982000000000002,-0.049288,-2.5315000000000003,1
2024-06-14 09:19:33.010,-78.26,-286.44,-0.9450000000000001,0.05124000000000001,-0.058072000000000006,-2.5817639999999997,1
2024-06-14 09:19:33.014,-70.35,-235.13,0.8049999999999999,0.406992,0.07441999999999999,-2.3748519999999997,1
2024-06-14 09:19:33.019,-43.995,-169.225,-2.52,0.542168,0.17031200000000002,-2.442684,1
2024-06-14 09:19:33.024,-25.48,-103.11,-10.92,0.414556,0.146156,-2.094496,1
2024-06-14 09:19:33.029,-20.475,-77.175,-11.760000000000002,0.338672,0.071492,-1.7019,1
2024-06-14 09:19:33.034,-19.25,-67.235,-7.140000000000001,0.282308,0.073932,-1.42618,1
2024-06-14 09:19:33.039,-15.015,-60.76,-3.71,0.116632,0.15494,-1.186816,1
2024-06-14 09:19:33.043,-6.09,-52.815,-1.89,-0.059536,0.129808,-1.006988,1
2024-06-14 09:19:33.048,-2.3449999999999998,-46.515,-0.63,-0.204228,0.046116,-0.95526,1
2024-06-14 09:19:33.053,-3.045,-43.05,1.5050000000000001,-0.23863199999999998,-0.029768,-0.930128,1
2024-06-14 09:19:33.058,-7.1049999999999995,-38.185,3.08,-0.153476,-0.079788,-0.9335439999999999,1
2024-06-14 09:19:33.063,-11.55,-33.11,1.47,0.002196,-0.07686000000000001,-0.9398880000000001,1
2024-06-14 09:19:33.068,-14.315000000000001,-25.97,-1.05,0.07417599999999999,-0.020252,-0.970388,1
2024-06-14 09:19:33.073,-14.350000000000001,-20.685,-1.505,0.05002,0.037332000000000004,-1.033096,1
2024-06-14 09:19:33.077,-13.370000000000001,-19.985,-1.12,-0.0183,0.064904,-1.0850680000000001,1
2024-06-14 09:19:33.082,-10.885,-23.590000000000003,-1.645,-0.059047999999999996,0.040748,-1.0736,1
2024-06-14 09:19:33.087,-10.745000000000001,-25.165,-2.24,-0.062464,-0.019276,-1.0604239999999998,1
2024-06-14 09:19:33.092,-12.915,-25.759999999999998,-1.96,-0.05538799999999999,-0.036844,-1.043588,1
2024-06-14 09:19:33.097,-14.559999999999999,-23.450000000000003,-1.7850000000000001,-0.056364,-0.013420000000000001,-1.0189439999999998,1
2024-06-14 09:19:33.102,-14.945,-23.799999999999997,-1.19,-0.056852,0.018788,-1.0396839999999998,1
2024-06-14 09:19:33.106,-13.58,-24.57,-0.665,-0.050752,0.051727999999999996,-1.062376,1
2024-06-14 09:19:33.111,-11.024999999999999,-26.145,-0.77,-0.047336,0.056364,-1.075552,1
2024-06-14 09:19:33.116,-8.33,-27.755,-0.8049999999999999,-0.066612,0.05246,-1.0677439999999998,2
2024-06-14 09:19:33.121,-6.09,-28.909999999999997,-0.77,-0.070028,0.036844,-1.051396,2
2024-06-14 09:19:33.126,-4.445,-29.365,-0.45499999999999996,-0.06222,0.034892,-1.051884,2
2024-06-14 09:19:33.131,-2.87,-28.945,-0.245,-0.06124399999999999,0.038064,-1.044076,2
2024-06-14 09:19:33.136,-1.5750000000000002,-29.924999999999997,-0.06999999999999999,-0.061,0.032208,-1.061156,2
2024-06-14 09:19:33.140,-0.98,-30.240000000000002,0.315,-0.071736,0.023424,-1.059448,2
2024-06-14 09:19:33.145,-0.525,-30.625,0.735,-0.068076,0.01708,-1.068476,2
2024-06-14 09:19:33.150,0.5950000000000001,-25.235,0.875,-0.065636,0.032696,-1.0687200000000001,2
2024-06-14 09:19:33.155,0.665,-31.884999999999998,1.155,-0.077592,0.029523999999999998,-1.038708,2
2024-06-14 09:19:33.160,1.295,-33.845,1.12,-0.068076,0.042456,-1.04798,2
2024-06-14 09:19:33.165,1.645,-34.405,0.84,-0.023912,0.016835999999999997,-1.023336,2
2024-06-14 09:19:33.169,2.625,-36.925,0.7000000000000001,0.01342,0.013176,-0.991128,2
2024-06-14 09:19:33.174,0.77,-34.685,1.085,-0.00244,0.018788,-0.9943,2
2024-06-14 09:19:33.179,1.19,-52.010000000000005,0.63,-0.034404,0.024888,-1.0133320000000001,2
2024-06-14 09:19:33.184,0.91,-34.02,0.7,-0.030744,0.02318,-1.0238239999999998,2
2024-06-14 09:19:33.189,0.7350000000000001,-34.894999999999996,0.805,-0.024888,0.022204,-1.02236,2
2024-06-14 09:19:33.194,0.735,-34.79,0.8049999999999999,-0.021716,0.016836,-1.0262639999999998,2
2024-06-14 09:19:33.199,0.98,-41.86,0.8049999999999999,-0.029768,0.014395999999999999,-1.0287039999999998,2
2024-06-14 09:19:33.203,-0.42,-40.04,0.595,-0.030744,0.014395999999999999,-1.0187,2
2024-06-14 09:19:33.208,3.325,-39.97,1.19,-0.011467999999999999,-0.006588,-1.03944,2
2024-06-14 09:19:33.213,4.9,-39.445,2.31,-0.019764,-0.009516,-1.023824,2
2024-06-14 09:19:33.218,1.89,-38.22,3.08,-0.020252,-0.030987999999999998,-1.041148,2
2024-06-14 09:19:33.223,1.33,-36.89,3.92,-0.014152,-0.0053679999999999995,-1.00772,2
2024-06-14 09:19:33.228,0.455,-35.56,4.165,0.0012200000000000002,0.00976,-1.01016,2
2024-06-14 09:19:33.232,0.7,-33.985,4.34,0.016836,0.013908,-0.999424,2
2024-06-14 09:19:33.237,1.0150000000000001,-32.76,4.515000000000001,0.005368,0.013663999999999999,-1.009916,2
2024-06-14 09:19:33.242,1.295,-31.64,4.9,-0.004879999999999999,0.002196,-1.0035720000000001,2
2024-06-14 09:19:33.247,0.35000000000000003,-31.57,5.145,-0.006587999999999998,0.018056,-0.999912,2
2024-06-14 09:19:33.252,-6.79,-46.620000000000005,4.865,0.028059999999999995,0.065148,-1.1772999999999998,2
2024-06-14 09:19:33.257,0.315,-31.5,4.725,0.043432000000000005,0.048555999999999995,-1.0396839999999998,2
2024-06-14 09:19:33.262,1.4,-31.08,4.585,0.008784,0.041968,-1.063352,2
2024-06-14 09:19:33.266,6.58,-29.54,4.0600000000000005,0.010003999999999997,0.044163999999999995,-1.033584,2
2024-06-14 09:19:33.271,11.129999999999999,-28.384999999999998,4.095000000000001,0.031964,0.043432,-1.044808,2
2024-06-14 09:19:33.276,11.76,-28.875,3.7800000000000002,0.03318399999999999,0.025619999999999997,-1.026996,2
2024-06-14 09:19:33.281,10.64,-30.765,3.29,0.015127999999999999,0.023424,-1.030168,2
2024-06-14 09:19:33.286,10.71,-29.994999999999997,3.08,0.042943999999999996,0.030012,-1.0323639999999998,2
2024-06-14 09:19:33.291,11.515,-30.73,3.01,0.023912,0.025131999999999998,-1.019676,2
2024-06-14 09:19:33.295,11.585,-29.925,2.73,0.037087999999999996,0.030988,-1.0116239999999999,2
2024-06-14 09:19:33.300,11.725,-25.445,2.52,0.053192,0.033915999999999995,-1.016748,2
2024-06-14 09:19:33.305,11.375,-24.325,2.275,0.035379999999999995,0.027084,-1.016016,2
2024-06-14 09:19:33.310,10.920000000000002,-24.255000000000003,2.03,0.042943999999999996,0.017568,-1.014308,2
2024-06-14 09:19:33.315,10.5,-24.115000000000002,2.0999999999999996,0.047336,0.00976,-1.006988,2
2024-06-14 09:19:33.320,10.114999999999998,-23.625,2.205,0.045628,0.005612,-1.0047920000000001,2
2024-06-14 09:19:33.327,8.75,-23.415,2.345,0.0427,-0.002928,-1.0130880000000002,2
2024-06-14 09:19:33.331,8.015,-23.555,2.765,0.050019999999999995,-0.007075999999999999,-1.025776,2
2024-06-14 09:19:33.336,7.07,-24.045,3.08,0.051484,-0.000732,-1.037,2
2024-06-14 09:19:33.341,6.615,-24.884999999999998,3.22,0.047336,0.001952,-1.049688,2
2024-06-14 09:19:33.346,6.300000000000001,-26.32,3.36,0.048311999999999994,-0.005856,-1.0616439999999998,3
2024-06-14 09:19:33.351,6.300000000000001,-28.28,3.71,0.044896,0.003416,-1.069696,3
2024-06-14 09:19:33.355,6.65,-29.994999999999997,3.99,0.049044,0.0053679999999999995,-1.0918999999999999,3
2024-06-14 09:19:33.360,7.0,-32.34,4.025,0.045384,0.010735999999999999,-1.1065399999999999,3
2024-06-14 09:19:33.365,7.91,-35.315,4.0600000000000005,0.052947999999999995,0.01342,-1.11264,3
2024-06-14 09:19:33.370,8.995000000000001,-37.835,4.13,0.051484,0.015372,-1.1238639999999998,3
2024-06-14 09:19:33.375,10.43,-40.635,3.955,0.055144,0.018299999999999997,-1.125572,3
2024-06-14 09:19:33.380,11.865,-43.19,3.885,0.06368399999999999,0.015371999999999999,-1.131184,3
2024-06-14 09:19:33.384,13.754999999999999,-46.725,3.7800000000000002,0.061244,0.014884,-1.121668,3
2024-06-14 09:19:33.389,15.19,-48.93,3.675,0.06880800000000001,0.016836,-1.1211799999999998,3
2024-06-14 09:19:33.394,16.66,-52.92,3.5,0.066856,0.022935999999999998,-1.122888,3
2024-06-14 09:19:33.399,17.675,-56.629999999999995,2.9050000000000002,0.071004,0.034404000000000004,-1.131184,3
2024-06-14 09:19:33.404,19.355,-60.41,2.275,0.07197999999999999,0.048068,-1.161684,3
2024-06-14 09:19:33.409,21.0,-63.91,1.33,0.052704,0.05612,-1.20292,3
2024-06-14 09:19:33.413,22.365000000000002,-69.16,0.31500000000000006,0.070272,0.024888,-1.2319559999999998,3
2024-06-14 09:19:33.418,23.695,-75.705,0.525,0.07686,-0.028303999999999996,-1.256112,3
2024-06-14 09:19:33.423,25.165,-82.42500000000001,1.19,0.065636,-0.029524,-1.3283359999999997,3
2024-06-14 09:19:33.428,25.55,-90.78999999999999,1.435,0.059048,-0.006588,-1.392752,3
2024-06-14 09:19:33.433,25.795,-99.92500000000001,1.155,0.069784,0.007076,-1.403,3
2024-06-14 09:19:33.438,26.740000000000002,-109.55,1.54,0.07466400000000001,-0.01952,-1.4076359999999999,3
2024-06-14 09:19:33.442,27.23,-117.425,1.4,0.07466400000000001,0.003172,-1.406172,3
2024-06-14 09:19:33.447,26.95,-126.77,0.91,0.076616,0.005123999999999999,-1.43106,3
2024-06-14 09:19:33.452,27.79,-136.71,0.91,0.08003199999999999,-0.012199999999999999,-1.447896,3
2024-06-14 09:19:33.457,29.015,-145.88,1.225,0.07222400000000001,-0.0009759999999999999,-1.484496,3
2024-06-14 09:19:33.462,28.174999999999997,-156.59,0.63,0.069052,0.021472,-1.523048,3
2024-06-14 09:19:33.467,26.810000000000002,-168.245,0.5249999999999999,0.06831999999999999,-0.045872,-1.5513519999999998,3
2024-06-14 09:19:33.471,26.285,-180.635,2.24,0.06222,-0.12248799999999999,-1.5679439999999998,3
2024-06-14 09:19:33.476,21.979999999999997,-192.60500000000002,4.515000000000001,0.063196,-0.14005599999999999,-1.610156,3
2024-06-14 09:19:33.481,15.855,-207.69,7.35,0.071736,-0.20496,-1.633092,3
2024-06-14 09:19:33.486,12.04,-222.6,11.55,0.066856,-0.2379,-1.6955559999999998,3
2024-06-14 09:19:33.491,8.995,-237.54500000000002,15.155000000000001,0.058072,-0.141032,-1.826096,3
2024-06-14 09:19:33.495,2.345,-255.115,16.45,0.049776,-0.096868,-1.9332120000000002,3
2024-06-14 09:19:33.500,-4.97,-274.015,18.095,0.019276,-0.18690400000000001,-1.9427279999999998,3
2024-06-14 09:19:33.505,-10.92,-292.21500000000003,21.7,0.031964,-0.290848,-1.9851839999999998,3
2024-06-14 09:19:33.510,-16.45,-312.48,26.494999999999997,0.017324,-0.36502399999999996,-2.094496,3
2024-06-14 09:19:33.515,-24.535,-333.55,31.884999999999998,-0.021228,-0.465796,-2.1279239999999997,3
2024-06-14 09:19:33.520,-30.555,-353.67499999999995,38.885000000000005,-0.037332000000000004,-0.49385599999999996,-2.1945360000000003,3
2024-06-14 09:19:33.524,-29.75,-375.40999999999997,45.36,-0.014883999999999998,-0.49166,-2.2301599999999997,3
2024-06-14 09:19:33.529,-23.134999999999998,-397.635,51.345,-0.081984,-0.512888,-2.26188,3
2024-06-14 09:19:33.534,-11.934999999999999,-416.185,57.33,-0.006587999999999998,-0.520208,-2.4014480000000002,3
2024-06-14 09:19:33.539,1.3650000000000002,-437.395,63.875,0.09272,-0.382348,-2.4419519999999997,3
2024-06-14 09:19:33.544,7.14,-451.99,64.53999999999999,0.193736,-0.289872,-2.671068,3
2024-06-14 09:19:33.549,16.835,-463.225,64.015,0.30256,-0.38064,-2.9748479999999997,3
2024-06-14 09:19:33.553,28.384999999999998,-464.975,64.995,0.40235599999999994,-0.416752,-3.2120159999999998,3
2024-06-14 09:19:33.558,35.0,-458.675,67.16499999999999,0.43578399999999995,-0.447496,-3.413072,3
2024-06-14 09:19:33.563,34.79,-449.435,72.765,0.315492,-0.438712,-3.534828,3
2024-06-14 09:19:33.568,24.604999999999997,-436.73,79.345,0.09711199999999999,-0.301096,-3.5663039999999997,3
2024-06-14 09:19:33.573,7.699999999999999,-428.575,81.97,-0.149328,-0.239852,-3.507256,3
2024-06-14 09:19:33.578,-3.5,-425.145,85.19,-0.5468040000000001,-0.317932,-3.346704,3
2024-06-14 09:19:33.582,-5.46,-423.67499999999995,89.03999999999999,-1.0882399999999999,-0.458476,-3.198352,3
2024-06-14 09:19:33.587,-0.42,-419.195,96.005,-1.5293919999999999,-0.627324,-2.943372,3
2024-06-14 09:19:33.592,6.475,-416.325,106.715,-1.757044,-0.747616,-2.6330039999999997,3
2024-06-14 09:19:33.597,14.945,-424.30499999999995,122.71000000000001,-1.815116,-0.792512,-2.2325999999999997,3
2024-06-14 09:19:33.602,14.875,-442.19,144.235,-1.905396,-0.819108,-1.7502119999999999,3
2024-06-14 09:19:33.607,5.285,-475.755,171.885,-1.493524,-0.797392,-1.133136,3
2024-06-14 09:19:33.611,-8.54,-547.225,189.42000000000002,-0.511912,-0.9964959999999998,-0.28913999999999995,3
2024-06-14 09:19:33.616,0.0,-487.375,197.39999999999998,-0.7671359999999999,-1.057496,-1.114348,3
2024-06-14 09:19:33.621,45.71,-380.205,208.70499999999998,-1.1721759999999999,-0.601216,-1.631628,3
2024-06-14 09:19:33.626,90.545,-279.965,210.735,-1.2993000000000001,-0.441884,-1.304912,3
2024-06-14 09:19:33.631,101.255,-159.565,195.86,-1.5433,-0.25864,-0.882304,3
2024-06-14 09:19:33.636,86.24000000000001,-35.49,167.51,-1.601128,0.10638399999999999,-0.508984,3
2024-06-14 09:19:33.640,60.129999999999995,70.28,129.78,-1.4596079999999998,0.243268,-0.6426959999999999,3
2024-06-14 09:19:33.645,28.0,141.19,88.515,-1.193648,0.236924,-1.023092,3
2024-06-14 09:19:33.650,-4.305,176.12,49.315,-0.9860039999999999,0.1891,-1.1372840000000002,3
2024-06-14 09:19:33.655,-34.93,185.22000000000003,15.120000000000001,-0.918172,0.0732,-1.086288,3
2024-06-14 09:19:33.660,-60.165,178.60500000000002,-13.195,-0.8425320000000001,-0.03416,-0.94184,4
2024-06-14 09:19:33.664,-74.235,166.18,-36.085,-0.72102,-0.129076,-0.770064,4
2024-06-14 09:19:33.669,-75.6,153.93,-54.985,-0.624884,-0.22082,-0.634156,4
2024-06-14 09:19:33.674,-65.59,144.41000000000003,-70.875,-0.5741320000000001,-0.280356,-0.554856,4
2024-06-14 09:19:33.679,-46.025,137.34,-84.42,-0.5524159999999999,-0.3233,-0.50264,4
2024-06-14 09:19:33.684,-21.175,134.26,-95.515,-0.5468040000000001,-0.335256,-0.43602799999999997,4
2024-06-14 09:19:33.689,4.375,136.185,-104.265,-0.569008,-0.328912,-0.375272,4
2024-06-14 09:19:33.693,26.18,143.255,-110.88,-0.5946279999999999,-0.29548399999999997,-0.35136,4
2024-06-14 09:19:33.698,40.985,154.07,-115.60499999999999,-0.617564,-0.236924,-0.365512,4
2024-06-14 09:19:33.703,47.635,167.895,-118.965,-0.6378159999999999,-0.17568,-0.404308,4
2024-06-14 09:19:33.708,46.725,183.435,-121.275,-0.658068,-0.12444,-0.44090799999999997,4
2024-06-14 09:19:33.713,39.655,201.005,-122.5,-0.66368,-0.084424,-0.47092,4
2024-06-14 09:19:33.718,28.735,219.31,-122.36,-0.6658759999999999,-0.06197599999999999,-0.508252,4
2024-06-14 09:19:33.722,16.975,237.755,-120.68,-0.662704,-0.060756000000000004,-0.545584,4
2024-06-14 09:19:33.727,6.125,255.115,-117.53,-0.641232,-0.071248,-0.587552,4
2024-06-14 09:19:33.732,-2.3099999999999996,271.39,-112.97999999999999,-0.611464,-0.09516,-0.6229319999999999,4
2024-06-14 09:19:33.737,-7.84,285.6,-107.17,-0.581208,-0.11931599999999999,-0.650016,4
2024-06-14 09:19:33.742,-9.765,298.515,-100.59,-0.547048,-0.140544,-0.676124,4
2024-06-14 09:19:33.747,-8.434999999999999,309.505,-93.275,-0.510936,-0.161528,-0.704672,4
2024-06-14 09:19:33.751,-4.725,319.40999999999997,-85.96,-0.475556,-0.16713999999999998,-0.73688,4
2024-06-14 09:19:33.756,0.56,327.81,-78.61,-0.44090799999999997,-0.159332,-0.763476,4
2024-06-14 09:19:33.761,5.88,335.545,-71.64500000000001,-0.419924,-0.144936,-0.791048,4
2024-06-14 09:19:33.766,10.850000000000001,342.335,-65.345,-0.39991599999999994,-0.12004799999999999,-0.8320399999999999,4
2024-06-14 09:19:33.771,14.175,348.635,-59.815,-0.382348,-0.092476,-0.87596,4
2024-06-14 09:19:33.776,15.82,354.865,-55.16,-0.37258800000000003,-0.061,-0.9237839999999999,4
2024-06-14 09:19:33.780,16.135,360.815,-51.205,-0.359412,-0.037332000000000004,-0.98088,4
2024-06-14 09:19:33.785,15.61,366.41499999999996,-48.09,-0.348676,-0.01952,-1.0421239999999998,4
2024-06-14 09:19:33.790,14.385,372.54,-45.150000000000006,-0.340136,-0.0060999999999999995,-1.097756,4
2024-06-14 09:19:33.795,12.53,378.84000000000003,-42.629999999999995,-0.32939999999999997,0.0,-1.15778,4
2024-06-14 09:19:33.800,10.675,385.315,-40.46,-0.32086,-0.006588,-1.230248,4
2024-06-14 09:19:33.804,9.24,392.525,-38.394999999999996,-0.306952,-0.020252,-1.3085719999999998,4
2024-06-14 09:19:33.809,8.295,399.245,-36.47,-0.29133600000000004,-0.034404,-1.3998279999999999,4
2024-06-14 09:19:33.814,7.91,406.77,-34.86,-0.26839999999999997,-0.056364,-1.494256,4
2024-06-14 09:19:33.819,7.84,414.08500000000004,-34.02,-0.243268,-0.073444,-1.587708,4
2024-06-14 09:19:33.824,7.91,422.31,-34.195,-0.2135,-0.08515600000000001,-1.6836000000000002,4
2024-06-14 09:19:33.829,8.855,430.745,-35.385000000000005,-0.192272,-0.100528,-1.788276,4
2024-06-14 09:19:33.833,9.415,438.235,-37.519999999999996,-0.169824,-0.10394400000000001,-1.912716,4
2024-06-14 09:19:33.838,9.59,445.34,-40.775,-0.145912,-0.109556,-2.029348,4
2024-06-14 09:19:33.843,9.274999999999999,451.815,-44.835,-0.106872,-0.129076,-2.145492,4
2024-06-14 09:19:33.848,8.61,456.155,-48.755,-0.058804,-0.163236,-2.2728599999999997,4
2024-06-14 09:19:33.853,8.435,457.38,-50.715,0.013664000000000003,-0.23912,-2.4509799999999995,4
2024-06-14 09:19:33.858,8.645,453.845,-49.105000000000004,0.11687600000000001,-0.352336,-2.671312,4
2024-06-14 09:19:33.862,10.92,444.22,-42.84,0.264008,-0.464088,-2.88164,4
2024-06-14 09:19:33.867,16.59,430.99,-32.06,0.40625999999999995,-0.596336,-3.068544,4
2024-06-14 09:19:33.872,25.305,415.20500000000004,-18.2,0.5570519999999999,-0.70882,-3.2769199999999996,4
2024-06-14 09:19:33.877,36.33,399.035,-3.99,0.72712,-0.783972,-3.504572,4
2024-06-14 09:19:33.882,46.795,385.56,8.504999999999999,0.8942599999999999,-0.795196,-3.678788,4
2024-06-14 09:19:33.887,54.53,380.87,17.5,1.04798,-0.764208,-3.74296,4
2024-06-14 09:19:33.891,58.765,388.43,21.840000000000003,1.1919399999999998,-0.7427359999999998,-3.686108,4
2024-06-14 09:19:33.896,59.394999999999996,405.29999999999995,21.314999999999998,1.339804,-0.7339519999999999,-3.6021720000000004,4
2024-06-14 09:19:33.901,58.905,424.865,16.835,1.62382,-0.675148,-3.4228319999999997,4
2024-06-14 09:19:33.906,71.715,443.52,10.045,1.817556,-0.540948,-3.3506080000000003,4
2024-06-14 09:19:33.911,99.25999999999999,446.145,7.07,1.963956,-0.5970679999999999,-3.312544,4
2024-06-14 09:19:33.916,112.49,436.45000000000005,6.055,2.1984399999999997,-0.48678,-3.105632,4
2024-06-14 09:19:33.920,114.905,415.975,3.15,2.54858,-0.41114,-2.9606959999999996,4
2024-06-14 09:19:33.925,118.125,388.71,4.13,2.96582,-0.326228,-2.8196639999999995,4
2024-06-14 09:19:33.930,123.06,359.275,9.1,3.306688,-0.21594,-2.534672,4
2024-06-14 09:19:33.935,128.73,330.82000000000005,16.765,3.559228,-0.100528,-2.1452479999999996,4
2024-06-14 09:19:33.940,137.655,301.875,28.35,3.81128,0.015372,-1.8368319999999998,4
2024-06-14 09:19:33.945,150.39499999999998,273.28,45.394999999999996,4.178744,0.165432,-1.609912,4
2024-06-14 09:19:33.949,162.715,244.33499999999998,67.025,4.699439999999999,0.390644,-1.3588359999999997,4
2024-06-14 09:19:33.954,172.935,217.245,89.565,5.349456,0.74298,-1.141188,4
2024-06-14 09:19:33.959,170.835,186.41000000000003,106.85499999999999,5.938228,1.086288,-1.1309399999999998,4
2024-06-14 09:19:33.964,143.53500000000003,144.095,115.115,6.3508320000000005,1.37616,-1.219512,4
2024-06-14 09:19:33.969,92.435,86.73,114.345,6.278364,1.5498880000000002,-1.3207719999999998,4
2024-06-14 09:19:33.973,26.53,15.155000000000001,106.29499999999999,5.76816,1.554768,-1.37738,4
2024-06-14 09:19:33.978,-36.26,-60.095,92.715,5.0386,1.401292,-1.3366319999999998,4
2024-06-14 09:19:33.983,-77.21000000000001,-124.355,75.565,4.3212399999999995,1.1480199999999998,-1.2902719999999999,4
2024-06-14 09:19:33.988,-89.425,-170.345,57.015,3.6822039999999996,0.877668,-1.312476,4
2024-06-14 09:19:33.993,-306.355,-332.99,5.985000000000001,0.034159999999999746,2.114748,-7.8114159999999995,0
