time,gyroscope_x,gyroscope_y,gyroscope_z,accelerometer_x,accelerometer_y,accelerometer_z,phase
2024-06-14 09:19:28.912,-236.14499999999998,-544.355,-29.61,-0.401136,0.3935719999999999,-5.498784000000001,1
2024-06-14 09:19:28.916,-185.29,-144.69,-37.94,-4.7399439999999995,-0.665876,2.9809479999999997,1
2024-06-14 09:19:28.921,-255.53499999999997,-308.735,-24.36,-1.617476,-1.050664,0.0043919999999997295,1
2024-06-14 09:19:28.926,-277.9,-341.53,-27.055,-1.04676,0.03659999999999998,-1.4862039999999999,1
2024-06-14 09:19:28.931,-278.11,-392.385,-33.81,0.816424,-0.086864,-1.194868,1
2024-06-14 09:19:28.936,-207.515,-403.235,-52.78,1.02114,0.26034799999999997,-1.63968,1
2024-06-14 09:19:28.938,-170.31,-381.08,-70.945,0.800808,0.257908,-1.65798,1
2024-06-14 09:19:28.940,-74.935,-341.075,-100.1,0.19154000000000002,0.162992,-1.891488,1
2024-06-14 09:19:28.945,-46.97,-315.98,-103.88,0.058803999999999995,0.263276,-2.114748,1
2024-06-14 09:19:28.950,-74.2,-302.68,-80.64,0.038552,0.585356,-2.233332,1
2024-06-14 09:19:28.955,-97.965,-293.33500000000004,-45.64,0.115412,0.7942199999999999,-2.1630599999999998,1
2024-06-14 09:19:28.960,-87.99000000000001,-276.22,-17.744999999999997,-0.016592,0.796172,-1.989088,1
2024-06-14 09:19:28.965,-72.83500000000001,-257.11,0.56,-0.032208,0.505812,-1.878068,1
2024-06-14 09:19:28.969,-59.325,-233.41500000000002,13.195,0.025132,0.273036,-1.937116,1
2024-06-14 09:19:28.974,-50.89,-206.22,17.395,0.166408,0.06758799999999998,-1.8927079999999998,1
2024-06-14 09:19:28.979,-34.16,-175.7,11.48,0.187392,-0.113216,-1.8902679999999998,1
2024-06-14 09:19:28.984,-20.72,-134.61,-1.435,0.16958,-0.188124,-1.8153599999999999,1
2024-06-14 09:19:28.989,-17.395,-92.85499999999999,-12.425,0.187636,-0.14810800000000002,-1.6592000000000002,1
2024-06-14 09:19:28.994,-22.68,-66.675,-18.235,0.18788,-0.107848,-1.4522879999999998,1
2024-06-14 09:19:28.999,-20.72,-48.51,-15.295,0.120292,0.12444,-1.153632,1
2024-06-14 09:19:29.003,-18.445,-35.105,-10.115,0.000732,0.144692,-1.095804,1
2024-06-14 09:19:29.008,-13.58,-27.195,-3.7800000000000002,0.0034160000000000024,0.0854,-1.1126399999999999,1
2024-06-14 09:19:29.013,-12.11,-21.455,-1.12,0.076128,0.042456,-1.1077599999999999,2
2024-06-14 09:19:29.018,-10.465,-24.64,-1.8199999999999998,0.03904,0.046848,-1.1043439999999998,2
2024-06-14 09:19:29.023,-9.59,-24.009999999999998,-4.62,-0.057583999999999996,0.009760000000000001,-1.068232,2
2024-06-14 09:19:29.028,-10.99,-22.26,-4.0600000000000005,-0.099064,-0.030988,-1.0255319999999999,2
2024-06-14 09:19:29.033,-14.49,-19.11,-2.6950000000000003,-0.059048,-0.016592,-1.035536,2
2024-06-14 09:19:29.037,-14.629999999999999,-18.095,-1.575,-0.021471999999999998,0.022448,-1.053348,2
2024-06-14 09:19:29.042,-12.495,-16.939999999999998,-2.17,-0.026108,0.067588,-1.0718919999999998,2
2024-06-14 09:19:29.047,-9.205,-19.564999999999998,-1.8900000000000001,-0.06417199999999999,0.06709999999999999,-1.082384,2
2024-06-14 09:19:29.052,-6.615,-21.42,-1.155,-0.084424,0.047336,-1.0728680000000002,2
2024-06-14 09:19:29.057,-5.32,-23.03,-0.9450000000000001,-0.080276,0.017079999999999998,-1.052616,2
2024-06-14 09:19:29.062,-5.390000000000001,-22.855,-1.085,-0.057583999999999996,0.002196,-1.040904,2
2024-06-14 09:19:29.067,-4.97,-21.525,-0.98,-0.040992,0.023912,-1.0445639999999998,2
2024-06-14 09:19:29.071,-3.675,-20.965,-1.155,-0.04758,0.044652,-1.047248,2
2024-06-14 09:19:29.076,-1.54,-21.175,-1.155,-0.072712,0.045872,-1.055788,2
2024-06-14 09:19:29.081,-0.21000000000000002,-22.225,-1.33,-0.08515600000000001,0.031231999999999996,-1.06506,2
2024-06-14 09:19:29.086,0.77,-23.17,-0.98,-0.08735200000000001,0.019275999999999998,-1.0643280000000002,2
2024-06-14 09:19:29.091,1.225,-23.625,-0.56,-0.08588799999999999,0.008052,-1.0592039999999998,2
2024-06-14 09:19:29.096,1.295,-25.445,0.035,-0.08662,0.012931999999999999,-1.048956,2
2024-06-14 09:19:29.101,1.505,-26.810000000000002,0.385,-0.08393599999999998,0.013908,-1.037976,2
2024-06-14 09:19:29.105,1.89,-27.72,0.525,-0.07588400000000001,0.019764,-1.034316,2
2024-06-14 09:19:29.110,2.485,-28.35,0.45499999999999996,-0.071492,0.023912000000000003,-1.029192,2
2024-06-14 09:19:29.115,3.045,-29.155,0.28,-0.072468,0.020496,-1.0248,2
2024-06-14 09:19:29.120,3.1500000000000004,-29.645,0.385,-0.075152,0.00732,-1.0226039999999998,2
2024-06-14 09:19:29.125,2.9400000000000004,-29.645,0.665,-0.072956,0.00488,-1.01748,2
2024-06-14 09:19:29.130,2.17,-29.54,0.98,-0.066612,0.0046359999999999995,-1.016992,2
2024-06-14 09:19:29.135,1.575,-13.405000000000001,1.33,-0.057095999999999994,0.004148,-1.014796,2
2024-06-14 09:19:29.139,0.63,-29.82,1.435,-0.06344,0.009028,-1.0152839999999999,2
2024-06-14 09:19:29.144,-0.35,-30.66,1.505,-0.05856,0.014883999999999998,-1.01626,2
2024-06-14 09:19:29.149,-0.7,-30.31,1.435,-0.061,0.009760000000000001,-1.019676,2
2024-06-14 09:19:29.154,-1.5750000000000002,-29.855,1.4700000000000002,-0.054900000000000004,0.0060999999999999995,-1.010648,2
2024-06-14 09:19:29.159,-0.5599999999999999,-22.785,1.155,-0.050996,0.004392,-1.01138,2
2024-06-14 09:19:29.164,-3.43,-26.564999999999998,1.225,-0.048556,0.005123999999999999,-1.0248,2
2024-06-14 09:19:29.169,-2.1,-56.595,0.665,-0.042943999999999996,0.001464,-1.01382,2
2024-06-14 09:19:29.173,-5.145,-28.384999999999998,1.6099999999999999,-0.032208,-0.00488,-1.0116239999999999,2
2024-06-14 09:19:29.178,-6.055,-28.384999999999998,1.645,-0.02196,0.0,-1.0035720000000001,2
2024-06-14 09:19:29.183,-7.21,-28.875,1.8900000000000001,-0.02196,0.00488,-1.0082079999999998,2
2024-06-14 09:19:29.188,-6.475,-32.620000000000005,2.205,-0.010735999999999999,0.004392,-0.997716,2
2024-06-14 09:19:29.193,-6.79,-33.11,2.59,-0.020739999999999998,0.014395999999999999,-0.996984,2
2024-06-14 09:19:29.198,-4.4799999999999995,-34.51,2.5549999999999997,-0.014152,0.024888,-1.006988,2
2024-06-14 09:19:29.203,-2.5549999999999997,-29.995,2.31,-0.022448,0.030987999999999998,-1.0018639999999999,2
2024-06-14 09:19:29.207,-1.925,-28.91,2.0300000000000002,-0.0024399999999999986,0.040504,-1.0065,2
2024-06-14 09:19:29.212,-1.19,-27.195,1.785,-0.0012199999999999997,0.03294,-1.0030839999999999,2
2024-06-14 09:19:29.217,-0.28,-26.005,1.7850000000000001,-0.0031719999999999995,0.022692,-1.0018639999999999,2
2024-06-14 09:19:29.222,-0.105,-26.11,2.24,-0.015127999999999999,0.019276,-1.0204080000000002,2
2024-06-14 09:19:29.227,0.07,-26.53,2.52,-0.012688000000000001,0.00732,-1.0313879999999997,2
2024-06-14 09:19:29.232,-0.105,-26.95,2.73,-0.004148,0.01342,-1.0157720000000001,2
2024-06-14 09:19:29.236,-0.175,-26.46,3.115,-0.008539999999999999,0.010248,-1.0177239999999999,2
2024-06-14 09:19:29.241,-0.49,-27.439999999999998,3.605,-0.0034159999999999998,0.0075639999999999995,-1.01382,2
2024-06-14 09:19:29.246,-0.56,-27.23,4.13,0.0053679999999999995,0.014395999999999999,-1.009428,2
2024-06-14 09:19:29.251,-0.7,-27.755000000000003,4.375,0.0026839999999999998,0.019276,-1.01504,2
2024-06-14 09:19:29.256,-0.525,-27.72,4.515,0.019764,0.012688000000000001,-1.00284,2
2024-06-14 09:19:29.261,-0.7,-26.845,4.550000000000001,0.020252,0.021227999999999997,-1.008452,2
2024-06-14 09:19:29.266,-0.385,-25.935000000000002,4.445,0.01952,0.024156,-1.0018639999999999,2
2024-06-14 09:19:29.270,-0.07,-25.445,4.550000000000001,0.028792,0.02806,-0.99552,2
2024-06-14 09:19:29.275,0.315,-24.605,4.34,0.026351999999999997,0.030012,-0.996496,2
2024-06-14 09:19:29.280,-1.7850000000000001,-38.254999999999995,4.165,0.031964,0.034404,-1.0372439999999998,2
2024-06-14 09:19:29.285,-4.2,-29.225,4.13,0.017812,0.032696,-1.025532,2
2024-06-14 09:19:29.290,-1.505,-27.825000000000003,3.675,0.017324,0.022692,-1.045296,2
2024-06-14 09:19:29.295,-0.5249999999999999,-28.84,3.745,0.021228,0.019276,-1.048712,2
2024-06-14 09:19:29.300,0.42000000000000004,-30.345,3.85,0.029768,0.022935999999999998,-1.054568,2
2024-06-14 09:19:29.304,1.5050000000000001,-31.955,4.13,0.017568,0.021716,-1.072136,2
2024-06-14 09:19:29.309,4.34,-34.58,4.865,0.022691999999999997,0.04636,-1.094096,2
2024-06-14 09:19:29.314,11.934999999999999,-35.035,4.795,0.01952,0.040992,-1.1372840000000002,2
2024-06-14 09:19:29.319,17.674999999999997,-38.605000000000004,4.48,0.028547999999999997,0.026108,-1.0943399999999999,2
2024-06-14 09:19:29.324,14.98,-43.75,3.465,0.033428,0.038064,-1.0875080000000001,2
2024-06-14 09:19:29.329,15.855,-42.84,2.8,0.032451999999999995,0.043432,-1.098732,2
2024-06-14 09:19:29.334,18.97,-41.405,2.345,0.027084,0.050996,-1.126304,2
2024-06-14 09:19:29.338,21.455,-44.065,1.435,0.042212,0.05514399999999999,-1.1514360000000001,2
2024-06-14 09:19:29.343,24.71,-46.724999999999994,1.05,0.03904,0.034159999999999996,-1.181448,2
2024-06-14 09:19:29.348,29.4,-49.105000000000004,0.56,0.032452,0.052947999999999995,-1.2017000000000002,2
2024-06-14 09:19:29.353,33.144999999999996,-53.76,0.21000000000000002,0.028304,0.031964,-1.2343959999999998,2
2024-06-14 09:19:29.358,38.465,-59.99,0.07,0.030255999999999998,0.040992,-1.314916,2
2024-06-14 09:19:29.363,42.980000000000004,-69.545,0.5249999999999999,0.008784,0.026108,-1.3681079999999999,2
2024-06-14 09:19:29.368,44.94,-79.45,-0.06999999999999998,0.016592,0.083692,-1.427644,2
2024-06-14 09:19:29.372,50.364999999999995,-90.93,-0.385,0.01098,0.005612,-1.474736,2
2024-06-14 09:19:29.377,53.165000000000006,-104.055,-0.35,0.016104,0.052704,-1.475468,2
2024-06-14 09:19:29.382,55.44,-116.16499999999999,-0.875,0.0122,-0.0068319999999999995,-1.460096,2
2024-06-14 09:19:29.387,59.675,-126.14000000000001,-0.07,0.023668,0.016103999999999997,-1.5362239999999998,2
2024-06-14 09:19:29.392,59.955,-140.0,-0.84,0.02928,0.026352,-1.5786799999999999,2
2024-06-14 09:19:29.397,60.48,-154.28,-1.33,0.019276,0.039527999999999994,-1.6516359999999999,2
2024-06-14 09:19:29.402,60.480000000000004,-168.945,-1.785,0.012688,-0.011467999999999999,-1.633824,2
2024-06-14 09:19:29.406,60.725,-181.79,-0.91,0.02928,-0.04758,-1.6887240000000001,2
2024-06-14 09:19:29.411,56.455,-198.345,0.315,0.002196,-0.134688,-1.7199559999999998,2
2024-06-14 09:19:29.416,53.2,-213.64,3.745,-0.013908,-0.18178,-1.747528,2
2024-06-14 09:19:29.421,46.025000000000006,-229.46,6.755,-0.012688,-0.214476,-1.7824200000000001,2
2024-06-14 09:19:29.426,39.935,-246.995,11.305,-0.017079999999999998,-0.26327599999999995,-1.76168,2
2024-06-14 09:19:29.431,34.125,-262.53499999999997,15.995000000000001,-0.008784,-0.230824,-1.833416,2
2024-06-14 09:19:29.436,25.619999999999997,-280.245,19.25,-0.041235999999999995,-0.169336,-1.9280879999999998,2
2024-06-14 09:19:29.440,19.25,-299.18,21.0,-0.044164,-0.13102799999999998,-2.044476,3
2024-06-14 09:19:29.445,18.445,-318.115,21.98,-0.033184000000000005,-0.046848,-2.233332,3
2024-06-14 09:19:29.450,11.2,-339.885,20.79,-0.017812,-0.016836,-2.327272,3
2024-06-14 09:19:29.455,1.085,-360.885,19.39,-0.099552,-0.166164,-2.321416,3
2024-06-14 09:19:29.460,-6.475,-382.34000000000003,21.77,-0.17226399999999997,-0.329888,-2.305556,3
2024-06-14 09:19:29.465,-13.125,-405.72,25.445,-0.185196,-0.432856,-2.2874999999999996,3
2024-06-14 09:19:29.470,-12.39,-426.58000000000004,30.939999999999998,-0.165676,-0.522404,-2.370704,3
2024-06-14 09:19:29.474,-5.95,-448.56,36.120000000000005,-0.150304,-0.467748,-2.492216,3
2024-06-14 09:19:29.479,6.055,-468.055,40.879999999999995,-0.099552,-0.364292,-2.640812,3
2024-06-14 09:19:29.484,12.530000000000001,-487.76,41.019999999999996,0.018056000000000003,-0.141276,-2.9492279999999997,3
2024-06-14 09:19:29.492,17.115,-500.99,36.155,0.220576,-0.170312,-3.3366999999999996,3
2024-06-14 09:19:29.497,32.585,-506.83500000000004,34.370000000000005,0.199836,-0.407968,-3.564108,3
2024-06-14 09:19:29.502,47.81,-499.65999999999997,38.815,0.243024,-0.41845999999999994,-3.737104,3
2024-06-14 09:19:29.506,41.265,-494.48,44.065,0.136152,-0.238388,-3.7576,3
2024-06-14 09:19:29.511,26.285,-484.365,47.075,-0.07686,-0.13542,-3.8664240000000003,3
2024-06-14 09:19:29.516,8.469999999999999,-476.56,49.035,-0.367464,-0.11907199999999998,-3.911076,3
2024-06-14 09:19:29.521,-8.75,-472.115,49.84,-0.8532679999999999,-0.178608,-3.849588,3
2024-06-14 09:19:29.526,-29.365,-464.16999999999996,49.49,-1.380552,-0.358192,-3.665856,3
2024-06-14 09:19:29.531,-34.019999999999996,-458.32500000000005,53.655,-1.92394,-0.640988,-3.364516,3
2024-06-14 09:19:29.535,-35.489999999999995,-457.83500000000004,63.42,-2.299944,-0.841556,-2.785748,3
2024-06-14 09:19:29.540,-28.14,-465.78,77.77000000000001,-2.5195440000000002,-0.931836,-2.202832,3
2024-06-14 09:19:29.545,-24.36,-483.98,99.68,-2.5480919999999996,-1.0323639999999998,-1.6479759999999999,3
2024-06-14 09:19:29.550,-34.964999999999996,-541.135,128.695,-1.571116,-1.227808,-0.40747999999999995,3
2024-06-14 09:19:29.555,-49.91,-568.2950000000001,144.13,-1.236104,-1.3078400000000001,-0.565592,4
2024-06-14 09:19:29.560,-34.86,-437.99,160.475,-1.65798,-1.1824240000000001,-1.416176,4
2024-06-14 09:19:29.564,22.505,-325.15,173.35500000000002,-1.708488,-0.9272,-1.571604,4
2024-06-14 09:19:29.569,58.24,-190.575,171.36,-1.7860800000000001,-0.792756,-1.066036,4
2024-06-14 09:19:29.574,67.025,-46.27,157.43,-2.03374,-0.49361200000000005,-0.6685599999999999,4
2024-06-14 09:19:29.579,56.665,80.00999999999999,135.345,-2.011536,-0.261568,-0.7076,4
2024-06-14 09:19:29.584,34.824999999999996,168.035,108.465,-1.7446,-0.17324,-1.063352,4
2024-06-14 09:19:29.588,7.805,215.985,80.85,-1.4891320000000001,-0.129076,-1.21512,4
2024-06-14 09:19:29.593,-22.435,230.335,56.629999999999995,-1.367864,-0.161528,-1.20536,4
2024-06-14 09:19:29.598,-53.585,223.3,37.135,-1.238788,-0.202764,-1.121424,4
2024-06-14 09:19:29.603,-76.93,206.675,21.63,-1.0665239999999998,-0.24058399999999996,-0.9718519999999999,4
2024-06-14 09:19:29.608,-87.99000000000001,190.155,8.54,-0.913048,-0.28669999999999995,-0.7768959999999999,4
2024-06-14 09:19:29.613,-85.995,178.5,-3.4299999999999997,-0.814716,-0.34648,-0.6185400000000001,4
2024-06-14 09:19:29.617,-72.44999999999999,173.845,-14.105,-0.751276,-0.404308,-0.519964,4
2024-06-14 09:19:29.622,-49.945,176.715,-24.009999999999998,-0.719068,-0.443592,-0.460428,4
2024-06-14 09:19:29.627,-22.119999999999997,187.04,-33.39,-0.729316,-0.45554799999999995,-0.415288,4
2024-06-14 09:19:29.632,6.965,204.19,-41.894999999999996,-0.762988,-0.44530000000000003,-0.39649999999999996,4
2024-06-14 09:19:29.637,32.235,226.38,-49.84,-0.798856,-0.410408,-0.40992,4
2024-06-14 09:19:29.642,50.155,249.655,-57.435,-0.820816,-0.346968,-0.471408,4
2024-06-14 09:19:29.646,59.64,272.92999999999995,-64.75,-0.814228,-0.270596,-0.5480240000000001,4
2024-06-14 09:19:29.651,61.004999999999995,293.86,-71.82,-0.7905599999999999,-0.194224,-0.60634,4
2024-06-14 09:19:29.656,55.93,312.48,-78.33,-0.7625,-0.138592,-0.666852,4
2024-06-14 09:19:29.661,47.18,328.65,-83.86,-0.7217520000000001,-0.105652,-0.7317560000000001,4
2024-06-14 09:19:29.666,36.81999999999999,342.265,-88.025,-0.6771,-0.102968,-0.788608,4
2024-06-14 09:19:29.671,27.335,353.71000000000004,-90.44,-0.637572,-0.11443600000000001,-0.8300879999999999,4
2024-06-14 09:19:29.675,20.335,362.88,-90.755,-0.594384,-0.138348,-0.8601,4
2024-06-14 09:19:29.680,16.659999999999997,371.315,-89.285,-0.5587599999999999,-0.16128399999999998,-0.892552,4
2024-06-14 09:19:29.685,16.975,379.05,-86.31,-0.518256,-0.18446400000000002,-0.924272,4
2024-06-14 09:19:29.690,20.685000000000002,385.665,-82.46000000000001,-0.49141599999999996,-0.191296,-0.968436,4
2024-06-14 09:19:29.695,25.865000000000002,391.545,-77.875,-0.4697,-0.18788,-1.0155280000000002,4
2024-06-14 09:19:29.700,31.43,397.04,-73.22,-0.452132,-0.17519200000000001,-1.06994,4
2024-06-14 09:19:29.704,36.33,401.1,-68.565,-0.43676,-0.15738000000000002,-1.1382599999999998,4
2024-06-14 09:19:29.709,39.760000000000005,405.02,-64.19,-0.42456,-0.129564,-1.2075559999999999,4
2024-06-14 09:19:29.714,41.05500000000001,408.8,-59.955,-0.41382399999999997,-0.09930800000000001,-1.272704,4
2024-06-14 09:19:29.719,40.32,413.03499999999997,-55.825,-0.404308,-0.077348,-1.34444,4
2024-06-14 09:19:29.724,37.835,416.71000000000004,-51.59,-0.385764,-0.061975999999999996,-1.422276,4
2024-06-14 09:19:29.728,34.055,420.66499999999996,-47.32,-0.366732,-0.056608,-1.50792,4
2024-06-14 09:19:29.733,30.275,424.97,-43.015,-0.34526,-0.059292,-1.596248,4
2024-06-14 09:19:29.738,27.055,428.995,-38.745,-0.320372,-0.06539199999999999,-1.68726,4
2024-06-14 09:19:29.743,24.955,433.72,-34.825,-0.29499600000000004,-0.08003199999999999,-1.7807119999999999,4
2024-06-14 09:19:29.748,24.57,437.745,-31.605000000000004,-0.269864,-0.086864,-1.88368,4
2024-06-14 09:19:29.753,26.04,442.75,-29.82,-0.23863199999999998,-0.08906,-1.9764,4
2024-06-14 09:19:29.757,29.225,447.02,-29.19,-0.20984,-0.09028,-2.08132,4
2024-06-14 09:19:29.762,32.480000000000004,451.08,-29.505000000000003,-0.174948,-0.086864,-2.1837999999999997,4
2024-06-14 09:19:29.767,35.84,454.125,-31.009999999999998,-0.137372,-0.085644,-2.303116,4
2024-06-14 09:19:29.772,38.989999999999995,456.015,-33.495,-0.10126,-0.08174000000000001,-2.439756,4
2024-06-14 09:19:29.777,41.3,456.225,-36.715,-0.07246799999999999,-0.08710799999999999,-2.5937200000000002,4
2024-06-14 09:19:29.782,42.735,455.45500000000004,-40.495,-0.051972,-0.088328,-2.7389,4
2024-06-14 09:19:29.786,44.415,453.91499999999996,-44.94,-0.02806,-0.091256,-2.890668,4
2024-06-14 09:19:29.791,46.445,450.87,-50.015,-0.0029279999999999996,-0.09418399999999999,-3.056832,4
2024-06-14 09:19:29.796,48.650000000000006,447.15999999999997,-55.685,0.05709600000000001,-0.094672,-3.248616,4
2024-06-14 09:19:29.801,51.519999999999996,443.03,-62.125,0.186416,-0.06953999999999999,-3.4091679999999998,4
2024-06-14 09:19:29.806,56.56,439.635,-68.495,0.373076,-0.038064,-3.534828,4
2024-06-14 09:19:29.811,61.635,438.48,-73.32499999999999,0.5982879999999999,-0.027327999999999998,-3.639504,4
2024-06-14 09:19:29.815,62.58,438.165,-75.355,0.830332,-0.032695999999999996,-3.6841559999999998,4
2024-06-14 09:19:29.820,56.665,438.27,-75.005,1.0396839999999998,-0.037576,-3.654876,4
2024-06-14 09:19:29.825,42.385,437.01,-73.535,1.236104,-0.061732,-3.57826,4
2024-06-14 09:19:29.830,20.475,432.81,-71.61,1.430816,-0.111264,-3.482612,4
2024-06-14 09:19:29.835,-5.285,423.78,-69.72,1.6155240000000002,-0.17421599999999998,-3.3410919999999997,4
2024-06-14 09:19:29.840,-30.73,410.795,-68.46000000000001,1.840492,-0.286456,-3.20738,4
2024-06-14 09:19:29.844,-52.43,391.86,-66.185,2.10816,-0.496784,-3.078792,4
2024-06-14 09:19:29.849,-67.16499999999999,369.005,-58.8,2.450492,-0.7415160000000001,-2.9441039999999994,4
2024-06-14 09:19:29.854,-61.95,344.47,-43.89,2.8984759999999996,-0.967948,-2.797704,4
2024-06-14 09:19:29.859,-35.525000000000006,320.28499999999997,-21.945,3.3664680000000002,-1.100928,-2.54126,4
2024-06-14 09:19:29.864,6.895,298.83000000000004,3.1849999999999996,3.784928,-1.1006839999999998,-2.185752,4
2024-06-14 09:19:29.869,60.165,277.725,28.84,4.201435999999999,-0.946232,-1.8536679999999999,4
2024-06-14 09:19:29.873,118.50999999999999,254.27500000000003,52.815,4.624288,-0.61244,-1.6411440000000002,4
2024-06-14 09:19:29.878,169.015,224.0,70.38499999999999,5.030548,-0.112972,-1.550376,4
2024-06-14 09:19:29.883,198.345,185.885,77.245,5.424607999999999,0.416508,-1.503772,4
2024-06-14 09:19:29.888,197.015,140.35,73.045,5.782311999999999,0.853024,-1.541348,4
2024-06-14 09:19:29.893,160.195,90.22999999999999,61.355000000000004,6.026555999999999,1.137772,-1.5581839999999998,4
2024-06-14 09:19:29.897,96.985,35.805,46.305,5.965556,1.244888,-1.551596,4
2024-06-14 09:19:29.902,21.56,-19.495,31.045,5.69618,1.16876,-1.496208,4
2024-06-14 09:19:29.907,-46.235,-69.965,16.905,5.296752,0.9821,-1.442528,4
2024-06-14 09:19:29.912,-88.86500000000001,-113.365,3.115,4.846328,0.718336,-1.47376,4
2024-06-14 09:19:29.917,-107.87,-145.67000000000002,-10.219999999999999,3.4806599999999994,-0.25449199999999994,-0.7280959999999999,4
