time,gyroscope_x,gyroscope_y,gyroscope_z,accelerometer_x,accelerometer_y,accelerometer_z,phase
2024-06-14 08:28:38.690,119.84,-155.855,70.63,3.8207959999999996,0.494832,-1.518656,1
2024-06-14 08:28:38.699,134.575,-263.655,3.43,1.634312,0.630008,0.187636,1
2024-06-14 08:28:38.709,151.095,-273.63,-10.71,-0.510204,0.006099999999999994,-1.4701,1
2024-06-14 08:28:38.718,80.22,-241.115,8.33,-0.49654,0.088084,-1.9041759999999999,1
2024-06-14 08:28:38.728,49.665,-255.185,11.059999999999999,0.094916,-0.431148,-2.2813999999999997,1
2024-06-14 08:28:38.738,19.53,-237.125,7.315,-0.00732,-0.476288,-2.493436,1
2024-06-14 08:28:38.747,-7.630000000000001,-158.13,-14.105,0.135664,-0.243024,-2.2813999999999997,1
2024-06-14 08:28:38.757,-5.145,-94.255,-21.595,0.149816,0.043188000000000004,-2.123044,1
2024-06-14 08:28:38.767,5.04,-57.575,-1.8199999999999998,0.13786,0.319884,-1.5701399999999999,1
2024-06-14 08:28:38.776,20.265,-57.33,8.120000000000001,-0.029036000000000003,0.028303999999999996,-1.22244,2
2024-06-14 08:28:38.786,19.285,-46.655,4.515000000000001,-0.127856,-0.056852,-0.991128,2
2024-06-14 08:28:38.796,19.775,-32.27,1.7850000000000001,-0.046847999999999994,0.05124,-0.99674,2
2024-06-14 08:28:38.805,19.88,-26.11,3.535,-0.045871999999999996,-0.007076000000000001,-1.072136,2
2024-06-14 08:28:38.815,15.75,-30.275,2.52,-0.12004799999999999,-0.05538799999999999,-1.0657919999999999,2
2024-06-14 08:28:38.825,11.34,-36.364999999999995,1.19,-0.126636,-0.011468,-1.054324,2
2024-06-14 08:28:38.834,9.625,-45.22,0.21,-0.124928,-0.003904,-1.058716,2
2024-06-14 08:28:38.844,7.5600000000000005,-52.605,-0.805,-0.116144,-0.037332000000000004,-1.043588,2
2024-06-14 08:28:38.854,2.905,-54.215,-1.295,-0.091744,-0.046604,-1.054568,2
2024-06-14 08:28:38.863,-2.065,-55.754999999999995,-0.595,-0.10467599999999999,-0.040992,-1.0521280000000002,2
2024-06-14 08:28:38.873,-4.865,-58.730000000000004,-1.295,-0.101748,-0.029768,-1.0487119999999999,2
2024-06-14 08:28:38.883,-3.255,-57.89,-0.9450000000000001,-0.08295999999999999,-0.042456,-1.047004,2
2024-06-14 08:28:38.892,-8.469999999999999,-58.345,-0.5599999999999999,-0.06612399999999999,-0.050508,-1.02724,2
2024-06-14 08:28:38.902,-13.44,-59.64,0.07,-0.062952,-0.026840000000000003,-1.026508,2
2024-06-14 08:28:38.912,-14.280000000000001,-60.269999999999996,-0.175,-0.052947999999999995,0.014152,-1.0177239999999999,2
2024-06-14 08:28:38.921,-11.34,-60.620000000000005,-1.435,-0.045383999999999994,0.051972,-1.00528,2
2024-06-14 08:28:38.931,-7.945,-61.775,-2.9400000000000004,-0.033916,0.054655999999999996,-1.003084,2
2024-06-14 08:28:38.941,-3.4299999999999997,-64.68,-3.4299999999999997,-0.009028,0.045871999999999996,-0.9964959999999999,2
2024-06-14 08:28:38.950,4.305,-59.99,-2.9749999999999996,0.0046359999999999995,0.024156,-1.00162,2
2024-06-14 08:28:38.960,5.635,-58.905,-1.7149999999999999,0.01098,0.008296,-1.015284,2
2024-06-14 08:28:38.970,4.41,-61.25,-0.31500000000000006,0.014884000000000001,-0.017812,-1.029436,2
2024-06-14 08:28:38.979,3.7800000000000002,-67.13,0.8400000000000001,0.025376,-0.030744,-1.1021480000000001,2
2024-06-14 08:28:38.989,-7.805,-64.33,1.7850000000000001,0.030012,-0.035868000000000004,-1.0765280000000002,2
2024-06-14 08:28:38.999,-11.620000000000001,-63.665000000000006,1.75,0.045628,-0.0122,-1.0462719999999999,2
2024-06-14 08:28:39.008,-11.445,-59.22,2.0300000000000002,0.049044000000000004,0.013176,-1.0323639999999998,2
2024-06-14 08:28:39.018,-11.129999999999999,-54.67,0.5950000000000001,0.065636,0.025132,-1.016748,3
2024-06-14 08:28:39.028,-9.485,-51.31,0.665,0.09223200000000001,0.01464,-0.989664,3
2024-06-14 08:28:39.037,-8.365,-45.815,0.56,0.10858,0.013908,-0.948428,3
2024-06-14 08:28:39.047,-6.23,-41.09,0.7,0.107848,0.032451999999999995,-0.9342759999999999,3
2024-06-14 08:28:39.056,-3.92,-38.43,0.315,0.10589599999999999,0.047092,-0.9306159999999999,3
2024-06-14 08:28:39.066,1.015,-35.980000000000004,-1.4,0.10394400000000001,0.054167999999999994,-0.953796,3
2024-06-14 08:28:39.076,5.74,-34.230000000000004,-2.38,0.114924,0.051972,-0.9652639999999999,3
2024-06-14 08:28:39.085,8.715,-32.725,-3.08,0.127612,0.021227999999999997,-0.973316,3
2024-06-14 08:28:39.095,9.205,-31.57,-2.975,0.13054,0.005856,-0.9816119999999999,3
2024-06-14 08:28:39.105,8.575,-31.29,-2.6950000000000003,0.13785999999999998,-0.003904,-0.99064,3
2024-06-14 08:28:39.114,7.21,-32.095,-2.17,0.13054,-0.009516,-1.01504,3
2024-06-14 08:28:39.124,5.355,-33.495000000000005,-1.505,0.142984,-0.007076000000000001,-1.033828,3
2024-06-14 08:28:39.134,2.835,-36.015,-0.98,0.141276,-0.019032,-1.0492,3
2024-06-14 08:28:39.143,0.06999999999999995,-39.165,-0.21,0.142984,-0.013663999999999999,-1.065792,3
2024-06-14 08:28:39.153,-2.24,-43.015,0.14,0.151524,-0.007319999999999999,-1.0814080000000001,3
2024-06-14 08:28:39.163,-4.34,-48.16,0.385,0.154208,-0.008052,-1.0882399999999999,3
2024-06-14 08:28:39.172,-7.07,-53.375,0.525,0.163236,-0.009271999999999999,-1.092632,3
2024-06-14 08:28:39.182,-9.379999999999999,-59.15,0.63,0.16592,-0.0012199999999999997,-1.103856,3
2024-06-14 08:28:39.192,-11.9,-66.00999999999999,0.27999999999999997,0.17324,0.005856,-1.129232,3
2024-06-14 08:28:39.201,-12.879999999999999,-73.465,-0.06999999999999999,0.17934,0.024644,-1.152168,3
2024-06-14 08:28:39.211,-12.565000000000001,-83.02000000000001,-1.33,0.175436,0.056852,-1.18462,3
2024-06-14 08:28:39.221,-10.675,-94.395,-3.395,0.179096,0.06588,-1.216828,3
2024-06-14 08:28:39.230,-9.030000000000001,-107.275,-5.215,0.178852,0.048556,-1.254648,3
2024-06-14 08:28:39.240,-8.504999999999999,-121.44999999999999,-6.475,0.19154,0.025619999999999997,-1.29198,3
2024-06-14 08:28:39.250,-8.05,-136.64,-6.825,0.20691199999999998,0.020007999999999998,-1.331996,3
2024-06-14 08:28:39.259,-11.129999999999999,-151.06,-7.665,0.218868,0.025864,-1.3820160000000001,3
2024-06-14 08:28:39.269,-15.575,-166.635,-9.66,0.202764,0.072712,-1.449604,3
2024-06-14 08:28:39.279,-16.1,-185.745,-14.035,0.20422800000000002,0.13541999999999998,-1.300032,3
2024-06-14 08:28:39.288,-12.18,-213.01,-19.6,0.202276,0.139568,-1.5047479999999998,3
2024-06-14 08:28:39.298,-12.46,-238.595,-25.689999999999998,0.21545199999999998,0.13688399999999998,-1.5925880000000001,3
2024-06-14 08:28:39.308,-10.045,-265.96500000000003,-31.71,0.208864,0.14957199999999998,-1.657004,3
2024-06-14 08:28:39.317,-8.54,-295.67999999999995,-38.01,0.217892,0.1647,-1.713368,3
2024-06-14 08:28:39.327,-5.355,-327.705,-43.575,0.238388,0.141276,-1.838784,3
2024-06-14 08:28:39.337,1.925,-359.69500000000005,-45.78,0.31890799999999997,0.10979999999999998,-1.9439479999999998,3
2024-06-14 08:28:39.346,12.81,-384.92999999999995,-42.42,0.415288,0.093208,-2.233576,3
2024-06-14 08:28:39.356,17.78,-402.92,-40.075,0.5741319999999999,0.3172,-2.476844,3
2024-06-14 08:28:39.365,7.77,-408.59000000000003,-44.87,0.537044,0.6070720000000001,-2.60714,3
2024-06-14 08:28:39.375,-12.809999999999999,-404.635,-63.28,0.281576,0.766648,-2.619828,3
2024-06-14 08:28:39.385,-12.04,-410.97,-92.19,0.27815999999999996,0.8532679999999999,-2.255292,3
2024-06-14 08:28:39.394,13.825,-429.73,-118.125,0.565104,0.9123159999999999,-2.1408560000000003,3
2024-06-14 08:28:39.404,-38.01,-435.75,-131.53,0.23448400000000003,1.3139399999999999,-1.9764,3
2024-06-14 08:28:39.414,-159.495,-416.78,-158.935,-0.23912,1.397144,-1.929796,3
2024-06-14 08:28:39.423,-236.74,-377.02,-198.695,-0.682956,0.9855160000000001,-1.8077960000000002,4
2024-06-14 08:28:39.433,-235.445,-311.36,-235.585,-0.9733160000000001,0.43676,-1.3710360000000001,4
2024-06-14 08:28:39.443,-160.93,-239.54000000000002,-205.03,-0.437736,0.069052,-0.96624,4
2024-06-14 08:28:39.452,-85.75,-80.255,-131.98499999999999,-1.3054000000000001,-0.49361199999999994,-0.873764,4
2024-06-14 08:28:39.462,-2.135,65.275,-27.790000000000003,-1.262456,-0.347212,-0.5709599999999999,4
2024-06-14 08:28:39.472,61.459999999999994,163.51999999999998,40.075,-0.857904,-0.010979999999999997,-0.859368,4
2024-06-14 08:28:39.481,76.23,225.155,69.195,-0.771772,0.34355199999999997,-0.896456,4
2024-06-14 08:28:39.491,53.480000000000004,257.81,67.235,-0.57462,0.5077639999999999,-0.916952,4
2024-06-14 08:28:39.501,16.065,274.155,51.870000000000005,-0.468724,0.479704,-0.91622,4
2024-06-14 08:28:39.510,-12.74,279.265,33.04,-0.39406,0.327204,-0.8625399999999999,4
2024-06-14 08:28:39.520,-22.575000000000003,277.76,16.835,-0.32598399999999994,0.158356,-0.8425320000000001,4
2024-06-14 08:28:39.530,-19.04,273.105,4.235,-0.27401200000000003,0.084424,-0.834724,4
2024-06-14 08:28:39.539,-12.18,269.78,-7.0,-0.27401200000000003,0.06466,-0.796416,4
2024-06-14 08:28:39.549,-8.084999999999999,273.7,-16.485,-0.299632,0.06368399999999999,-0.8205720000000001,4
2024-06-14 08:28:39.559,-8.715,286.86,-21.98,-0.32866799999999996,0.039772,-0.872544,4
2024-06-14 08:28:39.568,-11.2,304.605,-21.525,-0.375028,-0.0017079999999999994,-0.9184159999999999,4
2024-06-14 08:28:39.578,-12.25,321.02,-15.015,-0.37917599999999996,-0.056608,-0.97234,4
2024-06-14 08:28:39.588,-12.355,331.83500000000004,-3.745,-0.354044,-0.09638,-1.03334,4
2024-06-14 08:28:39.597,-13.79,338.87,9.17,-0.32988799999999996,-0.08710799999999999,-1.102636,4
2024-06-14 08:28:39.607,-20.79,343.49,20.58,-0.29426399999999997,-0.05124,-1.179252,4
2024-06-14 08:28:39.617,-31.045,343.945,29.715,-0.25668799999999997,-0.030987999999999998,-1.243912,4
2024-06-14 08:28:39.626,-41.44,339.22,36.435,-0.188856,-0.012931999999999999,-1.337364,4
2024-06-14 08:28:39.636,-50.4,333.235,42.595,-0.160308,-0.012199999999999999,-1.411052,4
2024-06-14 08:28:39.646,-57.785,329.525,49.805,-0.12492799999999998,-0.0183,-1.517436,4
2024-06-14 08:28:39.655,-62.16,328.405,60.2,-0.093696,-0.043676,-1.610156,4
2024-06-14 08:28:39.665,-62.265,330.295,73.675,-0.071004,-0.07197999999999999,-1.699948,4
2024-06-14 08:28:39.674,-59.57,334.91499999999996,87.325,-0.050263999999999996,-0.043188,-1.792668,4
2024-06-14 08:28:39.684,-61.845,338.835,94.36,-0.014396,0.021716000000000003,-1.904176,4
2024-06-14 08:28:39.694,-66.745,341.53,93.76499999999999,0.040748,0.04026,-2.037156,4
2024-06-14 08:28:39.703,-65.065,344.53999999999996,89.495,0.10614,0.0427,-2.1715999999999998,4
2024-06-14 08:28:39.713,-58.31,347.97,83.16,0.195932,0.0854,-2.28872,4
2024-06-14 08:28:39.723,-53.305,349.79,74.23500000000001,0.32476400000000005,0.165188,-2.3663119999999997,4
2024-06-14 08:28:39.732,-51.905,347.83,63.7,0.5045919999999999,0.24668399999999996,-2.423896,4
2024-06-14 08:28:39.742,-53.760000000000005,341.07500000000005,54.144999999999996,0.7371239999999999,0.32598400000000005,-2.45952,4
2024-06-14 08:28:39.752,-59.394999999999996,328.65,46.97,1.003084,0.406504,-2.449516,4
2024-06-14 08:28:39.761,-72.275,309.96000000000004,40.775000000000006,1.2902719999999999,0.49458799999999997,-2.390712,4
2024-06-14 08:28:39.771,-93.555,285.42499999999995,33.845,1.612596,0.510448,-2.2935999999999996,4
2024-06-14 08:28:39.781,-112.77000000000001,255.5,26.46,1.9561479999999998,0.423828,-2.1725760000000003,4
2024-06-14 08:28:39.790,-128.275,223.055,17.36,2.305556,0.242292,-2.017636,4
2024-06-14 08:28:39.800,-142.485,189.20999999999998,7.35,2.7435359999999998,-0.131516,-1.846592,4
2024-06-14 08:28:39.810,-146.055,152.635,3.045,3.339384,-0.810568,-1.653588,4
2024-06-14 08:28:39.819,-121.87,107.52000000000001,13.265,3.885944,-1.589416,-1.50548,4
2024-06-14 08:28:39.829,-53.9,50.084999999999994,32.165,3.95768,-1.9815239999999998,-1.363472,4
2024-06-14 08:28:39.839,31.01,-6.125000000000001,45.43,3.462604,-1.603812,-1.250256,4
2024-06-14 08:28:39.848,79.8,-41.195,43.19,2.7323120000000003,-0.89548,-1.143872,4
2024-06-14 08:28:39.858,92.505,-58.205,36.75,2.101816,-0.458476,-1.066036,4
2024-06-14 08:28:39.868,152.215,-154.14,29.155,3.8125,0.20813199999999998,-1.312964,4
