time,gyroscope_x,gyroscope_y,gyroscope_z,accelerometer_x,accelerometer_y,accelerometer_z,phase
2024-06-14 12:25:46.996,-284.83,-403.48,74.13,4.237792,-1.9607839999999999,-12.162912,1
2024-06-14 12:25:47.001,-207.97,-170.1,92.89,-2.497096,-1.188768,4.08456,1
2024-06-14 12:25:47.006,-346.57,-279.09,116.9,-0.876936,0.40308799999999995,-1.394704,1
2024-06-14 12:25:47.011,-391.93,-322.28,106.68,-1.42496,-0.016592,-2.165744,1
2024-06-14 12:25:47.015,-375.83,-356.02,77.0,-0.073688,-0.324032,-2.395592,1
2024-06-14 12:25:47.020,-268.03,-372.47,28.63,0.21472,-0.550464,-2.454152,1
2024-06-14 12:25:47.025,-177.8,-370.65,-27.16,0.53924,-0.181536,-2.5693200000000003,1
2024-06-14 12:25:47.030,-109.34,-353.5,-63.63,0.604144,0.243512,-2.921656,1
2024-06-14 12:25:47.035,-63.56,-322.56,-80.43,0.448472,0.19519999999999998,-2.677168,1
2024-06-14 12:25:47.040,-50.4,-277.83,-83.51,0.290848,0.40992,-2.7962399999999996,1
2024-06-14 12:25:47.044,-38.78,-231.63,-65.03,0.105896,0.671488,-2.5849360000000003,1
2024-06-14 12:25:47.049,-29.96,-200.41,-40.04,0.16006399999999998,0.481168,-2.062288,1
2024-06-14 12:25:47.054,-7.91,-187.88,-28.28,0.20788800000000002,0.413824,-1.865624,1
2024-06-14 12:25:47.059,17.22,-172.34,-20.02,0.11175199999999999,0.228872,-1.665544,1
2024-06-14 12:25:47.064,22.05,-144.9,-19.25,0.003904,-0.001464,-1.4630239999999999,1
2024-06-14 12:25:47.069,24.36,-132.3,-26.18,-0.054655999999999996,-0.104432,-1.404952,1
2024-06-14 12:25:47.073,16.66,-108.78,-35.0,-0.012199999999999999,-0.054168,-1.338096,1
2024-06-14 12:25:47.078,10.08,-85.89,-38.22,0.030256,-0.030256,-1.26148,1
2024-06-14 12:25:47.083,7.14,-67.27,-35.77,0.0366,0.087352,-1.215608,1
2024-06-14 12:25:47.088,3.29,-52.5,-28.28,0.047335999999999996,0.099064,-1.162416,1
2024-06-14 12:25:47.093,3.08,-45.29,-19.46,0.06490399999999999,0.084424,-1.1736399999999998,1
2024-06-14 12:25:47.098,0.98,-36.05,-14.0,0.081008,0.03904,-1.19072,1
2024-06-14 12:25:47.102,-1.75,-30.24,-12.46,0.094184,-0.024399999999999998,-1.2068240000000001,2
2024-06-14 12:25:47.107,-2.59,-24.92,-12.46,0.105408,-0.030256,-1.2190239999999999,2
2024-06-14 12:25:47.112,-4.69,-24.57,-11.48,0.06831999999999999,0.022448,-1.2014559999999999,2
2024-06-14 12:25:47.117,-2.94,-24.43,-8.26,0.026352,0.04636,-1.150216,2
2024-06-14 12:25:47.122,-0.35,-19.74,-4.48,-0.013663999999999999,0.050752,-1.127768,2
2024-06-14 12:25:47.127,1.26,-14.98,-2.03,-0.014152,0.022936,-1.106296,2
2024-06-14 12:25:47.131,2.31,-14.49,-1.26,-0.009272,0.015616,-1.1150799999999998,2
2024-06-14 12:25:47.136,3.15,-15.61,-1.61,-0.016104,0.0034159999999999998,-1.1223999999999998,2
2024-06-14 12:25:47.141,3.29,-16.1,-1.61,-0.042944,0.00732,-1.113616,2
2024-06-14 12:25:47.146,3.15,-17.29,-0.7,-0.051728,0.011712,-1.113616,2
2024-06-14 12:25:47.151,3.01,-20.3,0.14,-0.063928,0.019032,-1.113616,2
2024-06-14 12:25:47.156,3.36,-23.45,0.63,-0.07808,0.037088,-1.113616,2
2024-06-14 12:25:47.160,3.78,-26.18,0.84,-0.050752,0.012199999999999999,-1.112152,2
2024-06-14 12:25:47.165,4.2,-29.19,0.98,-0.059536,0.049288,-1.118496,2
2024-06-14 12:25:47.170,5.81,-30.52,1.33,-0.038552,0.028791999999999998,-1.1263040000000002,2
2024-06-14 12:25:47.175,7.63,-32.76,0.63,-0.02196,-0.001464,-1.092144,2
2024-06-14 12:25:47.180,8.82,-35.77,0.77,-0.01952,0.0034159999999999998,-1.087752,2
2024-06-14 12:25:47.185,9.59,-37.73,0.63,-0.001952,-0.018544,-1.0755519999999998,2
2024-06-14 12:25:47.189,10.99,-39.41,0.98,-0.057095999999999994,0.040504,-1.111176,2
2024-06-14 12:25:47.194,12.04,-40.46,0.77,-0.025864,0.028791999999999998,-1.112152,2
2024-06-14 12:25:47.199,12.88,-42.28,0.56,-0.044896,0.035135999999999994,-1.111176,2
2024-06-14 12:25:47.204,13.37,-45.57,0.7,-0.057095999999999994,0.049775999999999994,-1.130696,2
2024-06-14 12:25:47.209,23.31,-83.58,0.77,-0.07466400000000001,0.053192,-1.129232,2
2024-06-14 12:25:47.214,20.65,-30.94,0.49,-0.075152,0.059048,-1.1282560000000001,2
2024-06-14 12:25:47.218,14.35,-41.02,1.47,-0.025376,0.044896,-1.107272,2
2024-06-14 12:25:47.223,15.75,-31.99,1.05,0.036112000000000005,0.008783999999999998,-1.092632,2
2024-06-14 12:25:47.228,15.33,-46.83,0.56,0.010736,-0.02196,-1.092632,2
2024-06-14 12:25:47.233,10.92,-49.35,-0.28,-0.015128,-0.00488,-1.097512,2
2024-06-14 12:25:47.238,15.12,-57.82,-0.35,-0.015616,0.002928,-1.096048,2
2024-06-14 12:25:47.243,9.87,-55.86,0.28,-0.0068319999999999995,-0.006344,-1.096536,2
2024-06-14 12:25:47.247,7.63,-57.47,0.98,0.015128,-0.01464,-1.086288,2
2024-06-14 12:25:47.252,-7.77,-98.14,-0.84,0.030744,-0.021472,-1.071648,2
2024-06-14 12:25:47.257,7.91,-63.98,0.21,0.036112000000000005,-0.014152,-1.069696,2
2024-06-14 12:25:47.262,3.15,-61.95,0.63,0.035624,-0.016592,-1.0760399999999999,2
2024-06-14 12:25:47.267,2.8,-61.53,0.91,0.03904,-0.013176,-1.079944,2
2024-06-14 12:25:47.272,3.5,-63.98,0.91,0.050752,-0.012199999999999999,-1.070184,2
2024-06-14 12:25:47.276,0.14,-62.3,0.98,0.054168,-0.011712,-1.077016,2
2024-06-14 12:25:47.281,2.87,-64.96,1.33,0.050263999999999996,-0.001464,-1.080432,2
2024-06-14 12:25:47.286,3.22,-61.04,1.4,0.057095999999999994,-0.0034159999999999998,-1.082384,2
2024-06-14 12:25:47.291,3.29,-68.04,1.61,0.06978399999999998,0.0034159999999999998,-1.083848,2
2024-06-14 12:25:47.296,3.92,-69.09,1.4,0.08295999999999999,0.000976,-1.087752,2
2024-06-14 12:25:47.301,3.29,-71.33,1.68,0.081008,-0.0034159999999999998,-1.100928,2
2024-06-14 12:25:47.305,6.51,-68.32,1.82,0.078568,0.00244,-1.1082480000000001,2
2024-06-14 12:25:47.310,7.14,-67.13,2.38,0.087352,-0.004391999999999999,-1.108736,2
2024-06-14 12:25:47.315,10.57,-65.17,2.17,0.081008,-0.00244,-1.13704,2
2024-06-14 12:25:47.320,12.67,-65.8,2.1,0.094184,-0.025864,-1.112152,2
2024-06-14 12:25:47.325,6.58,-62.02,1.05,0.101992,-0.010736,-1.1204479999999999,2
2024-06-14 12:25:47.330,3.85,-62.37,1.75,0.103456,-0.04392,-1.1082480000000001,2
2024-06-14 12:25:47.334,1.89,-63.07,1.82,0.103456,-0.026352,-1.089216,2
2024-06-14 12:25:47.339,2.45,-63.35,3.01,0.118096,-0.044408,-1.063352,2
2024-06-14 12:25:47.344,5.95,-62.86,3.5,0.121024,-0.022448,-1.068232,2
2024-06-14 12:25:47.349,8.61,-61.6,4.55,0.13078399999999998,-0.042455999999999994,-1.0589600000000001,2
2024-06-14 12:25:47.354,8.19,-59.36,5.67,0.12980799999999998,-0.022936,-1.05408,2
2024-06-14 12:25:47.359,4.13,-58.24,6.44,0.122976,-0.07222400000000001,-1.068232,2
2024-06-14 12:25:47.363,-7.91,-62.44,6.86,0.15372,-0.07027199999999999,-1.0833599999999999,2
2024-06-14 12:25:47.368,-5.53,-59.36,8.47,0.14591200000000001,-0.06539199999999999,-1.133136,2
2024-06-14 12:25:47.373,-9.94,-61.04,9.24,0.1586,-0.056119999999999996,-1.133136,2
2024-06-14 12:25:47.378,-11.27,-63.21,10.64,0.16591999999999998,-0.08637600000000001,-1.1458240000000002,2
2024-06-14 12:25:47.383,-9.24,-61.46,12.11,0.16591999999999998,-0.040992,-1.147288,2
2024-06-14 12:25:47.388,-9.45,-63.49,12.88,0.166896,-0.04392,-1.1443599999999998,2
2024-06-14 12:25:47.392,-7.0,-65.66,12.81,0.165432,0.06490399999999999,-1.177056,2
2024-06-14 12:25:47.397,-5.39,-69.65,11.48,0.182024,-0.024399999999999998,-1.221952,2
2024-06-14 12:25:47.402,-2.8,-73.43,11.34,0.184464,0.052216,-1.1873040000000001,2
2024-06-14 12:25:47.407,1.75,-75.25,10.15,0.19032,0.037088,-1.22244,2
2024-06-14 12:25:47.412,5.6,-77.98,9.45,0.185928,0.040015999999999996,-1.25904,2
2024-06-14 12:25:47.417,8.82,-81.97,8.33,0.20788800000000002,0.049288,-1.285392,2
2024-06-14 12:25:47.421,13.16,-85.54,7.49,0.208376,0.044408,-1.29808,2
2024-06-14 12:25:47.426,18.55,-89.95,6.65,0.20788800000000002,0.040992,-1.367864,2
2024-06-14 12:25:47.431,21.49,-96.53,6.16,0.210816,0.011712,-1.382504,2
2024-06-14 12:25:47.436,24.36,-103.11,5.53,0.217648,0.008783999999999998,-1.407392,2
2024-06-14 12:25:47.441,25.13,-111.65,5.11,0.213744,0.01952,-1.4283759999999999,2
2024-06-14 12:25:47.446,25.76,-118.79,4.62,0.2196,0.007808,-1.445944,2
2024-06-14 12:25:47.450,27.93,-126.91,3.99,0.221552,0.02684,-1.417152,2
2024-06-14 12:25:47.455,31.01,-134.82,3.36,0.22691999999999998,0.024887999999999997,-1.440576,2
2024-06-14 12:25:47.460,34.23,-143.29,2.45,0.221552,0.066368,-1.46644,2
2024-06-14 12:25:47.465,37.59,-153.44,1.26,0.224968,0.045872,-1.501088,2
2024-06-14 12:25:47.470,42.42,-162.68,0.28,0.220088,0.045872,-1.523536,2
2024-06-14 12:25:47.475,45.08,-172.97,-0.21,0.218136,0.055144,-1.54452,2
2024-06-14 12:25:47.479,48.72,-184.94,-1.12,0.219112,0.057583999999999996,-1.56648,2
2024-06-14 12:25:47.484,52.71,-196.42,-1.61,0.21716,0.049775999999999994,-1.6523679999999998,3
2024-06-14 12:25:47.489,55.58,-207.76,-1.61,0.232288,-0.001952,-1.640656,3
2024-06-14 12:25:47.494,56.21,-220.01,-1.33,0.222528,-0.023912,-1.658224,3
2024-06-14 12:25:47.499,52.78,-237.16,-1.54,0.235704,-0.022936,-1.8788,3
2024-06-14 12:25:47.504,58.24,-251.02,-1.05,0.19276,0.0068319999999999995,-1.863672,3
2024-06-14 12:25:47.508,59.57,-268.38,-0.35,0.197152,-0.036112000000000005,-1.9251599999999998,3
2024-06-14 12:25:47.513,60.48,-287.77,1.05,0.19422399999999998,-0.068808,-1.939312,3
2024-06-14 12:25:47.518,58.17,-307.58,2.87,0.19422399999999998,-0.083448,-1.999824,3
2024-06-14 12:25:47.523,55.23,-326.69,4.41,0.197152,-0.052704,-2.111576,3
2024-06-14 12:25:47.528,51.03,-348.25,5.25,0.165432,-0.073688,-2.1398800000000002,3
2024-06-14 12:25:47.533,49.07,-369.46,6.09,0.160552,-0.06831999999999999,-2.289208,3
2024-06-14 12:25:47.537,44.73,-392.49,5.81,0.19032,0.057095999999999994,-2.434144,3
2024-06-14 12:25:47.542,36.61,-415.73,2.94,0.263032,0.154208,-2.6195839999999997,3
2024-06-14 12:25:47.547,24.43,-440.3,-2.8,0.29524,0.12932,-2.994368,3
2024-06-14 12:25:47.552,18.97,-458.99,-4.41,0.41724,-0.040504,-3.1027039999999997,3
2024-06-14 12:25:47.557,5.32,-482.58,-5.95,0.39527999999999996,0.08539999999999999,-3.2271439999999996,3
2024-06-14 12:25:47.562,-2.94,-506.8,-9.1,0.37868799999999997,-0.073688,-3.4994479999999997,3
2024-06-14 12:25:47.566,-10.36,-528.08,-10.71,0.333304,-0.167872,-3.7488159999999997,3
2024-06-14 12:25:47.571,-18.06,-547.61,-11.76,0.24888,-0.198616,-3.9591439999999998,3
2024-06-14 12:25:47.576,-35.0,-561.47,-10.29,0.26352,-0.09516,-4.185576,3
2024-06-14 12:25:47.581,-51.17,-585.76,-14.0,0.018544,-0.076128,-3.976712,3
2024-06-14 12:25:47.586,-57.05,-600.88,-20.16,-0.041479999999999996,-0.25668799999999997,-3.7073359999999997,3
2024-06-14 12:25:47.591,-55.23,-611.87,-24.22,-0.365024,-0.435784,-3.7151439999999996,3
2024-06-14 12:25:47.595,-49.28,-622.51,-21.98,-0.438712,-0.371856,-3.670248,3
2024-06-14 12:25:47.600,-46.48,-622.58,-28.7,-0.72956,-0.23912,-3.1066079999999996,3
2024-06-14 12:25:47.605,-27.09,-611.24,-32.06,-1.159,-0.3538,-2.5849360000000003,3
2024-06-14 12:25:47.610,-11.83,-575.33,-32.97,-1.434232,-0.540704,-1.5640399999999999,3
2024-06-14 12:25:47.615,4.48,-507.08,-26.46,-1.94468,-0.646112,-1.508896,3
2024-06-14 12:25:47.620,28.98,-432.74,-14.63,-1.2141440000000001,-0.687104,-1.789008,3
2024-06-14 12:25:47.624,46.2,-369.25,-4.9,-1.72996,-0.545584,-1.77876,3
2024-06-14 12:25:47.629,49.14,-276.29,-11.06,-1.4015360000000001,-0.249368,-0.9989359999999999,4
2024-06-14 12:25:47.634,43.75,-173.18,-10.57,-1.17852,-0.19422399999999998,-1.9251599999999998,4
2024-06-14 12:25:47.639,2.66,-30.73,-9.03,-2.497096,0.672464,-1.9925039999999998,4
2024-06-14 12:25:47.644,-46.27,58.45,-16.66,-2.3057999999999996,0.57096,-1.668472,4
2024-06-14 12:25:47.649,-99.96,108.29,-12.88,-1.43228,0.17568,-1.952488,4
2024-06-14 12:25:47.653,-131.6,127.68,2.45,-1.208776,-0.034648,-2.0539919999999996,4
2024-06-14 12:25:47.658,-130.27,137.41,24.08,-1.299056,-0.357704,-1.701656,4
2024-06-14 12:25:47.663,-111.65,149.31,50.19,-1.295152,-0.59048,-1.38348,4
2024-06-14 12:25:47.668,-81.97,164.85,78.61,-1.21268,-0.672464,-1.267824,4
2024-06-14 12:25:47.673,-46.97,183.89,106.54,-1.1643679999999998,-0.636352,-1.1970640000000001,4
2024-06-14 12:25:47.678,-15.12,206.01,130.76,-1.152656,-0.5197200000000001,-1.102392,4
2024-06-14 12:25:47.682,6.93,230.16,149.52,-1.140456,-0.356728,-1.03212,4
2024-06-14 12:25:47.687,17.01,256.2,162.82,-1.109224,-0.182024,-0.999912,4
2024-06-14 12:25:47.692,17.22,280.21,170.59,-1.0555439999999998,-0.040504,-0.9940559999999999,4
2024-06-14 12:25:47.697,11.27,302.54,173.32,-0.9872239999999999,0.05368,-0.978928,4
2024-06-14 12:25:47.702,1.61,322.63,172.06,-0.921832,0.10052799999999999,-0.978928,4
2024-06-14 12:25:47.707,-7.98,339.15,167.86,-0.854976,0.105408,-0.994544,4
2024-06-14 12:25:47.711,-15.82,353.08,162.05,-0.798856,0.08295999999999999,-1.002352,4
2024-06-14 12:25:47.716,-21.14,364.21,154.98,-0.7422479999999999,0.060512,-1.020408,4
2024-06-14 12:25:47.721,-24.08,373.17,146.93,-0.685152,0.041968,-1.0492000000000001,4
2024-06-14 12:25:47.726,-24.43,381.5,137.97,-0.634888,0.014152,-1.077016,4
2024-06-14 12:25:47.731,-22.68,389.83,128.17,-0.5787680000000001,0.007808,-1.096536,4
2024-06-14 12:25:47.736,-19.81,395.78,117.6,-0.538264,-0.008783999999999998,-1.135576,4
2024-06-14 12:25:47.740,-14.35,402.57,107.03,-0.496296,-0.030744,-1.176568,4
2024-06-14 12:25:47.745,-7.98,407.54,96.25,-0.442616,-0.044896,-1.216096,4
2024-06-14 12:25:47.750,-1.33,410.97,85.61,-0.38795999999999997,-0.042944,-1.2639200000000002,4
2024-06-14 12:25:47.755,4.62,415.38,75.11,-0.354288,-0.030256,-1.314672,4
2024-06-14 12:25:47.760,9.03,418.11,64.82,-0.325496,-0.029768,-1.367376,4
2024-06-14 12:25:47.765,12.11,420.63,55.02,-0.2928,-0.023424,-1.421056,4
2024-06-14 12:25:47.769,13.86,423.15,45.64,-0.26156799999999997,-0.02684,-1.4762,4
2024-06-14 12:25:47.774,15.12,425.39,37.59,-0.23179999999999998,-0.040992,-1.5274400000000001,4
2024-06-14 12:25:47.779,16.87,426.79,30.66,-0.198616,-0.079056,-1.586,4
2024-06-14 12:25:47.784,19.74,427.07,25.48,-0.1586,-0.12980799999999998,-1.64456,4
2024-06-14 12:25:47.789,24.57,427.28,22.26,-0.117608,-0.183976,-1.711416,4
2024-06-14 12:25:47.794,31.15,427.0,20.58,-0.081008,-0.215696,-1.774368,4
2024-06-14 12:25:47.798,38.15,426.72,20.3,-0.045384,-0.23472800000000002,-1.843176,4
2024-06-14 12:25:47.803,44.73,427.56,20.02,0.0,-0.227896,-1.8958799999999998,4
2024-06-14 12:25:47.808,47.67,427.42,19.53,0.038552,-0.215208,-1.963712,4
2024-06-14 12:25:47.813,53.48,428.61,19.25,0.05856,-0.23668,-2.014464,4
2024-06-14 12:25:47.818,58.94,430.43,18.55,0.07466400000000001,-0.22838399999999998,-2.0876639999999997,4
2024-06-14 12:25:47.823,62.37,431.41,17.08,0.117608,-0.216672,-2.120848,4
2024-06-14 12:25:47.827,65.87,431.76,14.07,0.152744,-0.20251999999999998,-2.187704,4
2024-06-14 12:25:47.832,68.81,431.83,9.45,0.162992,-0.195688,-2.292624,4
2024-06-14 12:25:47.837,72.24,431.83,3.64,0.186904,-0.183,-2.3697280000000003,4
2024-06-14 12:25:47.842,74.48,433.02,-4.27,0.2196,-0.174216,-2.47416,4
2024-06-14 12:25:47.847,76.09,434.42,-13.72,0.255712,-0.182512,-2.578592,4
2024-06-14 12:25:47.852,78.12,437.01,-24.15,0.32452,-0.21862399999999999,-2.692784,4
2024-06-14 12:25:47.856,80.43,438.69,-35.21,0.415288,-0.262544,-2.794288,4
2024-06-14 12:25:47.861,83.37,440.58,-46.13,0.5328959999999999,-0.325984,-2.8821280000000002,4
2024-06-14 12:25:47.866,86.87,440.16,-56.49,0.671976,-0.397232,-2.959232,4
2024-06-14 12:25:47.871,90.93,438.06,-66.29,0.823256,-0.46408799999999995,-3.005592,4
2024-06-14 12:25:47.876,96.6,434.84,-75.32,0.976976,-0.5426559999999999,-3.007056,4
2024-06-14 12:25:47.881,104.72,429.38,-83.44,1.113616,-0.511424,-2.84748,4
2024-06-14 12:25:47.885,127.26,423.64,-91.49,1.1243519999999998,-0.41724,-2.84016,4
2024-06-14 12:25:47.890,161.7,415.1,-95.83,1.3327280000000001,-0.42456,-2.980704,4
2024-06-14 12:25:47.895,183.19,406.77,-95.76,1.6025919999999998,-0.401624,-3.1427199999999997,4
2024-06-14 12:25:47.900,192.22,394.38,-94.22,1.894904,-0.22106399999999998,-3.2046959999999998,4
2024-06-14 12:25:47.905,190.33,384.44,-93.31,2.150128,-0.120048,-3.145648,4
2024-06-14 12:25:47.910,178.99,375.41,-91.77,2.4848959999999995,0.017079999999999998,-3.0661039999999997,4
2024-06-14 12:25:47.914,161.63,365.26,-90.72,2.829424,0.09759999999999999,-2.977288,4
2024-06-14 12:25:47.919,143.85,350.56,-90.02,3.226168,0.16494399999999998,-2.841624,4
2024-06-14 12:25:47.924,126.49,329.42,-88.76,3.6194960000000003,0.182024,-2.644472,4
2024-06-14 12:25:47.929,109.13,301.42,-85.19,4.0172159999999995,0.12932,-2.441464,4
2024-06-14 12:25:47.934,92.26,269.29,-76.79,4.420304,0.017079999999999998,-2.224792,4
2024-06-14 12:25:47.939,78.4,233.59,-61.95,4.76776,-0.106872,-2.0291040000000002,4
2024-06-14 12:25:47.943,72.24,197.96,-41.02,5.067392,-0.183488,-1.850008,4
2024-06-14 12:25:47.948,70.98,162.12,-16.24,5.344088,-0.22594399999999998,-1.70556,4
2024-06-14 12:25:47.953,78.12,127.47,9.87,5.671536,-0.11223999999999999,-1.548912,4
2024-06-14 12:25:47.958,87.5,92.54,35.28,5.750591999999999,0.033671999999999994,-1.4508240000000001,4
2024-06-14 12:25:47.963,92.4,55.79,57.47,5.74376,0.343064,-1.403976,4
2024-06-14 12:25:47.967,87.43,18.13,70.63,5.6378639999999995,0.7178479999999999,-1.349808,4
2024-06-14 12:25:47.972,65.45,-22.75,74.27,5.3650720000000005,0.95892,-1.38348,4
2024-06-14 12:25:47.977,33.6,-61.81,70.91,5.06544,1.135576,-1.4093440000000002,4
2024-06-14 12:25:47.982,-5.6,-96.18,61.74,4.65796,1.072136,-1.49084,4
2024-06-14 12:25:47.987,-41.44,-123.27,51.52,4.258287999999999,0.8662,-1.5962480000000001,4
2024-06-14 12:25:47.992,-317.45,-324.87,22.68,5.471456,1.469368,-10.40416,4
