time,gyroscope_x,gyroscope_y,gyroscope_z,accelerometer_x,accelerometer_y,accelerometer_z,phase
2024-06-14 10:00:39.938,1.0150000000000006,-342.93,39.129999999999995,2.9606959999999996,0.04367600000000005,-5.163284,1
2024-06-14 10:00:39.943,-103.46,-101.185,38.22,-1.54574,0.8310639999999999,3.612176,1
2024-06-14 10:00:39.947,195.57999999999998,-289.625,42.21,-0.291824,0.388204,-1.2073120000000002,1
2024-06-14 10:00:39.952,210.595,-290.185,26.11,-1.261236,-0.262544,-0.927444,1
2024-06-14 10:00:39.957,235.79500000000002,-333.305,20.79,-0.5124,-0.027084,-1.568676,1
2024-06-14 10:00:39.962,227.78,-352.03,25.585,0.14591200000000001,0.012932,-1.8724560000000001,1
2024-06-14 10:00:39.967,182.56,-359.94,39.095,0.457012,-0.18104800000000001,-2.0486240000000002,1
2024-06-14 10:00:39.972,131.25,-344.82,54.39,0.37942,-0.243756,-2.33874,1
2024-06-14 10:00:39.976,62.3,-306.32,69.825,0.22594399999999998,-0.127368,-1.874408,1
2024-06-14 10:00:39.981,24.64,-277.13,83.22999999999999,0.194224,-0.19934799999999997,-2.528816,1
2024-06-14 10:00:39.986,-10.955,-215.39,81.34,0.25229599999999996,-0.560468,-2.237968,2
2024-06-14 10:00:39.991,-7.42,-192.29000000000002,63.455,0.24009599999999998,-0.707112,-2.257244,2
2024-06-14 10:00:39.996,-7.0,-176.575,37.45,0.158112,-0.75518,-2.0376440000000002,2
2024-06-14 10:00:40.001,-12.25,-160.405,14.875,0.10858,-0.509716,-2.1315839999999997,2
2024-06-14 10:00:40.005,-19.32,-140.07,0.20999999999999996,0.11882799999999999,-0.3599,-1.785348,2
2024-06-14 10:00:40.010,-25.515,-123.725,-3.885,0.11102,-0.030011999999999997,-1.677012,2
2024-06-14 10:00:40.015,-28.42,-103.03999999999999,2.275,0.073932,0.16372399999999998,-1.6396799999999998,2
2024-06-14 10:00:40.020,-33.32,-86.38,12.88,-0.0060999999999999995,0.17324,-1.4866920000000001,2
2024-06-14 10:00:40.025,-36.19,-75.70500000000001,22.4,-0.026352,0.098332,-1.352004,2
2024-06-14 10:00:40.029,-35.42,-68.91499999999999,25.9,-0.040016,-0.039528,-1.224392,2
2024-06-14 10:00:40.034,-31.955,-64.505,22.085,-0.034404000000000004,-0.136152,-1.144116,2
2024-06-14 10:00:40.039,-30.52,-60.515,14.595,-0.028547999999999997,-0.161772,-1.134844,2
2024-06-14 10:00:40.044,-30.415,-55.894999999999996,8.54,-0.032452,-0.09272,-1.128988,2
2024-06-14 10:00:40.049,-31.115000000000002,-53.235,6.755,-0.033428,-0.013663999999999999,-1.145092,2
2024-06-14 10:00:40.054,-30.134999999999998,-49.56,8.084999999999999,-0.031232,0.043188000000000004,-1.1709559999999999,2
2024-06-14 10:00:40.058,-26.634999999999998,-39.41,8.82,0.16469999999999999,0.08003199999999999,-1.24074,2
2024-06-14 10:00:40.063,-20.16,-18.165,8.89,0.015372000000000004,0.111508,-1.241472,2
2024-06-14 10:00:40.068,-10.675,-13.02,6.335,0.100284,-0.019764000000000004,-1.302228,2
2024-06-14 10:00:40.073,-6.79,-12.075,3.99,-0.02318,-0.055875999999999995,-1.1480199999999998,2
2024-06-14 10:00:40.078,-8.295,-10.43,2.6950000000000003,-0.055144,-0.040504,-1.103856,2
2024-06-14 10:00:40.083,-9.030000000000001,-8.96,1.015,-0.059048,-0.024155999999999997,-1.096536,2
2024-06-14 10:00:40.087,-9.555,-8.225,0.77,-0.060756,-0.007564,-1.077016,2
2024-06-14 10:00:40.092,-8.26,-7.279999999999999,0.10499999999999998,-0.040015999999999996,0.007808000000000001,-1.098976,2
2024-06-14 10:00:40.097,-7.21,-6.6850000000000005,-0.525,-0.048311999999999994,-0.007808,-1.098244,2
2024-06-14 10:00:40.102,-7.21,-7.0,-0.665,-0.067832,0.0017079999999999999,-1.087752,2
2024-06-14 10:00:40.107,-6.23,-6.65,-0.98,-0.063928,0.012688000000000001,-1.092388,2
2024-06-14 10:00:40.112,-4.585,-7.595000000000001,-1.19,-0.066856,0.011467999999999999,-1.0945839999999998,2
2024-06-14 10:00:40.116,-3.3600000000000003,-8.785,-1.33,-0.06514799999999998,0.011467999999999999,-1.0945839999999998,2
2024-06-14 10:00:40.121,-2.59,-9.73,-1.7149999999999999,-0.070272,0.00048799999999999994,-1.0906799999999999,2
2024-06-14 10:00:40.126,-2.4850000000000003,-10.71,-1.9949999999999999,-0.062708,-0.000732,-1.0865319999999998,2
2024-06-14 10:00:40.131,-2.8,-11.55,-2.17,-0.062708,-0.004148,-1.0853119999999998,2
2024-06-14 10:00:40.136,-3.185,-12.425,-2.17,-0.055632,-0.002684,-1.0845799999999999,2
2024-06-14 10:00:40.141,-3.71,-13.440000000000001,-2.45,-0.05978,-0.008784,-1.081164,2
2024-06-14 10:00:40.145,-4.48,-14.805,-2.52,-0.061488,-0.00976,-1.0796999999999999,2
2024-06-14 10:00:40.150,-5.145,-16.03,-2.52,-0.060024,-0.004392,-1.0787240000000002,2
2024-06-14 10:00:40.155,-5.6,-17.535,-2.625,-0.061488,-0.004148,-1.079456,2
2024-06-14 10:00:40.160,-6.335,-19.11,-2.625,-0.061244,-0.005124,-1.0797,2
2024-06-14 10:00:40.165,-6.79,-20.3,-2.625,-0.054900000000000004,-0.002928,-1.081164,2
2024-06-14 10:00:40.169,-6.6850000000000005,-21.175,-2.4850000000000003,-0.052704,0.00244,-1.083116,2
2024-06-14 10:00:40.174,-6.58,-21.91,-2.4850000000000003,-0.051484,0.0029279999999999996,-1.0833599999999999,2
2024-06-14 10:00:40.179,-6.545,-22.82,-2.415,-0.048799999999999996,-0.0017079999999999999,-1.0809199999999999,2
2024-06-14 10:00:40.184,-6.6850000000000005,-23.17,-2.2750000000000004,-0.045628,-0.001952,-1.080432,2
2024-06-14 10:00:40.189,-6.755,-23.8,-2.205,-0.043432,0.000488,-1.081164,2
2024-06-14 10:00:40.194,-6.545,-23.87,-2.17,-0.044164,0.004148,-1.0833599999999999,2
2024-06-14 10:00:40.198,-6.265000000000001,-24.465,-2.065,-0.04148,0.00488,-1.0809199999999999,2
2024-06-14 10:00:40.203,-5.8100000000000005,-24.815,-1.9949999999999999,-0.031964,0.007076,-1.080432,2
2024-06-14 10:00:40.208,-5.53,-25.2,-1.9249999999999998,-0.037576,0.01098,-1.0833599999999999,2
2024-06-14 10:00:40.213,-4.62,-24.85,-1.855,-0.031964,0.009272,-1.0796999999999999,2
2024-06-14 10:00:40.218,-4.234999999999999,-25.34,-1.75,-0.029036,0.010735999999999999,-1.077504,2
2024-06-14 10:00:40.223,-3.85,-25.41,-1.6800000000000002,-0.027816,0.014395999999999999,-1.076772,2
2024-06-14 10:00:40.227,-3.2199999999999998,-25.41,-1.54,-0.027327999999999998,0.012688,-1.081896,2
2024-06-14 10:00:40.232,-2.8,-25.2,-1.435,-0.02562,0.013176,-1.0784799999999999,2
2024-06-14 10:00:40.237,-2.17,-25.235,-1.365,-0.019276,0.012688,-1.076284,2
2024-06-14 10:00:40.242,-1.75,-25.305,-1.4,-0.022447999999999996,0.013663999999999999,-1.077504,2
2024-06-14 10:00:40.247,-1.4700000000000002,-24.990000000000002,-1.4,-0.016348,0.01464,-1.069696,2
2024-06-14 10:00:40.252,-1.05,-25.165,-1.47,-0.016104,0.009516,-1.0723799999999999,2
2024-06-14 10:00:40.256,-0.875,-24.78,-1.47,-0.01464,0.006587999999999998,-1.0796999999999999,2
2024-06-14 10:00:40.261,-0.8400000000000001,-25.655,-1.5750000000000002,-0.017568,0.01098,-1.0787240000000002,2
2024-06-14 10:00:40.266,-0.5249999999999999,-25.97,-1.4,-0.01342,0.010003999999999999,-1.081652,2
2024-06-14 10:00:40.271,-0.385,-26.705,-1.435,-0.016592000000000003,0.008296,-1.085068,2
2024-06-14 10:00:40.276,0.27999999999999997,-27.265,-1.435,-0.006588,0.013176,-1.0857999999999999,2
2024-06-14 10:00:40.281,1.225,-28.245,-1.155,-0.009028,0.010492000000000001,-1.0894599999999999,2
2024-06-14 10:00:40.285,2.415,-28.0,-1.12,-0.00048799999999999994,0.01586,-1.0909239999999998,2
2024-06-14 10:00:40.290,2.555,-18.585,-1.995,0.0002440000000000003,0.000732,-1.0848239999999998,2
2024-06-14 10:00:40.295,6.545,-29.54,-0.10499999999999998,-0.003416,0.017079999999999998,-1.0884839999999998,2
2024-06-14 10:00:40.300,5.775,-29.330000000000002,0.28,0.00488,0.01708,-1.0816519999999998,2
2024-06-14 10:00:40.305,25.305,53.62,-0.8050000000000002,0.001707999999999999,0.021471999999999998,-1.0567639999999998,2
2024-06-14 10:00:40.310,8.96,-25.9,-1.1900000000000004,0.014395999999999999,0.018299999999999997,-1.074332,2
2024-06-14 10:00:40.314,8.084999999999999,-23.029999999999998,-2.4850000000000003,0.012931999999999999,0.018788,-1.0787239999999998,2
2024-06-14 10:00:40.319,10.955,-21.770000000000003,-1.7850000000000001,0.017324,0.01586,-1.075796,2
2024-06-14 10:00:40.324,9.1,-20.58,-1.225,0.013420000000000001,0.016104,-1.07848,2
2024-06-14 10:00:40.329,12.32,-18.724999999999998,-1.435,0.023424,0.014152,-1.059448,2
2024-06-14 10:00:40.334,10.01,-18.34,-2.8000000000000003,0.022203999999999998,0.004148,-1.070184,2
2024-06-14 10:00:40.338,11.515,-17.85,-2.66,0.020007999999999998,0.005368,-1.074088,2
2024-06-14 10:00:40.343,9.59,-17.395,-2.135,0.021228,0.004392,-1.080676,2
2024-06-14 10:00:40.348,9.66,-17.955,-1.96,0.026839999999999996,-0.0036599999999999996,-1.076772,2
2024-06-14 10:00:40.353,7.84,-18.095,-2.555,0.02074,-0.015372,-1.0811639999999998,2
2024-06-14 10:00:40.358,6.58,-18.935,-2.87,0.026596,-0.015372,-1.0870199999999999,2
2024-06-14 10:00:40.363,5.495,-19.355,-2.24,0.031476000000000004,-0.014884,-1.076772,2
2024-06-14 10:00:40.367,3.5349999999999997,-20.58,-1.995,0.032452,-0.00976,-1.070672,2
2024-06-14 10:00:40.372,2.31,-20.475,-2.345,0.0305,-0.020007999999999998,-1.068476,2
2024-06-14 10:00:40.377,0.10499999999999998,-21.490000000000002,-2.52,0.036112000000000005,-0.029768,-1.072624,2
2024-06-14 10:00:40.382,-2.065,-22.155,-2.065,0.027572,-0.0305,-1.082384,2
2024-06-14 10:00:40.387,-4.655,-23.45,-1.435,0.027572,-0.030744,-1.0958039999999998,2
2024-06-14 10:00:40.392,-6.72,-25.305,-1.19,0.028304000000000003,-0.018056,-1.107272,2
2024-06-14 10:00:40.396,-9.625,-27.509999999999998,-1.4,0.029767999999999996,-0.019764,-1.1175199999999998,2
2024-06-14 10:00:40.401,-11.165,-29.33,-1.505,0.0305,0.004392,-1.142652,2
2024-06-14 10:00:40.406,-12.215,-30.415,-1.47,0.035136,0.002928,-1.127036,2
2024-06-14 10:00:40.411,-12.46,-32.445,-1.645,0.04636,0.052704,-1.141676,2
2024-06-14 10:00:40.416,-12.635,-35.735,-2.52,0.054655999999999996,0.038552,-1.142652,2
2024-06-14 10:00:40.421,-13.265,-38.08,-4.13,0.041236,0.043432,-1.1253279999999999,2
2024-06-14 10:00:40.425,-12.775,-40.39,-6.02,0.055632,0.051972,-1.124352,2
2024-06-14 10:00:40.430,-15.89,-40.46,-8.05,0.032208,0.058072,-1.1931599999999998,3
2024-06-14 10:00:40.435,-17.64,-40.53,-9.73,0.034648,0.052216,-1.2214639999999999,3
2024-06-14 10:00:40.440,-16.905,-42.945,-10.185,0.030012,0.011224,-1.2346400000000002,3
2024-06-14 10:00:40.445,-5.565,-49.315,-7.07,0.028304,-0.09491599999999999,-1.400316,3
2024-06-14 10:00:40.450,6.300000000000001,-54.11,-1.9250000000000003,0.0488,-0.0034159999999999954,-1.2078,3
2024-06-14 10:00:40.454,3.15,-57.855000000000004,-3.99,0.05831599999999999,0.08296,-1.174128,3
2024-06-14 10:00:40.459,6.825,-58.87,-3.99,0.060268,-0.010735999999999999,-1.279048,3
2024-06-14 10:00:40.464,5.495,-61.285,-4.025,0.06612399999999999,0.064904,-1.2871000000000001,3
2024-06-14 10:00:40.469,0.8400000000000001,-62.79,-5.775,0.067588,0.068808,-1.2880759999999998,3
2024-06-14 10:00:40.474,-5.18,-67.58500000000001,-6.93,0.072468,0.025863999999999998,-1.291492,3
2024-06-14 10:00:40.477,-8.469999999999999,-72.24,-7.35,0.068076,0.006588,-1.309548,3
2024-06-14 10:00:40.481,-14.735,-76.195,-8.26,0.06295200000000001,-0.013663999999999999,-1.353468,3
2024-06-14 10:00:40.486,-16.59,-79.205,-7.875,0.055875999999999995,-0.045872,-1.36152,3
2024-06-14 10:00:40.491,-18.549999999999997,-88.41,-7.0,0.060756000000000004,-0.035624,-1.42252,3
2024-06-14 10:00:40.496,-18.83,-92.155,-6.23,0.061976,-0.055144,-1.408612,3
2024-06-14 10:00:40.501,-16.555,-99.68,-5.005,0.042212,-0.09808800000000001,-1.485228,3
2024-06-14 10:00:40.506,-10.780000000000001,-107.625,-1.995,0.054655999999999996,-0.052216,-1.4388679999999998,3
2024-06-14 10:00:40.510,-11.34,-114.695,-1.575,0.046848,0.056364,-1.51036,3
2024-06-14 10:00:40.515,-14.42,-123.235,-2.415,0.05831599999999999,0.033671999999999994,-1.52988,3
2024-06-14 10:00:40.520,-12.74,-132.02,-2.9050000000000002,0.059047999999999996,0.05245999999999999,-1.536956,3
2024-06-14 10:00:40.525,-13.93,-140.91,-4.515000000000001,0.053924,0.079788,-1.522316,3
2024-06-14 10:00:40.530,-13.684999999999999,-149.205,-6.09,0.050996,0.056608,-1.539152,3
2024-06-14 10:00:40.535,-13.825,-159.355,-6.965,0.05831599999999999,0.06466,-1.544032,3
2024-06-14 10:00:40.539,-15.785,-168.52499999999998,-8.61,0.06466,0.092476,-1.569896,3
2024-06-14 10:00:40.544,-19.985,-179.62,-11.095,0.053436,0.022936,-1.644072,3
2024-06-14 10:00:40.549,-20.335,-190.75,-10.955,0.057828,-0.074664,-1.707512,3
2024-06-14 10:00:40.554,-21.385,-203.28,-10.325,0.061487999999999994,-0.001464,-1.7507,3
2024-06-14 10:00:40.559,-21.034999999999997,-216.72,-11.865,0.092232,0.142984,-1.7416719999999999,3
2024-06-14 10:00:40.564,-20.895000000000003,-231.20999999999998,-16.240000000000002,0.054655999999999996,0.22082000000000002,-1.74094,3
2024-06-14 10:00:40.569,-18.62,-246.015,-21.28,0.03538,0.226676,-1.7150759999999998,3
2024-06-14 10:00:40.573,-14.14,-263.865,-25.795,-0.0068319999999999995,0.286944,-1.708488,3
2024-06-14 10:00:40.578,-12.74,-281.61,-31.535,-0.059536,0.23545999999999997,-1.787544,3
2024-06-14 10:00:40.583,-15.82,-289.8,-34.545,-0.044164,0.023423999999999997,-1.9642,3
2024-06-14 10:00:40.588,-8.190000000000001,-311.395,-33.11,-0.05245999999999999,-0.133956,-1.658468,3
2024-06-14 10:00:40.593,2.38,-334.075,-28.034999999999997,-0.050996,-0.082228,-2.0898600000000003,3
2024-06-14 10:00:40.598,-2.1350000000000002,-352.38,-26.6,0.031232,0.021716,-1.773148,3
2024-06-14 10:00:40.602,-5.215,-379.89,-24.814999999999998,0.069052,0.047336,-2.401448,3
2024-06-14 10:00:40.607,-3.43,-384.125,-24.745,0.0915,0.03172,-2.236504,3
2024-06-14 10:00:40.612,-4.234999999999999,-433.265,-21.56,0.07564,-0.009028000000000001,-2.50466,3
2024-06-14 10:00:40.617,7.3149999999999995,-418.845,-20.755,0.12322,0.027816,-2.495388,3
2024-06-14 10:00:40.622,23.905,-439.03999999999996,-16.695,0.23033599999999999,-0.19764,-2.6083600000000002,3
2024-06-14 10:00:40.627,37.870000000000005,-472.28999999999996,-11.795,0.262056,-0.225944,-2.51076,3
2024-06-14 10:00:40.632,46.34,-468.895,1.5750000000000002,0.197152,-0.09491599999999999,-3.382084,3
2024-06-14 10:00:40.636,18.689999999999998,-455.84000000000003,-0.7,0.378688,0.048068,-3.1802960000000002,3
2024-06-14 10:00:40.641,35.805,-456.505,6.0200000000000005,0.211304,-0.500688,-3.058784,3
2024-06-14 10:00:40.646,41.65,-459.13,17.29,0.033916,-0.418704,-3.159312,3
2024-06-14 10:00:40.651,45.78,-452.375,22.015,-0.020984000000000003,-0.37942,-3.155652,3
2024-06-14 10:00:40.656,68.70500000000001,-454.05499999999995,32.269999999999996,-0.437736,-0.37576,-3.24642,3
2024-06-14 10:00:40.661,79.38,-450.555,40.705,-0.5419240000000001,-0.224968,-3.0102279999999997,3
2024-06-14 10:00:40.665,89.25,-451.71000000000004,48.65,-0.9232959999999999,-0.177388,-2.9526440000000003,3
2024-06-14 10:00:40.670,87.5,-449.505,54.18,-1.163392,-0.071492,-2.669604,4
2024-06-14 10:00:40.675,81.725,-439.425,58.59,-1.319796,0.072712,-2.253828,4
2024-06-14 10:00:40.680,73.5,-422.87,56.875,-1.528904,0.351116,-1.590392,4
2024-06-14 10:00:40.685,86.52000000000001,-410.725,94.465,-1.5215839999999998,0.47116399999999997,-1.063108,4
2024-06-14 10:00:40.690,114.905,-400.925,126.21000000000001,-1.016016,0.14762,-1.219268,4
2024-06-14 10:00:40.695,100.17,-316.53999999999996,135.73,-1.6042999999999998,0.076128,-2.3870519999999997,4
2024-06-14 10:00:40.699,77.735,-203.59500000000003,141.505,-1.965176,-0.010491999999999998,-2.29848,4
2024-06-14 10:00:40.704,48.265,-101.08,143.29,-2.0781479999999997,0.284504,-1.6079599999999998,4
2024-06-14 10:00:40.709,27.02,-12.180000000000001,136.535,-2.109624,0.438956,-1.371036,4
2024-06-14 10:00:40.714,9.100000000000001,56.980000000000004,125.09,-1.853424,0.355996,-1.5342719999999999,4
2024-06-14 10:00:40.719,-11.83,100.975,109.83,-1.540372,0.330864,-1.5676999999999999,4
2024-06-14 10:00:40.724,-29.365000000000002,123.69,91.875,-1.347124,0.271084,-1.434964,4
2024-06-14 10:00:40.728,-42.84,133.21,72.8,-1.203652,0.25180800000000003,-1.1892559999999999,4
2024-06-14 10:00:40.733,-52.989999999999995,135.66,52.71,-1.0857999999999999,0.21838,-1.025288,4
2024-06-14 10:00:40.738,-62.265,136.57,31.990000000000002,-0.971364,0.158356,-0.9269559999999999,4
2024-06-14 10:00:40.743,-68.70500000000001,137.865,12.145000000000001,-0.8940159999999999,0.063196,-0.859612,4
2024-06-14 10:00:40.748,-70.595,140.35000000000002,-5.6000000000000005,-0.83936,-0.029768,-0.802272,4
2024-06-14 10:00:40.753,-66.535,144.585,-20.545,-0.801296,-0.120536,-0.7339519999999999,4
2024-06-14 10:00:40.758,-57.644999999999996,150.465,-32.235,-0.77226,-0.2074,-0.6954,4
2024-06-14 10:00:40.762,-44.52,157.815,-40.67,-0.7395640000000001,-0.280844,-0.676856,4
2024-06-14 10:00:40.767,-28.56,166.39,-45.989999999999995,-0.71126,-0.335256,-0.674416,4
2024-06-14 10:00:40.772,-11.2,175.63,-48.614999999999995,-0.67954,-0.36038800000000004,-0.679052,4
2024-06-14 10:00:40.777,6.6850000000000005,185.5,-49.315,-0.660508,-0.358436,-0.691252,4
2024-06-14 10:00:40.782,23.520000000000003,196.0,-48.93,-0.637572,-0.33305999999999997,-0.70516,4
2024-06-14 10:00:40.787,38.57,206.78,-48.195,-0.616832,-0.293288,-0.72712,4
2024-06-14 10:00:40.791,50.995,217.735,-47.04,-0.5917,-0.24107199999999998,-0.74786,4
2024-06-14 10:00:40.796,60.375,228.76,-46.06,-0.57462,-0.183,-0.781776,4
2024-06-14 10:00:40.801,65.905,239.575,-45.185,-0.554368,-0.12370799999999998,-0.813984,4
2024-06-14 10:00:40.806,68.11,250.45999999999998,-44.59,-0.53192,-0.071736,-0.848144,4
2024-06-14 10:00:40.811,68.355,261.275,-43.855000000000004,-0.5119119999999999,-0.029523999999999995,-0.8764479999999999,4
2024-06-14 10:00:40.816,67.83,271.635,-42.875,-0.48019199999999995,-0.0019520000000000002,-0.910852,4
2024-06-14 10:00:40.821,67.235,281.08500000000004,-41.614999999999995,-0.449692,0.015127999999999999,-0.953064,4
2024-06-14 10:00:40.825,66.745,289.625,-39.725,-0.406992,0.03294,-0.99064,4
2024-06-14 10:00:40.830,66.71000000000001,296.73,-37.239999999999995,-0.365024,0.040748,-1.026996,4
2024-06-14 10:00:40.835,67.55,302.96000000000004,-34.16,-0.323056,0.056364,-1.05896,4
2024-06-14 10:00:40.840,69.30000000000001,307.65,-30.905,-0.288652,0.07441999999999999,-1.0897039999999998,4
2024-06-14 10:00:40.845,71.155,311.22,-27.65,-0.255224,0.098332,-1.126304,4
2024-06-14 10:00:40.850,72.345,313.95,-24.535,-0.226188,0.12151199999999998,-1.166076,4
2024-06-14 10:00:40.854,72.73,316.43499999999995,-21.875,-0.207644,0.14932800000000002,-1.207312,4
2024-06-14 10:00:40.859,71.75,318.78,-19.845,-0.19446799999999997,0.169336,-1.239032,4
2024-06-14 10:00:40.864,69.37,321.92999999999995,-18.445,-0.19202799999999998,0.196176,-1.2780719999999999,4
2024-06-14 10:00:40.869,65.695,325.43,-17.64,-0.188612,0.218136,-1.323944,4
2024-06-14 10:00:40.874,60.864999999999995,330.05,-17.395,-0.184952,0.23643599999999998,-1.375184,4
2024-06-14 10:00:40.879,55.195,335.055,-17.605,-0.18666,0.2501,-1.424472,4
2024-06-14 10:00:40.884,49.0,340.62,-18.06,-0.181536,0.258884,-1.479372,4
2024-06-14 10:00:40.888,42.980000000000004,346.22,-18.585,-0.171532,0.262788,-1.534272,4
2024-06-14 10:00:40.893,37.345,351.225,-19.25,-0.160796,0.264984,-1.600152,4
2024-06-14 10:00:40.898,32.095,355.6,-19.985,-0.141764,0.26718,-1.664812,4
2024-06-14 10:00:40.903,26.705,358.995,-20.825,-0.13029599999999997,0.27327999999999997,-1.7223959999999998,4
2024-06-14 10:00:40.908,21.35,362.145,-21.875,-0.10735999999999998,0.27742799999999995,-1.782908,4
2024-06-14 10:00:40.913,15.05,364.66499999999996,-23.59,-0.082228,0.290848,-1.852204,4
2024-06-14 10:00:40.917,7.77,366.59,-25.97,-0.054412,0.302072,-1.929308,4
2024-06-14 10:00:40.922,-0.14,368.13,-28.84,-0.016836,0.31646799999999997,-2.004216,4
2024-06-14 10:00:40.927,-8.68,368.83000000000004,-32.305,0.023911999999999996,0.32720399999999994,-2.082052,4
2024-06-14 10:00:40.932,-17.71,368.40999999999997,-36.05,0.069296,0.33476799999999995,-2.159888,4
2024-06-14 10:00:40.937,-27.58,366.69500000000005,-39.900000000000006,0.12736799999999998,0.32866799999999996,-2.241384,4
2024-06-14 10:00:40.942,-38.255,363.86,-43.435,0.19373600000000002,0.308904,-2.331908,4
2024-06-14 10:00:40.947,-48.755,359.83500000000004,-45.815,0.269376,0.266448,-2.4126719999999997,4
2024-06-14 10:00:40.951,-57.4,354.27,-46.41,0.36502399999999996,0.21545199999999998,-2.5034400000000003,4
2024-06-14 10:00:40.956,-62.825,347.305,-45.010000000000005,0.46530799999999994,0.18226799999999999,-2.5659039999999997,4
2024-06-14 10:00:40.961,-66.64,339.045,-42.769999999999996,0.568764,0.169336,-2.641788,4
2024-06-14 10:00:40.966,-73.39500000000001,331.79999999999995,-40.6,0.676124,0.16958,-2.72548,4
2024-06-14 10:00:40.971,-82.95,326.83,-38.885000000000005,0.8003199999999999,0.162016,-2.8069759999999997,4
2024-06-14 10:00:40.976,-94.185,325.15,-37.345,0.90402,0.116144,-2.855044,4
2024-06-14 10:00:40.980,-102.9,326.9,-35.735,1.001132,0.049044,-2.877492,4
2024-06-14 10:00:40.985,-106.715,331.695,-32.83,1.084824,-0.034648,-2.894328,4
2024-06-14 10:00:40.990,-104.37,338.41499999999996,-28.28,1.1858400000000002,-0.127612,-2.8831040000000003,4
2024-06-14 10:00:40.995,-95.725,345.275,-21.735,1.296128,-0.205448,-2.847724,4
2024-06-14 10:00:41.000,-82.285,350.455,-13.825,1.4110519999999998,-0.259372,-2.7874559999999997,4
2024-06-14 10:00:41.005,-66.43,352.765,-5.705,1.5362239999999998,-0.2727919999999999,-2.707912,4
2024-06-14 10:00:41.010,-50.295,350.875,2.065,1.6833559999999999,-0.24522,-2.646424,4
2024-06-14 10:00:41.014,-35.980000000000004,345.065,8.504999999999999,1.844884,-0.17909599999999998,-2.5854239999999997,4
2024-06-14 10:00:41.019,-25.479999999999997,335.15999999999997,12.739999999999998,2.005436,-0.071004,-2.5017319999999996,4
2024-06-14 10:00:41.024,-19.46,322.14,14.315,2.165256,0.036356,-2.4175519999999997,4
2024-06-14 10:00:41.032,-18.585,306.845,12.915,2.349476,0.13395600000000002,-2.329468,4
2024-06-14 10:00:41.037,-20.65,290.22,8.82,2.516128,0.19519999999999998,-2.208444,4
2024-06-14 10:00:41.042,-22.295,272.09,2.7300000000000004,2.6827799999999997,0.238632,-2.067168,4
2024-06-14 10:00:41.046,-24.009999999999998,252.875,-5.705,2.855288,0.296948,-1.9388239999999999,4
2024-06-14 10:00:41.051,-27.23,232.155,-16.869999999999997,3.077328,0.34306400000000004,-1.834148,4
2024-06-14 10:00:41.056,-36.085,211.575,-31.045,3.340604,0.351116,-1.744844,4
2024-06-14 10:00:41.061,-49.91,190.505,-46.83,3.6431639999999996,0.28425999999999996,-1.6509040000000001,4
2024-06-14 10:00:41.066,-63.21,165.33999999999997,-47.53,3.6829359999999998,0.620004,-1.527196,4
2024-06-14 10:00:41.070,-73.465,144.34,-71.75,4.298548,-0.46042800000000006,-1.367864,4
2024-06-14 10:00:41.075,-73.36000000000001,113.82,-76.825,4.436408,-0.552172,-1.2907599999999997,4
2024-06-14 10:00:41.080,-60.760000000000005,77.525,-70.91,4.482768,-0.86376,-1.189988,4
2024-06-14 10:00:41.085,-34.125,36.54,-57.68,4.381264,-1.0677439999999998,-1.1302079999999999,4
2024-06-14 10:00:41.090,1.9949999999999997,-5.494999999999999,-40.004999999999995,4.112132,-1.113128,-1.09434,4
2024-06-14 10:00:41.095,40.285,-43.89,-21.35,3.77834,-1.006988,-1.1126399999999999,4
2024-06-14 10:00:41.099,71.53999999999999,-74.445,-4.97,3.406728,-0.76616,-1.194868,4
2024-06-14 10:00:41.104,92.12,-94.78,7.385,3.0285279999999997,-0.48068,-1.287588,4
2024-06-14 10:00:41.109,101.64,-105.315,15.4,2.675704,-0.225456,-1.342,4
2024-06-14 10:00:41.114,103.07499999999999,-108.535,19.985,2.3760719999999997,-0.033184,-1.36884,4
2024-06-14 10:00:41.119,110.53,-121.13499999999999,27.965000000000003,2.655208,0.8371639999999999,-5.428024,4
