time,gyroscope_x,gyroscope_y,gyroscope_z,accelerometer_x,accelerometer_y,accelerometer_z,phase
2024-06-14 11:58:18.262,339.15,-173.10999999999999,53.97,2.2191799999999997,-2.315804,-4.250968,1
2024-06-14 11:58:18.266,374.78,-39.55,39.864999999999995,-3.0136439999999993,0.728584,3.7829759999999992,1
2024-06-14 11:58:18.271,390.91499999999996,-176.89,17.29,-1.54452,-0.16689600000000002,-0.03318399999999988,1
2024-06-14 11:58:18.276,424.025,-287.595,30.869999999999997,-1.664568,-0.464576,-1.250988,1
2024-06-14 11:58:18.283,351.26,-393.57500000000005,37.52,-1.4274,-0.608536,-1.320284,1
2024-06-14 11:58:18.288,287.77,-424.27,50.504999999999995,-0.21715999999999996,-0.904264,-1.6645679999999998,1
2024-06-14 11:58:18.293,174.825,-439.28499999999997,68.18,0.11272800000000002,-0.862784,-1.7848600000000001,1
2024-06-14 11:58:18.297,67.515,-427.56,91.175,0.67344,-0.5453399999999999,-1.8988079999999998,1
2024-06-14 11:58:18.302,-12.985,-387.275,113.225,0.88328,-0.250344,-2.083516,1
2024-06-14 11:58:18.307,-75.11,-329.875,124.14500000000001,0.8449720000000001,-0.264008,-2.248216,1
2024-06-14 11:58:18.312,-87.99000000000001,-280.245,118.50999999999999,0.48238800000000004,-0.5516840000000001,-2.1823360000000003,1
2024-06-14 11:58:18.317,-87.36,-249.41,91.91,0.14005599999999999,-0.846192,-1.943948,1
2024-06-14 11:58:18.322,-60.515,-238.28,55.685,-0.04806799999999999,-0.915,-1.739232,1
2024-06-14 11:58:18.326,-44.275000000000006,-233.87,12.775,-0.140788,-0.9408639999999999,-1.662128,1
2024-06-14 11:58:18.331,-36.155,-225.47,-25.725,-0.111508,-0.68686,-1.6201599999999998,1
2024-06-14 11:58:18.336,-35.209999999999994,-212.625,-48.3,0.03538,-0.291336,-1.530612,1
2024-06-14 11:58:18.341,-39.655,-183.155,-51.625,0.07222400000000001,0.1769,-1.856108,1
2024-06-14 11:58:18.346,-41.755,-152.32,-38.465,0.151036,0.398696,-1.7446000000000002,1
2024-06-14 11:58:18.351,-43.4,-120.68,-17.115,0.138104,0.5509519999999999,-1.690432,1
2024-06-14 11:58:18.355,-28.840000000000003,-97.685,6.265,0.182024,0.47653199999999996,-1.551108,1
2024-06-14 11:58:18.360,-17.64,-79.59,19.425,0.11516799999999999,0.257908,-1.52256,1
2024-06-14 11:58:18.365,-24.29,-33.775,18.025,0.203252,0.05538800000000001,-1.4586320000000002,1
2024-06-14 11:58:18.370,-18.27,-7.07,13.545,0.19129600000000002,0.023424,-1.3295560000000002,1
2024-06-14 11:58:18.375,-10.780000000000001,-1.645,8.785,0.14396000000000003,-0.05831599999999999,-1.228784,1
2024-06-14 11:58:18.379,-6.6850000000000005,-2.1700000000000004,4.2,0.008296,-0.054412,-1.1480199999999998,1
2024-06-14 11:58:18.384,-5.529999999999999,-2.1,2.6950000000000003,-0.089304,-0.04026,-1.064816,2
2024-06-14 11:58:18.389,-5.775,-1.995,1.75,-0.10272400000000001,0.008783999999999998,-1.044076,2
2024-06-14 11:58:18.394,-3.745,-3.43,0.98,-0.070028,0.030744,-1.050176,2
2024-06-14 11:58:18.399,-0.8049999999999999,-4.795,0.21000000000000002,-0.036844,0.0039039999999999995,-1.071892,2
2024-06-14 11:58:18.404,0.7,-6.125,-0.03499999999999999,-0.0915,0.012199999999999999,-1.0618880000000002,2
2024-06-14 11:58:18.408,1.26,-8.995,-0.07,-0.09467199999999999,0.00122,-1.049932,2
2024-06-14 11:58:18.413,1.155,-12.879999999999999,-0.5249999999999999,-0.107848,0.009516,-1.052616,2
2024-06-14 11:58:18.418,2.135,-16.38,-1.05,-0.103944,0.011467999999999999,-1.051396,2
2024-06-14 11:58:18.423,3.29,-19.425,-1.015,-0.095648,0.014884000000000001,-1.047248,2
2024-06-14 11:58:18.428,3.535,-19.53,-0.98,-0.090768,0.005611999999999999,-1.037488,2
2024-06-14 11:58:18.433,1.47,-19.32,-1.155,-0.08906,-0.0026840000000000006,-1.048468,2
2024-06-14 11:58:18.437,0.595,-20.265,-0.98,-0.090524,-0.008052,-1.053348,2
2024-06-14 11:58:18.442,-0.13999999999999999,-22.365000000000002,-0.8049999999999999,-0.09540399999999999,0.001464,-1.052616,2
2024-06-14 11:58:18.447,-0.665,-24.815,-0.8400000000000001,-0.10125999999999999,0.011712,-1.0543239999999998,2
2024-06-14 11:58:18.452,-0.13999999999999999,-27.3,-1.12,-0.094916,0.017568,-1.053104,2
2024-06-14 11:58:18.457,0.805,-29.785,-1.26,-0.08979199999999998,0.01586,-1.0411480000000002,2
2024-06-14 11:58:18.462,1.7850000000000001,-30.205,-1.47,-0.083204,0.0061,-1.034316,2
2024-06-14 11:58:18.466,1.4,-31.045,-1.26,-0.0793,-0.002196,-1.0313880000000002,2
2024-06-14 11:58:18.471,1.26,-31.535,-1.085,-0.077592,-0.005124,-1.033828,2
2024-06-14 11:58:18.476,0.63,-33.67,-0.7,-0.079056,-0.003904,-1.03578,2
2024-06-14 11:58:18.481,0.875,-35.63,-0.42000000000000004,-0.079544,0.005856,-1.0389519999999999,2
2024-06-14 11:58:18.486,1.6099999999999999,-38.010000000000005,-0.455,-0.07686000000000001,0.010003999999999999,-1.0323639999999998,2
2024-06-14 11:58:18.491,2.9749999999999996,-39.445,-0.27999999999999997,-0.07320000000000002,0.020496,-1.0287039999999998,2
2024-06-14 11:58:18.495,4.375,-39.480000000000004,-0.35,-0.069784,0.02196,-1.029192,2
2024-06-14 11:58:18.500,6.3,-38.045,-0.35,-0.065392,0.01952,-1.026996,2
2024-06-14 11:58:18.505,7.7,-37.905,-0.385,-0.055876,0.016347999999999998,-1.0213839999999998,2
2024-06-14 11:58:18.510,8.61,-36.61,-0.385,-0.053192,0.015615999999999998,-1.0213839999999998,2
2024-06-14 11:58:18.515,9.695,-36.084999999999994,-0.21,-0.051239999999999994,0.014152000000000001,-1.0189439999999998,2
2024-06-14 11:58:18.519,10.535,-35.84,-0.315,-0.04758,0.016348,-1.0226039999999998,2
2024-06-14 11:58:18.524,11.375,-34.86,-0.56,-0.044896000000000005,0.020252,-1.020896,2
2024-06-14 11:58:18.529,13.055,-34.019999999999996,-0.77,-0.047091999999999995,0.021471999999999998,-1.023336,2
2024-06-14 11:58:18.534,13.684999999999999,-33.95,-0.7,-0.04148,0.021228,-1.026996,2
2024-06-14 11:58:18.539,11.969999999999999,-27.195,-1.085,-0.036356,0.010003999999999999,-1.0291919999999999,2
2024-06-14 11:58:18.544,11.305,-26.985,-1.295,-0.029036,0.0019520000000000002,-1.020896,2
2024-06-14 11:58:18.548,10.29,-25.445,-1.33,-0.024888,-0.0026839999999999998,-1.024068,2
2024-06-14 11:58:18.553,8.995000000000001,-26.005,-1.295,-0.026108,-0.00488,-1.021384,2
2024-06-14 11:58:18.558,8.4,-24.535,-1.19,-0.02684,-0.000732,-1.029924,2
2024-06-14 11:58:18.563,6.965,-22.68,-1.33,-0.029524,-0.009028,-1.02846,2
2024-06-14 11:58:18.568,44.695,131.77499999999998,2.9050000000000002,-0.006588,-0.034892,-1.047004,2
2024-06-14 11:58:18.573,-0.315,-21.560000000000002,-2.205,-0.024399999999999998,-0.001952,-1.0482239999999998,2
2024-06-14 11:58:18.577,8.260000000000002,-48.019999999999996,-5.3549999999999995,-0.019032,-0.0026840000000000006,-1.050908,2
2024-06-14 11:58:18.582,-0.4900000000000002,-1.014999999999997,0.14000000000000057,-0.017568,-0.008539999999999999,-1.065304,2
2024-06-14 11:58:18.587,-5.18,-12.355,2.5549999999999997,-0.020984000000000003,0.0014640000000000002,-1.050176,2
2024-06-14 11:58:18.592,-2.03,-15.96,0.77,-0.02928,0.021228,-1.081164,2
2024-06-14 11:58:18.597,-7.279999999999999,46.375,-8.855,-0.027327999999999998,0.037576,-1.079456,2
2024-06-14 11:58:18.602,-17.325,-21.42,-6.58,-0.039284,0.026596,-1.108492,2
2024-06-14 11:58:18.606,-23.205,-27.79,-5.425000000000001,-0.03172,-0.028304000000000003,-1.2078,2
2024-06-14 11:58:18.611,-10.325,-36.785,-2.0650000000000004,-0.02928,-0.05856,-1.097756,2
2024-06-14 11:58:18.616,-7.805,-41.965,-5.74,-0.022448,0.029036,-1.064328,2
2024-06-14 11:58:18.621,2.0999999999999996,-49.49,-6.37,-0.011467999999999999,-0.00488,-1.0784799999999999,2
2024-06-14 11:58:18.626,-0.1399999999999999,-49.28,-3.85,-0.0031720000000000003,0.000244,-1.050176,2
2024-06-14 11:58:18.631,5.845,-50.155,-2.275,-0.0046359999999999995,0.012199999999999999,-1.0618880000000002,2
2024-06-14 11:58:18.635,5.075,-49.489999999999995,-4.025,-0.0039039999999999995,0.0007320000000000004,-1.085068,2
2024-06-14 11:58:18.640,4.585000000000001,-49.489999999999995,-5.04,0.00244,-0.00732,-1.0821399999999999,2
2024-06-14 11:58:18.645,-4.445,-44.730000000000004,-4.725,-0.0039039999999999995,0.000732,-1.1119080000000001,2
2024-06-14 11:58:18.650,-10.745000000000001,-43.715,-3.4299999999999997,0.016835999999999997,-0.019276,-1.099708,2
2024-06-14 11:58:18.655,-10.92,-44.519999999999996,-3.605,0.017568,-0.007808,-1.103368,2
2024-06-14 11:58:18.660,-12.18,-45.605000000000004,-5.109999999999999,0.017079999999999998,0.002928,-1.10532,2
2024-06-14 11:58:18.664,-12.004999999999999,-46.935,-5.11,0.01464,-0.0031719999999999995,-1.1202039999999998,2
2024-06-14 11:58:18.669,-12.215,-48.230000000000004,-4.0600000000000005,0.011224,0.009028,-1.129964,2
2024-06-14 11:58:18.674,-11.059999999999999,-50.75,-3.92,0.016592,0.012444,-1.1223999999999998,2
2024-06-14 11:58:18.679,-11.620000000000001,-52.885,-5.075,0.024399999999999998,0.024644,-1.128012,3
2024-06-14 11:58:18.684,-11.41,-55.545,-6.02,0.027572,0.024399999999999998,-1.132648,3
2024-06-14 11:58:18.688,-11.585,-58.345,-5.74,0.039527999999999994,0.026352,-1.1272799999999998,3
2024-06-14 11:58:18.693,-12.004999999999999,-60.025000000000006,-5.845000000000001,0.036356,0.03172,-1.1053199999999999,3
2024-06-14 11:58:18.698,-11.760000000000002,-62.09,-6.615,0.04514,0.026352,-1.10776,3
2024-06-14 11:58:18.703,-10.955,-64.53999999999999,-7.140000000000001,0.050019999999999995,0.018543999999999998,-1.1089799999999999,3
2024-06-14 11:58:18.708,-11.235,-67.13,-6.824999999999999,0.055632,0.005124,-1.128744,3
2024-06-14 11:58:18.713,-11.864999999999998,-69.195,-6.02,0.061,-0.005856,-1.118252,3
2024-06-14 11:58:18.717,-12.285,-71.64500000000001,-5.390000000000001,0.056608,-0.012199999999999999,-1.135576,3
2024-06-14 11:58:18.722,-13.93,-76.685,-5.005,0.054167999999999994,-0.017323999999999996,-1.191208,3
2024-06-14 11:58:18.727,-12.565,-80.535,-5.425,0.043432,0.070272,-1.22122,3
2024-06-14 11:58:18.732,-12.74,-84.945,-5.705,0.040504,0.023911999999999996,-1.2261,3
2024-06-14 11:58:18.737,-10.465,-91.805,-5.355,0.039040000000000005,0.03782,-1.2695319999999999,3
2024-06-14 11:58:18.742,-11.829999999999998,-97.405,-5.95,0.051972,0.006344,-1.26758,3
2024-06-14 11:58:18.746,-13.3,-103.11,-5.5649999999999995,0.053924,-0.029036000000000003,-1.319064,3
2024-06-14 11:58:18.751,-15.96,-110.46000000000001,-4.445,0.04636,-0.032696,-1.3595679999999999,3
2024-06-14 11:58:18.756,-17.36,-119.385,-3.255,0.041479999999999996,-0.034892,-1.4098319999999998,3
2024-06-14 11:58:18.761,-19.285,-129.535,-2.9050000000000002,0.016836,-0.011468,-1.49572,3
2024-06-14 11:58:18.766,-20.58,-142.345,-3.15,0.009028,0.020007999999999998,-1.529148,3
2024-06-14 11:58:18.771,-21.174999999999997,-155.4,-3.5700000000000003,0.004148,0.028303999999999996,-1.5615999999999999,3
2024-06-14 11:58:18.775,-21.175,-169.05,-3.85,-0.001952,0.020496,-1.6030799999999998,3
2024-06-14 11:58:18.780,-22.505000000000003,-183.155,-4.375,-0.0061,0.009028,-1.6008840000000002,3
2024-06-14 11:58:18.785,-22.54,-196.805,-4.62,-0.008052,0.016348,-1.5969799999999998,3
2024-06-14 11:58:18.790,-22.085,-210.315,-4.9,-0.014395999999999999,0.038796,-1.636264,3
2024-06-14 11:58:18.795,-21.700000000000003,-225.75,-5.95,-0.029768,0.062708,-1.658468,3
2024-06-14 11:58:18.800,-20.65,-242.34,-7.28,-0.043188,0.08637600000000001,-1.703608,3
2024-06-14 11:58:18.804,-21.21,-259.665,-9.274999999999999,-0.051483999999999995,0.048068,-1.8270719999999998,3
2024-06-14 11:58:18.809,-21.945,-278.95000000000005,-10.219999999999999,-0.08052,0.0036600000000000005,-1.9439479999999998,3
2024-06-14 11:58:18.814,-21.28,-300.72,-10.115,-0.104676,0.007564,-2.066924,3
2024-06-14 11:58:18.819,-18.375,-322.98,-10.535,-0.13541999999999998,0.109068,-2.1106,3
2024-06-14 11:58:18.824,-14.875,-346.95500000000004,-13.475,-0.164456,0.234728,-2.181604,3
2024-06-14 11:58:18.832,-11.27,-369.74,-18.130000000000003,-0.166896,0.310368,-2.325564,3
2024-06-14 11:58:18.836,-4.795,-395.5,-22.75,-0.138592,0.286944,-2.428288,3
2024-06-14 11:58:18.841,0.8399999999999999,-419.895,-25.759999999999998,-0.038796,0.197152,-2.6596,3
2024-06-14 11:58:18.846,7.07,-443.87,-25.83,0.059292,0.13907999999999998,-2.908236,3
2024-06-14 11:58:18.851,2.9749999999999996,-463.365,-26.25,0.173484,0.145424,-3.1841999999999997,3
2024-06-14 11:58:18.856,5.494999999999999,-483.7,-24.71,0.23545999999999997,0.054655999999999996,-3.4587,3
2024-06-14 11:58:18.860,5.18,-493.91999999999996,-20.335,0.336232,0.206668,-3.7136799999999996,3
2024-06-14 11:58:18.865,-1.575,-500.57,-21.525,0.5565640000000001,0.32256799999999997,-3.8046919999999997,3
2024-06-14 11:58:18.870,-6.4399999999999995,-508.06,-20.895,0.544608,0.29914399999999997,-3.783464,3
2024-06-14 11:58:18.875,-18.2,-512.75,-23.17,0.50264,0.342088,-3.705628,3
2024-06-14 11:58:18.880,-20.86,-517.755,-26.355,0.256444,0.24546400000000002,-3.774924,3
2024-06-14 11:58:18.884,-19.67,-501.795,-31.255000000000003,0.29914399999999997,0.101748,-3.96012,3
2024-06-14 11:58:18.889,-4.515000000000001,-497.56,-30.695,-0.033428,0.038796,-3.76492,3
2024-06-14 11:58:18.894,14.56,-486.08,-28.875,-0.513376,0.055632,-3.5541039999999997,3
2024-06-14 11:58:18.899,32.269999999999996,-466.40999999999997,-26.355,-1.094828,0.17812,-3.461872,3
2024-06-14 11:58:18.904,42.42,-444.95500000000004,-27.229999999999997,-1.508408,0.292312,-3.31352,4
2024-06-14 11:58:18.908,47.53,-429.24,-32.375,-1.88856,0.41260399999999997,-3.077572,4
2024-06-14 11:58:18.913,50.084999999999994,-425.39,-38.15,-2.2616359999999998,0.454572,-2.6927839999999996,4
2024-06-14 11:58:18.918,44.519999999999996,-429.20500000000004,-50.959999999999994,-2.564928,0.5131319999999999,-2.083272,4
2024-06-14 11:58:18.923,38.99,-449.47,-72.72999999999999,-2.957524,0.5760839999999999,-1.205848,4
2024-06-14 11:58:18.928,47.355,-476.49,-96.74000000000001,-1.9197919999999997,0.9472079999999999,0.8576599999999999,4
2024-06-14 11:58:18.932,49.105,-454.615,-120.36500000000001,-1.171688,0.9611160000000001,0.20813199999999998,4
2024-06-14 11:58:18.937,-7.069999999999999,-323.53999999999996,-146.615,-1.489864,0.674172,-2.4461,4
2024-06-14 11:58:18.942,-53.935,-186.26999999999998,-164.815,-1.951024,0.90646,-2.404864,4
2024-06-14 11:58:18.947,-56.629999999999995,-62.474999999999994,-162.995,-2.400716,0.308904,-1.336632,4
2024-06-14 11:58:18.952,-46.06,51.625,-145.495,-2.6151919999999995,-0.18885600000000002,-0.993568,4
2024-06-14 11:58:18.956,-22.575,145.285,-124.98499999999999,-2.466352,-0.172508,-1.223172,4
2024-06-14 11:58:18.961,11.129999999999999,209.86,-105.56,-2.0313,-0.091988,-1.321504,4
2024-06-14 11:58:18.966,41.510000000000005,248.36,-86.38,-1.6592,-0.10492000000000001,-1.2627,4
2024-06-14 11:58:18.971,64.25999999999999,269.15,-68.53,-1.507676,-0.07100400000000001,-1.149972,4
2024-06-14 11:58:18.976,81.69,278.39,-53.724999999999994,-1.46156,0.023424,-1.0033279999999998,4
2024-06-14 11:58:18.980,92.05000000000001,281.435,-42.875,-1.3964119999999998,0.12346399999999999,-0.8398479999999999,4
2024-06-14 11:58:18.985,92.68,280.735,-36.225,-1.2975919999999999,0.222772,-0.7102839999999999,4
2024-06-14 11:58:18.990,83.195,279.65,-33.32,-1.203408,0.326228,-0.6344000000000001,4
2024-06-14 11:58:18.995,65.87,278.46,-33.144999999999996,-1.118984,0.418216,-0.607316,4
2024-06-14 11:58:19.000,43.295,277.58500000000004,-34.894999999999996,-1.0492,0.46408799999999995,-0.577548,4
2024-06-14 11:58:19.004,18.095,277.9,-37.45,-0.986492,0.46994400000000003,-0.5550999999999999,4
2024-06-14 11:58:19.009,-6.44,279.405,-40.39,-0.929152,0.44578799999999996,-0.5521719999999999,4
2024-06-14 11:58:19.014,-27.580000000000002,281.925,-42.315,-0.863028,0.38405599999999995,-0.5643719999999999,4
2024-06-14 11:58:19.019,-43.19,285.28499999999997,-42.805,-0.802516,0.300608,-0.5873079999999999,4
2024-06-14 11:58:19.024,-53.13,289.275,-41.475,-0.74908,0.20861999999999997,-0.618784,4
2024-06-14 11:58:19.028,-57.47,294.07,-38.255,-0.7024760000000001,0.13176,-0.6527000000000001,4
2024-06-14 11:58:19.033,-57.19,299.495,-33.705,-0.6641679999999999,0.060268,-0.681248,4
2024-06-14 11:58:19.038,-53.515,306.145,-28.14,-0.628788,0.008784,-0.707112,4
2024-06-14 11:58:19.043,-47.705,313.985,-22.435000000000002,-0.599996,-0.017079999999999998,-0.7381,4
2024-06-14 11:58:19.048,-41.545,322.49,-17.15,-0.5758399999999999,-0.02806,-0.7905599999999999,4
2024-06-14 11:58:19.052,-36.400000000000006,331.275,-12.705,-0.54656,-0.015127999999999999,-0.842776,4
2024-06-14 11:58:19.057,-33.39,340.16499999999996,-9.59,-0.5246,0.016348,-0.8915759999999999,4
2024-06-14 11:58:19.062,-33.215,349.33500000000004,-7.944999999999999,-0.510448,0.045628,-0.936716,4
2024-06-14 11:58:19.067,-36.120000000000005,358.435,-8.085,-0.508008,0.078324,-0.98942,4
2024-06-14 11:58:19.072,-41.125,367.71,-9.31,-0.49336800000000003,0.0854,-1.03944,4
2024-06-14 11:58:19.076,-47.18,375.97,-10.71,-0.483852,0.08393600000000001,-1.0850680000000001,4
2024-06-14 11:58:19.081,-52.71,383.25,-11.795,-0.46677199999999996,0.07075999999999999,-1.134112,4
2024-06-14 11:58:19.086,-57.400000000000006,389.095,-12.565000000000001,-0.45384,0.044163999999999995,-1.192672,4
2024-06-14 11:58:19.091,-60.480000000000004,393.575,-12.95,-0.444324,0.021228,-1.251476,4
2024-06-14 11:58:19.096,-61.95,396.9,-12.635,-0.429196,-0.002684,-1.3122319999999998,4
2024-06-14 11:58:19.100,-62.055,399.595,-12.355,-0.41992399999999996,-0.025863999999999998,-1.370792,4
2024-06-14 11:58:19.105,-61.144999999999996,402.36,-11.899999999999999,-0.40503999999999996,-0.043432,-1.4454559999999999,4
2024-06-14 11:58:19.110,-58.905,405.125,-11.375,-0.398208,-0.05538799999999999,-1.522316,4
2024-06-14 11:58:19.115,-55.755,408.24,-11.025,-0.391864,-0.060024,-1.600152,4
2024-06-14 11:58:19.120,-52.64,411.845,-10.815,-0.384544,-0.063928,-1.678232,4
2024-06-14 11:58:19.124,-49.665,415.59000000000003,-10.57,-0.38308,-0.058072,-1.7602159999999998,4
2024-06-14 11:58:19.129,-47.915,419.545,-10.5,-0.387472,-0.049044000000000004,-1.852204,4
2024-06-14 11:58:19.134,-47.81,423.885,-10.535,-0.37454,-0.026352,-1.9424839999999999,4
2024-06-14 11:58:19.139,-50.365,428.12,-10.850000000000001,-0.34916400000000003,-0.013663999999999999,-2.0315440000000002,4
2024-06-14 11:58:19.144,-56.105000000000004,430.85,-11.69,-0.279136,0.0068319999999999995,-2.122068,4
2024-06-14 11:58:19.148,-65.485,430.64,-12.775,-0.202276,0.028548000000000004,-2.2460199999999997,4
2024-06-14 11:58:19.153,-77.49,425.46000000000004,-14.07,-0.094916,0.052704,-2.398764,4
2024-06-14 11:58:19.158,-90.89500000000001,414.47,-14.49,0.035136,0.049776,-2.574932,4
2024-06-14 11:58:19.163,-103.53,397.67,-13.3,0.189832,0.036599999999999994,-2.7374359999999998,4
2024-06-14 11:58:19.168,-113.19,376.145,-9.8,0.335256,0.025863999999999998,-2.9321479999999998,4
2024-06-14 11:58:19.172,-117.35499999999999,351.995,-4.585,0.455548,0.007075999999999999,-3.1719999999999997,4
2024-06-14 11:58:19.177,-114.17,329.91,2.66,0.589016,-0.061975999999999996,-3.374764,4
2024-06-14 11:58:19.182,-103.845,315.45500000000004,12.355,0.713456,-0.12395199999999999,-3.4813919999999996,4
2024-06-14 11:58:19.187,-85.995,311.15,25.165,0.8276479999999999,-0.148596,-3.5480039999999997,4
2024-06-14 11:58:19.192,-65.66,315.735,39.97,0.970388,-0.11419199999999999,-3.638528,4
2024-06-14 11:58:19.196,-50.295,327.11,54.67,1.165832,-0.024644,-3.74174,4
2024-06-14 11:58:19.201,-43.644999999999996,342.86,68.285,1.40788,0.081496,-3.78566,4
2024-06-14 11:58:19.206,-43.855000000000004,360.71000000000004,80.395,1.6467559999999999,0.177144,-3.754184,4
2024-06-14 11:58:19.211,-49.0,377.685,91.77000000000001,1.891244,0.24424399999999996,-3.6741520000000003,4
2024-06-14 11:58:19.216,-56.35,390.53,102.62,2.152324,0.31598000000000004,-3.5575200000000002,4
2024-06-14 11:58:19.220,-62.86,396.34000000000003,112.595,2.4370719999999997,0.39235200000000003,-3.407948,4
2024-06-14 11:58:19.225,-67.795,395.045,119.63,2.746952,0.500932,-3.2127480000000004,4
2024-06-14 11:58:19.230,-71.435,385.17499999999995,121.72999999999999,3.033896,0.628788,-2.9819240000000002,4
2024-06-14 11:58:19.235,-76.195,367.95500000000004,117.775,3.254472,0.729316,-2.756224,4
2024-06-14 11:58:19.240,-85.68,344.365,107.1,3.4191719999999997,0.7908040000000001,-2.53272,4
2024-06-14 11:58:19.244,-102.58500000000001,317.345,89.565,3.570696,0.7986119999999999,-2.3924199999999995,4
2024-06-14 11:58:19.249,-123.935,289.905,65.555,3.7590639999999995,0.722484,-2.285792,4
2024-06-14 11:58:19.254,-146.23000000000002,263.69,37.03,3.915224,0.543876,-2.176724,4
2024-06-14 11:58:19.259,-163.135,238.945,8.365,4.025268,0.305488,-2.06302,4
2024-06-14 11:58:19.264,-168.385,215.35500000000002,-16.939999999999998,4.19558,0.032208,-1.9632239999999999,4
2024-06-14 11:58:19.268,-164.29000000000002,192.95499999999998,-36.925,4.446168,-0.28499199999999997,-1.832928,4
2024-06-14 11:58:19.273,-155.19,169.68,-50.855,4.592568,-0.5885279999999999,-1.6714,4
2024-06-14 11:58:19.278,-139.3,142.66,-58.555,4.677968,-0.8198399999999999,-1.518656,4
2024-06-14 11:58:19.283,-116.19999999999999,110.215,-61.81,4.7375039999999995,-1.006744,-1.47254,4
2024-06-14 11:58:19.288,-82.35499999999999,70.455,-60.935,4.71042,-1.15412,-1.48352,4
2024-06-14 11:58:19.292,-36.995000000000005,25.41,-57.295,4.574756,-1.208776,-1.483032,4
2024-06-14 11:58:19.297,15.295,-20.475,-53.34,4.350764,-1.150216,-1.47254,4
2024-06-14 11:58:19.302,67.515,-63.839999999999996,-51.45,4.06138,-0.972584,-1.516216,4
2024-06-14 11:58:19.307,269.08,-184.45000000000002,12.564999999999998,2.954352,-2.9197040000000003,-9.618968,4
