time,gyroscope_x,gyroscope_y,gyroscope_z,accelerometer_x,accelerometer_y,accelerometer_z,phase
2024-06-14 11:58:19.309,335.405,-104.44000000000001,57.26,3.4306399999999995,-2.4148680000000002,-4.320508,1
2024-06-14 11:58:19.314,353.885,-130.02499999999998,2.0999999999999996,-2.944592,0.6290319999999999,4.183623999999999,1
2024-06-14 11:58:19.319,463.12,-291.445,-17.115000000000002,-1.24684,-0.406504,-1.1199599999999998,1
2024-06-14 11:58:19.324,487.935,-326.62,-3.8850000000000002,-1.658712,-0.42358399999999996,-1.561356,1
2024-06-14 11:58:19.328,430.745,-376.775,5.88,-1.663104,-0.6104879999999999,-1.100196,1
2024-06-14 11:58:19.333,350.945,-427.45500000000004,16.975,-0.255712,-0.7790919999999999,-1.89954,1
2024-06-14 11:58:19.338,218.925,-427.945,39.269999999999996,0.12858799999999998,-0.851316,-1.762168,1
2024-06-14 11:58:19.343,92.47,-401.625,77.805,0.993324,-0.5838920000000001,-2.095228,1
2024-06-14 11:58:19.348,-37.765,-354.13,118.33500000000001,1.034316,-0.411872,-2.268712,1
2024-06-14 11:58:19.352,-117.53,-304.5,142.45,0.688568,-0.425048,-2.329956,1
2024-06-14 11:58:19.357,-142.51999999999998,-270.235,135.38,0.20374,-0.715408,-2.152812,1
2024-06-14 11:58:19.362,-131.565,-251.64999999999998,101.22,-0.022448000000000003,-1.120692,-1.97884,1
2024-06-14 11:58:19.367,-103.74000000000001,-241.92000000000002,51.38,-0.026352,-1.242448,-1.9707879999999998,1
2024-06-14 11:58:19.372,-73.92,-231.49,-19.599999999999998,0.08296,-1.025044,-1.620892,1
2024-06-14 11:58:19.374,-66.43,-217.455,-38.64,0.08271599999999998,-0.860344,-1.680428,1
2024-06-14 11:58:19.376,-58.555,-196.805,-80.08,0.07905599999999999,-0.197396,-1.5586719999999998,1
2024-06-14 11:58:19.381,-53.445,-172.445,-76.825,0.009028000000000001,0.446032,-1.605032,1
2024-06-14 11:58:19.386,-50.155,-145.775,-51.205,0.055876,0.790804,-1.609424,1
2024-06-14 11:58:19.391,-48.019999999999996,-123.83,-15.785,0.07319999999999999,0.835456,-1.585024,1
2024-06-14 11:58:19.396,-43.435,-106.82,17.465,0.064172,0.6402559999999999,-1.4527759999999998,1
2024-06-14 11:58:19.401,-32.97,-94.43,38.22,0.08296,0.295972,-1.386652,1
2024-06-14 11:58:19.405,-20.475,-80.60499999999999,39.305,0.026596,-0.07076,-1.2634319999999999,1
2024-06-14 11:58:19.410,-16.695,-60.725,25.025,0.025376000000000003,-0.259372,-1.32004,1
2024-06-14 11:58:19.415,-20.72,-30.415,7.244999999999999,0.05002,-0.17470399999999997,-1.2197559999999998,1
2024-06-14 11:58:19.420,-19.6,-13.895,-1.155,0.068076,-0.013175999999999998,-1.18462,1
2024-06-14 11:58:19.425,-18.585,-3.045,1.015,0.1159,0.068076,-1.2080440000000001,2
2024-06-14 11:58:19.430,-14.524999999999999,-0.175,4.795,0.081496,0.06880800000000001,-1.19438,2
2024-06-14 11:58:19.434,-7.0,-3.605,5.495,-0.03489199999999999,0.042944,-1.120448,2
2024-06-14 11:58:19.439,-3.045,-6.125,4.13,-0.12736799999999998,-0.029524,-1.03822,2
2024-06-14 11:58:19.444,-2.7649999999999997,-4.69,1.68,-0.122,-0.037332,-1.0030839999999999,2
2024-06-14 11:58:19.449,-0.875,-4.025,0.24500000000000002,-0.075152,-0.013908,-1.0299239999999998,2
2024-06-14 11:58:19.454,0.91,-3.325,-0.28,-0.052216,0.019276,-1.0640839999999998,2
2024-06-14 11:58:19.459,2.1,-4.725,0.315,-0.07564,0.01586,-1.0716480000000002,2
2024-06-14 11:58:19.464,2.66,-7.42,1.19,-0.10638399999999999,-0.000976,-1.056276,2
2024-06-14 11:58:19.468,2.7649999999999997,-9.765,1.015,-0.106384,-0.011712,-1.053104,2
2024-06-14 11:58:19.473,2.6950000000000003,-13.02,0.49,-0.106628,-0.012931999999999999,-1.04432,2
2024-06-14 11:58:19.478,2.66,-16.625,-0.42000000000000004,-0.106384,-0.013663999999999999,-1.0470039999999998,2
2024-06-14 11:58:19.483,2.66,-19.18,-0.5599999999999999,-0.09759999999999999,-0.004392,-1.0472479999999997,2
2024-06-14 11:58:19.488,3.465,-19.46,-0.525,-0.11346,-0.0017079999999999999,-1.031632,2
2024-06-14 11:58:19.493,3.1849999999999996,-20.02,-0.735,-0.092476,-0.009271999999999999,-1.033096,2
2024-06-14 11:58:19.497,2.2399999999999998,-20.37,-1.0150000000000001,-0.097844,-0.016104,-1.0299239999999998,2
2024-06-14 11:58:19.502,1.1199999999999999,-21.14,-1.225,-0.093696,-0.018056,-1.031388,2
2024-06-14 11:58:19.507,0.0,-22.015,-1.12,-0.090524,-0.020984000000000003,-1.038708,2
2024-06-14 11:58:19.512,-1.05,-23.485,-1.0150000000000001,-0.091012,-0.016104,-1.0413919999999999,2
2024-06-14 11:58:19.517,-1.225,-24.884999999999998,-0.98,-0.09174399999999999,-0.008296000000000001,-1.041636,2
2024-06-14 11:58:19.522,-1.225,-26.005,-1.225,-0.09174399999999999,-0.011712,-1.037732,2
2024-06-14 11:58:19.527,-1.785,-18.76,-1.715,-0.08588799999999999,-0.007076,-1.03822,2
2024-06-14 11:58:19.531,-1.8199999999999998,-27.685,-1.365,-0.078568,-0.0007320000000000004,-1.031632,2
2024-06-14 11:58:19.536,-1.75,-28.7,-1.435,-0.076616,-0.003172,-1.026996,2
2024-06-14 11:58:19.541,-1.6099999999999999,-29.085,-1.295,-0.07198,-0.004148,-1.016748,2
2024-06-14 11:58:19.546,-1.54,-29.61,-1.435,-0.07295600000000001,0.001464,-1.02114,2
2024-06-14 11:58:19.551,-0.91,-30.03,-1.54,-0.069784,0.00366,-1.02358,2
2024-06-14 11:58:19.556,-0.06999999999999999,-30.835,-1.47,-0.06856399999999999,0.007319999999999999,-1.01992,2
2024-06-14 11:58:19.560,0.9450000000000001,-31.045,-1.645,-0.06612399999999999,0.010003999999999999,-1.019188,2
2024-06-14 11:58:19.565,2.1350000000000002,-31.465,-1.68,-0.060756000000000004,0.00854,-1.022116,2
2024-06-14 11:58:19.570,3.43,-30.625,-1.645,-0.060756,0.009028,-1.02114,2
2024-06-14 11:58:19.575,4.025,-29.68,-1.7149999999999999,-0.057095999999999994,0.00366,-1.0179679999999998,2
2024-06-14 11:58:19.580,4.9350000000000005,-29.4,-1.68,-0.05856,0.004148,-1.020408,2
2024-06-14 11:58:19.585,5.74,-29.645,-1.6800000000000002,-0.053924,0.003904,-1.020896,2
2024-06-14 11:58:19.590,6.37,-28.875,-1.7850000000000001,-0.045628,0.004147999999999999,-1.02358,2
2024-06-14 11:58:19.594,7.175,-28.35,-1.7850000000000001,-0.044652,-0.0009759999999999999,-1.02114,2
2024-06-14 11:58:19.599,7.84,-30.064999999999998,-1.4700000000000002,-0.042456,0.003172,-1.0250439999999998,2
2024-06-14 11:58:19.604,8.05,-28.630000000000003,-1.54,-0.048799999999999996,-0.00366,-1.0255319999999999,2
2024-06-14 11:58:19.609,8.364999999999998,-28.735,-1.715,-0.03416,-0.006588,-1.028948,2
2024-06-14 11:58:19.614,8.89,-28.56,-1.8199999999999998,-0.039284,-0.006344,-1.0226039999999998,2
2024-06-14 11:58:19.619,9.135,-28.42,-1.54,-0.039528,-0.0012199999999999997,-1.031632,2
2024-06-14 11:58:19.623,8.54,-26.32,-1.645,-0.032208,-0.010003999999999999,-1.031876,2
2024-06-14 11:58:19.628,6.965,-24.325,-1.645,-0.028791999999999998,-0.01464,-1.033828,2
2024-06-14 11:58:19.633,5.915,-24.15,-1.645,-0.02928,-0.013176,-1.035536,2
2024-06-14 11:58:19.638,5.109999999999999,-23.59,-1.505,-0.030255999999999998,-0.015616000000000001,-1.037488,2
2024-06-14 11:58:19.643,3.955,-23.415,-1.47,-0.028547999999999997,-0.015616000000000001,-1.044076,2
2024-06-14 11:58:19.648,3.3600000000000003,-23.205,-1.715,-0.027327999999999998,-0.012444,-1.042612,2
2024-06-14 11:58:19.653,3.045,-23.310000000000002,-1.9249999999999998,-0.017812,-0.005124,-1.046028,2
2024-06-14 11:58:19.657,-32.059999999999995,-72.625,-4.62,-0.032451999999999995,0.000732,-1.0216279999999998,2
2024-06-14 11:58:19.662,5.95,-23.380000000000003,-0.665,-0.018788,-0.004148000000000001,-1.0431,2
2024-06-14 11:58:19.667,-4.83,-8.540000000000001,-1.7150000000000003,-0.042212,0.021228,-1.048956,2
2024-06-14 11:58:19.672,1.0499999999999998,-25.305,-5.705,-0.022447999999999996,0.012688,-1.047492,2
2024-06-14 11:58:19.677,-2.59,-22.855000000000004,-3.745,-0.020008,0.020984,-1.0640839999999998,2
2024-06-14 11:58:19.682,-3.1500000000000004,-22.89,-0.9099999999999997,-0.020007999999999998,0.02562,-1.050908,2
2024-06-14 11:58:19.686,-4.83,-24.29,-4.165,-0.0305,0.06490399999999999,-1.1028799999999999,2
2024-06-14 11:58:19.691,-3.3250000000000006,39.025,-13.895,-0.035868,0.025619999999999997,-1.0948280000000001,2
2024-06-14 11:58:19.696,-19.39,-32.515,-10.745,-0.03294,-0.078324,-1.175592,2
2024-06-14 11:58:19.701,-11.620000000000001,-41.650000000000006,-4.55,-0.023912000000000003,-0.048312,-1.140212,2
2024-06-14 11:58:19.706,-7.3149999999999995,-45.709999999999994,-5.215,-0.019275999999999998,0.007076,-1.0809199999999999,2
2024-06-14 11:58:19.711,1.365,-55.86,-7.63,-0.008784,-0.028548,-1.0450519999999999,2
2024-06-14 11:58:19.716,0.56,-55.754999999999995,-7.7700000000000005,-0.001707999999999999,-0.0017079999999999999,-1.124352,2
2024-06-14 11:58:19.720,6.335,-59.885,-5.109999999999999,0.007076000000000001,-0.023912,-1.111664,2
2024-06-14 11:58:19.725,8.015,-60.655,-3.675,0.003172,-0.0305,-1.138748,2
2024-06-14 11:58:19.730,7.699999999999999,-61.88,-5.005,0.0014640000000000002,-0.020007999999999998,-1.1809599999999998,2
2024-06-14 11:58:19.735,-8.365,-56.595,-6.93,-0.007564000000000001,-0.017811999999999998,-1.2063359999999999,3
2024-06-14 11:58:19.740,-11.34,-58.625,-5.285,0.02074,-0.023912,-1.1638799999999998,3
2024-06-14 11:58:19.745,-12.705,-60.620000000000005,-4.55,0.021228,-0.0061,-1.171932,3
2024-06-14 11:58:19.749,-13.440000000000001,-61.53,-5.6,0.02562,-0.019276,-1.1836440000000001,3
2024-06-14 11:58:19.754,-12.635,-63.7,-6.23,0.021228,-0.0029280000000000005,-1.216096,3
2024-06-14 11:58:19.759,-11.9,-66.465,-5.915,0.01342,0.013663999999999999,-1.2263439999999999,3
2024-06-14 11:58:19.764,-12.74,-72.45,-5.53,0.01098,0.02684,-1.25904,3
2024-06-14 11:58:19.769,-13.370000000000001,-78.435,-5.984999999999999,0.015127999999999999,0.005612000000000001,-1.2395200000000002,3
2024-06-14 11:58:19.774,-13.02,-83.545,-6.335000000000001,0.017324,0.000488,-1.224148,3
2024-06-14 11:58:19.779,-13.93,-89.005,-6.475,0.0031719999999999986,-0.027327999999999998,-1.266116,3
2024-06-14 11:58:19.783,-16.835,-96.91499999999999,-5.145,0.028791999999999998,-0.071492,-1.3439519999999998,3
2024-06-14 11:58:19.788,-17.395,-102.55000000000001,-3.4299999999999997,0.010248,-0.04148,-1.347368,3
2024-06-14 11:58:19.793,-20.125,-109.2,-3.0450000000000004,0.0122,-0.038307999999999995,-1.3815279999999999,3
2024-06-14 11:58:19.798,-20.335,-116.9,-3.08,0.0034159999999999998,0.0009759999999999994,-1.404464,3
2024-06-14 11:58:19.803,-21.490000000000002,-126.735,-3.01,0.00122,0.011712,-1.3888479999999999,3
2024-06-14 11:58:19.808,-21.175,-137.79500000000002,-3.4299999999999997,-0.008539999999999999,0.052216,-1.4769319999999997,3
2024-06-14 11:58:19.812,-21.595,-149.24,-4.27,-0.015372,0.016348,-1.5472039999999998,3
2024-06-14 11:58:19.817,-19.075,-162.925,-4.585,-0.034159999999999996,0.013908,-1.5679439999999998,3
2024-06-14 11:58:19.822,-18.2,-176.95999999999998,-5.109999999999999,-0.040015999999999996,0.037576,-1.5896599999999999,3
2024-06-14 11:58:19.827,-17.535,-191.485,-5.984999999999999,-0.045384,0.041968000000000005,-1.63236,3
2024-06-14 11:58:19.832,-15.61,-206.39499999999998,-7.0,-0.065636,0.06612399999999999,-1.665788,3
2024-06-14 11:58:19.837,-13.440000000000001,-223.23,-8.190000000000001,-0.082228,0.035379999999999995,-1.775588,3
2024-06-14 11:58:19.842,-13.195,-240.8,-9.065000000000001,-0.08491199999999999,0.003416,-1.829756,3
2024-06-14 11:58:19.846,-12.985,-261.485,-9.030000000000001,-0.101992,-0.020496,-1.987868,3
2024-06-14 11:58:19.851,-9.24,-283.185,-8.785,-0.15005999999999997,0.055875999999999995,-2.042524,3
2024-06-14 11:58:19.856,-5.215,-306.11,-10.885,-0.199104,0.202032,-2.101572,3
2024-06-14 11:58:19.861,-0.665,-329.63,-16.310000000000002,-0.23912,0.31646799999999997,-2.130364,3
2024-06-14 11:58:19.866,9.52,-354.76,-22.119999999999997,-0.280844,0.37454,-2.171844,3
2024-06-14 11:58:19.871,17.115000000000002,-380.345,-28.490000000000002,-0.29768,0.42822000000000005,-2.310192,3
2024-06-14 11:58:19.875,22.47,-406.63,-35.315,-0.280112,0.36234,-2.42658,3
2024-06-14 11:58:19.880,26.634999999999998,-433.685,-39.06,-0.22643199999999997,0.213256,-2.66692,3
2024-06-14 11:58:19.885,33.005,-460.25,-39.864999999999995,-0.1159,0.086132,-2.936052,3
2024-06-14 11:58:19.890,42.105000000000004,-485.065,-37.065,-0.021715999999999992,0.056852,-3.225436,3
2024-06-14 11:58:19.895,50.4,-503.72,-34.3,0.133224,0.19080799999999998,-3.4604079999999997,3
2024-06-14 11:58:19.900,57.925,-516.5999999999999,-33.635,0.379908,0.22838399999999998,-3.493592,3
2024-06-14 11:58:19.905,50.925,-515.095,-31.045,0.5809639999999999,0.38966799999999996,-3.889604,3
2024-06-14 11:58:19.909,35.525,-516.74,-31.5,0.671488,0.49019599999999997,-3.727588,3
2024-06-14 11:58:19.914,24.814999999999998,-522.2,-35.91,0.510448,0.420168,-3.545564,3
2024-06-14 11:58:19.919,25.445,-515.445,-40.285,0.27693999999999996,0.3416,-3.85764,3
2024-06-14 11:58:19.926,28.805,-496.51,-43.89,0.19032000000000002,0.30231600000000003,-3.799568,3
2024-06-14 11:58:19.931,42.21,-487.305,-46.06,-0.255224,0.26474,-3.512136,3
2024-06-14 11:58:19.936,60.41,-469.28,-43.96,-0.664168,0.311588,-3.4130719999999997,3
2024-06-14 11:58:19.940,68.67,-453.145,-45.71,-1.3185759999999997,0.45798799999999995,-3.2586199999999996,3
2024-06-14 11:58:19.945,72.625,-434.14,-49.63,-1.643584,0.56608,-3.109048,3
2024-06-14 11:58:19.950,72.38,-422.275,-57.855000000000004,-2.0400840000000002,0.7105279999999999,-2.773304,3
2024-06-14 11:58:19.955,68.985,-415.905,-68.53,-2.470744,0.762256,-2.140124,3
2024-06-14 11:58:19.960,73.325,-422.31,-84.77000000000001,-2.8013639999999995,0.7259,-1.288564,3
2024-06-14 11:58:19.965,75.67,-430.71000000000004,-106.96000000000001,-2.7898959999999997,0.8361879999999999,-0.14639999999999997,4
2024-06-14 11:58:19.969,84.97999999999999,-442.82000000000005,-130.27,-1.780468,1.1070280000000001,0.807396,4
2024-06-14 11:58:19.974,36.925,-398.475,-153.79000000000002,-1.2614800000000002,0.9359839999999999,-1.2993000000000001,4
2024-06-14 11:58:19.979,-40.775,-264.425,-175.98,-1.404952,1.136308,-2.7694,4
2024-06-14 11:58:19.984,-80.325,-140.665,-188.51,-2.107672,0.900116,-2.0803439999999997,4
2024-06-14 11:58:19.989,-89.88,-22.575,-181.93,-2.6652120000000004,0.157624,-1.127036,4
2024-06-14 11:58:19.994,-84.56,87.85,-159.46,-2.714012,-0.182512,-0.9611160000000001,4
2024-06-14 11:58:19.998,-53.760000000000005,172.41,-128.975,-2.31068,-0.16299200000000003,-1.254648,4
2024-06-14 11:58:20.003,-13.09,224.63,-96.03999999999999,-1.810236,-0.165188,-1.3317519999999998,4
2024-06-14 11:58:20.008,21.525,252.7,-63.14,-1.566236,-0.16665200000000002,-1.223172,4
2024-06-14 11:58:20.013,46.97,265.3,-33.705,-1.52134,-0.07710399999999999,-1.05164,4
2024-06-14 11:58:20.018,63.91,269.255,-10.64,-1.4762,0.0854,-0.8769359999999999,4
2024-06-14 11:58:20.022,69.755,269.325,5.67,-1.376404,0.24985600000000002,-0.7485919999999999,4
2024-06-14 11:58:20.027,63.385000000000005,268.345,15.75,-1.256356,0.392108,-0.6719759999999999,4
2024-06-14 11:58:20.032,46.55,267.71500000000003,20.509999999999998,-1.1760800000000002,0.51606,-0.658312,4
2024-06-14 11:58:20.037,21.77,268.275,20.895,-1.1058080000000001,0.5812080000000001,-0.606096,4
2024-06-14 11:58:20.042,-5.705,270.27,18.375,-1.047492,0.59658,-0.571448,4
2024-06-14 11:58:20.047,-32.655,273.94500000000005,14.875,-0.9928359999999999,0.555588,-0.570716,4
2024-06-14 11:58:20.051,-55.685,278.425,11.55,-0.9359839999999999,0.47482399999999997,-0.587796,4
2024-06-14 11:58:20.056,-72.065,283.91999999999996,9.52,-0.8618079999999999,0.367464,-0.606096,4
2024-06-14 11:58:20.061,-81.27,289.485,9.24,-0.804712,0.257664,-0.6378159999999999,4
2024-06-14 11:58:20.066,-83.755,295.61,10.605,-0.750788,0.15982000000000002,-0.65758,4
2024-06-14 11:58:20.071,-80.57,301.175,13.265,-0.71858,0.080764,-0.6902759999999999,4
2024-06-14 11:58:20.076,-73.815,307.09000000000003,16.52,-0.676124,0.024888,-0.72346,4
2024-06-14 11:58:20.080,-65.275,313.28499999999997,19.81,-0.6390359999999999,-0.005612,-0.7656719999999999,4
2024-06-14 11:58:20.085,-56.595,320.04,22.33,-0.601704,-0.013176,-0.806908,4
2024-06-14 11:58:20.090,-49.28,327.635,23.485,-0.579256,-0.0014639999999999996,-0.8459479999999999,4
2024-06-14 11:58:20.095,-44.695,335.15999999999997,22.924999999999997,-0.5533919999999999,0.027572,-0.89426,4
2024-06-14 11:58:20.100,-43.295,343.0,20.439999999999998,-0.538508,0.058803999999999995,-0.947452,4
2024-06-14 11:58:20.105,-44.625,350.735,16.555,-0.5285040000000001,0.08003199999999999,-0.989908,4
2024-06-14 11:58:20.109,-48.09,358.78499999999997,11.83,-0.515816,0.090036,-1.0304119999999999,4
2024-06-14 11:58:20.114,-52.92,366.765,6.859999999999999,-0.506056,0.088328,-1.0753080000000002,4
2024-06-14 11:58:20.119,-58.065,374.605,1.925,-0.502396,0.06588,-1.131428,4
2024-06-14 11:58:20.124,-62.370000000000005,381.67499999999995,-2.3449999999999998,-0.487756,0.038308,-1.190232,4
2024-06-14 11:58:20.129,-65.38,387.695,-5.74,-0.47238399999999997,0.002196,-1.24562,4
2024-06-14 11:58:20.134,-66.99000000000001,392.525,-8.225,-0.454816,-0.028304000000000003,-1.3073519999999998,4
2024-06-14 11:58:20.138,-67.235,395.955,-9.8,-0.44408,-0.05124,-1.386896,4
2024-06-14 11:58:20.143,-66.115,398.3,-10.815000000000001,-0.432368,-0.06758800000000001,-1.452532,4
2024-06-14 11:58:20.148,-64.295,400.505,-11.515,-0.423096,-0.088816,-1.524024,4
2024-06-14 11:58:20.153,-61.845,402.67499999999995,-12.075,-0.408212,-0.093696,-1.60308,4
2024-06-14 11:58:20.158,-58.94,405.33500000000004,-12.67,-0.396988,-0.10003999999999999,-1.6882359999999998,4
2024-06-14 11:58:20.162,-56.315,407.995,-13.125,-0.38308,-0.101992,-1.77388,4
2024-06-14 11:58:20.167,-53.97,411.39,-13.370000000000001,-0.37307599999999996,-0.098332,-1.862696,4
2024-06-14 11:58:20.172,-53.235,414.715,-13.37,-0.3477,-0.09540399999999999,-1.9317479999999998,4
2024-06-14 11:58:20.177,-55.650000000000006,417.58500000000004,-13.405000000000001,-0.294508,-0.08735200000000001,-2.0073879999999997,4
2024-06-14 11:58:20.182,-61.565,417.935,-13.895,-0.22277199999999997,-0.065148,-2.119872,4
2024-06-14 11:58:20.187,-70.385,414.08500000000004,-14.245000000000001,-0.13785999999999998,-0.032452,-2.267492,4
2024-06-14 11:58:20.191,-80.955,404.88,-14.455,-0.040992,-0.010979999999999998,-2.43146,4
2024-06-14 11:58:20.196,-92.155,390.985,-14.175,0.08759600000000001,-0.011956000000000001,-2.5927439999999997,4
2024-06-14 11:58:20.201,-102.27,372.26,-12.95,0.22521199999999997,-0.0019520000000000002,-2.7579320000000003,4
2024-06-14 11:58:20.206,-108.185,350.105,-10.22,0.34648,0.010492,-2.950692,4
2024-06-14 11:58:20.211,-108.11500000000001,327.145,-6.404999999999999,0.43846799999999997,-0.026108,-3.1671199999999997,4
2024-06-14 11:58:20.216,-102.515,309.05,-0.5250000000000001,0.555832,-0.08027599999999999,-3.3159599999999996,4
2024-06-14 11:58:20.220,-89.67,298.83000000000004,8.61,0.7000359999999999,-0.097356,-3.34036,4
2024-06-14 11:58:20.225,-72.275,295.12,20.405,0.84302,-0.061,-3.4069719999999997,4
2024-06-14 11:58:20.230,-56.595,293.44,34.44,1.04432,0.010492000000000001,-3.53678,4
2024-06-14 11:58:20.235,-50.085,294.56,49.455,1.31638,0.12004800000000002,-3.5772839999999997,4
2024-06-14 11:58:20.240,-53.269999999999996,298.515,63.735,1.5669680000000001,0.23911999999999997,-3.555568,4
2024-06-14 11:58:20.245,-63.07,306.985,76.195,1.806088,0.340136,-3.5411719999999995,4
2024-06-14 11:58:20.249,-72.73,319.655,87.57,2.03252,0.391864,-3.4460119999999996,4
2024-06-14 11:58:20.254,-79.72999999999999,334.25,98.42,2.250656,0.44090799999999997,-3.364028,4
2024-06-14 11:58:20.259,-82.91499999999999,348.25,107.345,2.4712319999999997,0.518988,-3.2122599999999997,4
2024-06-14 11:58:20.264,-85.57499999999999,359.45,112.0,2.6859519999999995,0.596336,-3.01462,4
2024-06-14 11:58:20.269,-92.61,365.225,111.78999999999999,2.8813959999999996,0.660508,-2.812344,4
2024-06-14 11:58:20.274,-106.715,363.02,106.88999999999999,3.062444,0.677832,-2.625196,4
2024-06-14 11:58:20.278,-127.225,351.96000000000004,98.56,3.203964,0.615124,-2.461228,4
2024-06-14 11:58:20.283,-149.555,334.075,87.32499999999999,3.392576,0.541436,-2.253828,4
2024-06-14 11:58:20.288,-165.26999999999998,309.26,73.60499999999999,3.548004,0.397964,-2.226988,4
2024-06-14 11:58:20.293,-178.99,283.91999999999996,56.629999999999995,3.713924,0.226432,-2.1289,4
2024-06-14 11:58:20.298,-184.415,257.985,39.06,3.8622759999999996,0.040504000000000005,-2.041548,4
2024-06-14 11:58:20.303,-177.065,231.45499999999998,23.52,4.047472,-0.138592,-1.94346,4
2024-06-14 11:58:20.307,-161.14,205.97500000000002,10.15,4.27488,-0.3111,-1.824388,4
2024-06-14 11:58:20.312,-142.555,180.04000000000002,-1.3650000000000002,4.433968,-0.449692,-1.6557840000000001,4
2024-06-14 11:58:20.317,-124.07499999999999,151.76,-11.795,4.513756,-0.5441199999999999,-1.50548,4
2024-06-14 11:58:20.322,-107.625,119.56,-21.595,4.557919999999999,-0.6429400000000001,-1.4508240000000001,4
2024-06-14 11:58:20.327,-88.725,81.62,-29.155,4.537668,-0.73688,-1.454972,4
2024-06-14 11:58:20.331,-64.015,39.235,-33.53,4.419815999999999,-0.819596,-1.4427719999999997,4
2024-06-14 11:58:20.336,-32.62,-4.725,-35.56,4.220956,-0.86498,-1.411052,4
2024-06-14 11:58:20.341,3.1500000000000004,-47.635000000000005,-36.155,3.9647559999999995,-0.84058,-1.4259359999999999,4
2024-06-14 11:58:20.346,74.06,115.78,10.815000000000001,2.9240959999999996,-3.1915199999999997,-3.647556,4
2024-06-14 11:58:20.351,426.02,-161.42000000000002,148.085,3.724172,-2.3973000000000004,-2.041304,0
