time,gyroscope_x,gyroscope_y,gyroscope_z,accelerometer_x,accelerometer_y,accelerometer_z,phase
2024-06-14 09:14:31.477,29.75,-178.71,41.825,-5.378004,0.653188,6.532368,1
2024-06-14 09:14:31.482,55.44,-230.3,35.595,-4.388828,1.3378519999999998,0.8615639999999999,1
2024-06-14 09:14:31.487,115.60499999999999,-316.155,28.21,-0.58682,0.287676,-1.341756,1
2024-06-14 09:14:31.492,137.025,-327.075,37.94,1.179008,0.263276,-0.5909679999999999,1
2024-06-14 09:14:31.496,119.63,-352.59000000000003,48.3,1.9073479999999998,0.022204,-1.384456,1
2024-06-14 09:14:31.501,64.295,-344.855,74.305,0.597068,-0.07002799999999999,-1.5750199999999999,1
2024-06-14 09:14:31.506,-10.57,-326.62,101.85,-0.279868,0.197396,-1.6467559999999999,1
2024-06-14 09:14:31.511,-31.15,-309.68,117.81,-0.317444,0.114192,-1.8622079999999999,1
2024-06-14 09:14:31.516,-24.115,-288.995,108.85,0.12126799999999999,-0.19910399999999998,-1.840248,1
2024-06-14 09:14:31.521,23.765,-277.9,82.42500000000001,0.29353199999999996,-0.532164,-1.817068,1
2024-06-14 09:14:31.525,34.65,-266.315,50.715,0.12102399999999999,-0.804224,-1.82878,1
2024-06-14 09:14:31.530,31.71,-252.63,23.555,-0.0854,-0.804468,-1.787788,1
2024-06-14 09:14:31.535,22.75,-230.51,-4.165,-0.066368,-0.715652,-1.8927079999999998,1
2024-06-14 09:14:31.540,22.33,-203.7,-30.310000000000002,0.09662399999999999,-0.4021119999999999,-1.997872,1
2024-06-14 09:14:31.545,18.165,-170.695,-42.875,0.167872,0.01366400000000001,-1.810724,1
2024-06-14 09:14:31.549,12.32,-144.82999999999998,-35.629999999999995,0.154696,0.31354,-1.729716,1
2024-06-14 09:14:31.554,7.525,-118.65,-17.5,0.13419999999999999,0.370636,-1.545008,1
2024-06-14 09:14:31.559,6.335,-100.765,-0.7,0.150792,0.337696,-1.510116,2
2024-06-14 09:14:31.564,12.530000000000001,-81.27,8.89,0.094184,0.19080799999999998,-1.4071479999999998,2
2024-06-14 09:14:31.569,16.38,-58.625,8.505,0.081008,-0.010003999999999999,-1.301496,2
2024-06-14 09:14:31.574,18.549999999999997,-42.0,1.575,0.046116,-0.069784,-1.156316,2
2024-06-14 09:14:31.578,17.675,-32.445,-4.865,-0.005367999999999999,-0.046604,-1.130696,2
2024-06-14 09:14:31.583,15.190000000000001,-24.009999999999998,-5.8100000000000005,0.002927999999999999,0.036844,-1.064816,2
2024-06-14 09:14:31.588,15.19,-20.685000000000002,-2.45,0.0061,0.079056,-1.034316,2
2024-06-14 09:14:31.593,16.17,-18.305,-0.245,-0.025864,0.060268,-1.0084520000000001,2
2024-06-14 09:14:31.598,17.57,-16.765,-0.31500000000000006,-0.07075999999999999,0.03440399999999999,-1.0108920000000001,2
2024-06-14 09:14:31.602,17.64,-16.765,-1.435,-0.060511999999999996,0.019520000000000003,-1.0348039999999998,2
2024-06-14 09:14:31.607,17.22,-17.045,-1.75,-0.01342,0.006588,-1.06994,2
2024-06-14 09:14:31.612,15.995,-18.27,-0.77,-0.031476,0.02196,-1.073356,2
2024-06-14 09:14:31.617,15.33,-19.005000000000003,-0.49,-0.060023999999999994,0.023912,-1.057496,2
2024-06-14 09:14:31.622,15.399999999999999,-19.285,-0.98,-0.077104,0.032208,-1.0399279999999997,2
2024-06-14 09:14:31.627,15.504999999999999,-19.740000000000002,-1.7149999999999999,-0.070272,0.028547999999999997,-1.04066,2
2024-06-14 09:14:31.631,15.015,-19.39,-2.1,-0.053436,0.009515999999999998,-1.044808,2
2024-06-14 09:14:31.636,13.09,-19.075,-2.0300000000000002,-0.051727999999999996,-0.014152,-1.050664,2
2024-06-14 09:14:31.641,10.5,-19.39,-2.0300000000000002,-0.060268,-0.015371999999999999,-1.06018,2
2024-06-14 09:14:31.646,7.945,-20.825,-2.0999999999999996,-0.07222400000000001,0.00024400000000000008,-1.056032,2
2024-06-14 09:14:31.651,6.404999999999999,-22.259999999999998,-1.925,-0.079056,0.0046359999999999995,-1.0472479999999997,2
2024-06-14 09:14:31.655,5.04,-23.450000000000003,-2.03,-0.07222400000000001,-0.001464,-1.043344,2
2024-06-14 09:14:31.660,3.675,-24.255,-2.275,-0.077836,-0.004392,-1.049932,2
2024-06-14 09:14:31.665,2.065,-25.305,-2.6950000000000003,-0.06026799999999999,0.0014640000000000002,-1.045052,2
2024-06-14 09:14:31.670,1.155,-26.005000000000003,-2.7649999999999997,-0.08588799999999999,0.007808,-1.0470039999999998,2
2024-06-14 09:14:31.675,0.27999999999999997,-27.3,-3.045,-0.067832,0.017324000000000003,-1.048224,2
2024-06-14 09:14:31.680,-0.28,-28.665,-3.29,-0.065392,0.009028,-1.036512,2
2024-06-14 09:14:31.684,-0.875,-29.54,-3.465,-0.061731999999999995,0.011956,-1.02724,2
2024-06-14 09:14:31.689,-1.575,-29.855,-3.5700000000000003,-0.053436,0.00122,-1.02236,2
2024-06-14 09:14:31.694,-2.3449999999999998,-30.415,-3.465,-0.07783599999999999,0.004392,-1.037488,2
2024-06-14 09:14:31.699,-2.94,-30.345,-3.29,-0.06368399999999999,0.004392,-1.0409039999999998,2
2024-06-14 09:14:31.704,-3.4299999999999997,-31.64,-3.5,-0.072712,0.017812,-1.03822,2
2024-06-14 09:14:31.708,-3.15,-31.08,-3.465,-0.013908000000000004,0.01952,-0.999668,2
2024-06-14 09:14:31.713,-2.835,-31.5,-3.395,-0.05246,0.007807999999999999,-1.014064,2
2024-06-14 09:14:31.718,-3.92,-33.39,-3.465,0.010736,0.015127999999999999,-0.97234,2
2024-06-14 09:14:31.723,-3.885,-34.09,-3.29,-0.045627999999999995,0.020007999999999998,-0.989664,2
2024-06-14 09:14:31.728,-3.43,-31.009999999999998,-3.535,-0.048556,0.0183,-1.001376,2
2024-06-14 09:14:31.733,0.5599999999999999,-31.045,-3.675,0.0,0.030012,-0.9730719999999999,2
2024-06-14 09:14:31.737,-0.5250000000000001,-30.765,-3.71,-0.101504,0.023667999999999998,-1.05042,2
2024-06-14 09:14:31.742,1.26,-31.115,-3.535,-0.023424,0.02684,-1.0165039999999999,2
2024-06-14 09:14:31.747,2.17,-30.905,-3.71,-0.051972,0.03294,-1.006988,2
2024-06-14 09:14:31.752,2.73,-31.22,-4.095,-0.016104,0.020007999999999998,-1.0074759999999998,2
2024-06-14 09:14:31.757,4.2,-31.045,-4.06,0.0017080000000000012,0.008784,-0.9908839999999999,2
2024-06-14 09:14:31.761,3.92,-29.47,-3.92,0.0039039999999999977,0.0053679999999999995,-0.99308,2
2024-06-14 09:14:31.766,4.62,-29.155,-3.5700000000000003,0.0017079999999999977,0.006343999999999999,-0.9925919999999999,2
2024-06-14 09:14:31.771,3.4299999999999997,-29.015,-3.71,-0.006344000000000002,-0.0004880000000000006,-1.003328,2
2024-06-14 09:14:31.776,4.234999999999999,-26.915,-3.605,0.0036599999999999983,0.0036599999999999996,-0.998936,2
2024-06-14 09:14:31.781,3.5700000000000003,-26.11,-3.255,-0.022204,0.010736,-1.007476,2
2024-06-14 09:14:31.786,3.5,-24.955,-3.08,-0.0061,0.003416,-1.002352,2
2024-06-14 09:14:31.790,3.08,-24.57,-3.08,-0.0002440000000000003,0.004148000000000001,-1.00284,2
2024-06-14 09:14:31.795,3.6399999999999997,-22.575,-2.94,-0.002928,0.002196,-1.0079639999999999,2
2024-06-14 09:14:31.800,4.6899999999999995,-21.595,-2.59,-0.005855999999999999,0.011712,-1.01016,2
2024-06-14 09:14:31.805,4.48,-21.21,-2.555,-0.0014639999999999998,0.014395999999999999,-1.0152839999999999,2
2024-06-14 09:14:31.810,4.515000000000001,-21.315,-2.66,-0.0026839999999999998,0.022692,-1.013332,2
2024-06-14 09:14:31.815,4.34,-21.21,-3.045,0.006344,0.015616000000000001,-1.0152839999999999,2
2024-06-14 09:14:31.819,4.655,-21.384999999999998,-3.185,0.001952,0.00976,-1.014552,2
2024-06-14 09:14:31.824,4.76,-21.035,-2.9749999999999996,0.0060999999999999995,0.003904,-1.0177239999999999,2
2024-06-14 09:14:31.829,4.445,-21.35,-2.975,0.005856,0.010491999999999998,-1.0226039999999998,2
2024-06-14 09:14:31.834,4.585,-21.384999999999998,-3.045,0.003172,0.014395999999999999,-1.020896,2
2024-06-14 09:14:31.839,4.6899999999999995,-21.28,-3.2199999999999998,0.008296,0.012199999999999999,-1.0226039999999998,2
2024-06-14 09:14:31.843,5.04,-19.425,-3.15,0.009028,0.011467999999999999,-1.024556,2
2024-06-14 09:14:31.848,5.46,-20.369999999999997,-3.045,0.00976,0.009272,-1.025776,2
2024-06-14 09:14:31.853,4.865,-20.79,-2.9400000000000004,0.01098,0.001464,-1.029192,2
2024-06-14 09:14:31.858,3.255,-23.38,-2.9050000000000002,0.01586,-0.002196,-1.0262639999999998,2
2024-06-14 09:14:31.863,-1.3300000000000003,-61.53,-2.4850000000000003,0.019764000000000004,0.00244,-1.02724,2
2024-06-14 09:14:31.868,0.175,-23.765,-3.01,0.016835999999999997,0.010248,-1.037488,2
2024-06-14 09:14:31.872,4.76,-25.34,-2.03,0.023668,0.013419999999999998,-1.0335839999999998,2
2024-06-14 09:14:31.877,-0.06999999999999999,-28.805,-2.66,0.016836,0.00976,-1.032608,2
2024-06-14 09:14:31.882,-2.0300000000000002,-30.17,-3.395,0.01586,0.010248,-1.05164,2
2024-06-14 09:14:31.887,-1.9249999999999998,-30.625,-3.605,0.017079999999999998,0.00732,-1.051396,2
2024-06-14 09:14:31.892,1.505,-31.605,-2.94,0.03172,0.011956,-1.072136,2
2024-06-14 09:14:31.896,6.055,-33.144999999999996,-2.3449999999999998,0.028547999999999997,0.011955999999999998,-1.064328,2
2024-06-14 09:14:31.901,6.51,-34.72,-2.73,0.027816,0.001708,-1.0714039999999998,2
2024-06-14 09:14:31.906,8.575,-36.575,-3.325,0.02684,0.01098,-1.090436,2
2024-06-14 09:14:31.911,8.855,-37.065,-2.9400000000000004,0.024644,-0.005124,-1.148996,2
2024-06-14 09:14:31.916,8.75,-36.995,-2.625,0.025376,-0.002196,-1.123132,2
2024-06-14 09:14:31.921,-2.94,-42.455,-3.465,0.027084,-0.008051999999999998,-1.1528999999999998,2
2024-06-14 09:14:31.925,-8.785,-44.835,-3.92,0.038308,-0.00024399999999999986,-1.1358199999999998,2
2024-06-14 09:14:31.930,-10.675,-43.995000000000005,-3.7800000000000002,0.044652,-0.012444,-1.1297199999999998,2
2024-06-14 09:14:31.935,-12.74,-45.64,-3.5349999999999997,0.04392,-0.004392,-1.1350879999999999,2
2024-06-14 09:14:31.940,-15.33,-49.07,-3.395,0.05611999999999999,-0.018788,-1.137284,2
2024-06-14 09:14:31.945,-16.8,-51.975,-3.1500000000000004,0.051727999999999996,-0.024644,-1.150948,2
2024-06-14 09:14:31.949,-18.655,-55.79,-2.9749999999999996,0.04758,-0.019276,-1.147532,2
2024-06-14 09:14:31.954,-20.195,-59.709999999999994,-2.59,0.053436,-0.0068319999999999995,-1.155584,2
2024-06-14 09:14:31.959,-21.595,-64.19,-2.275,0.052947999999999995,-0.017324,-1.1770559999999999,2
2024-06-14 09:14:31.964,-23.380000000000003,-69.72,-1.9250000000000003,0.053436,-0.01708,-1.18828,2
2024-06-14 09:14:31.969,-25.515,-75.18,-1.7149999999999999,0.054900000000000004,-0.013419999999999998,-1.217072,2
2024-06-14 09:14:31.974,-28.175,-82.39,-1.26,0.057095999999999994,-0.027083999999999997,-1.2514759999999998,2
2024-06-14 09:14:31.978,-30.345,-88.69,-0.42000000000000004,0.05734,-0.057339999999999995,-1.295396,2
2024-06-14 09:14:31.983,-33.04,-95.515,0.735,0.05856,-0.0305,-1.3158919999999998,2
2024-06-14 09:14:31.988,-36.47,-104.16,0.28,0.05856,0.021471999999999998,-1.349808,2
2024-06-14 09:14:31.993,-38.64,-112.455,-0.385,0.057095999999999994,0.018056000000000003,-1.3664,2
2024-06-14 09:14:31.998,-39.515,-119.245,-0.77,0.056608,0.031476,-1.3827479999999999,2
2024-06-14 09:14:32.002,-40.285,-127.89,-1.645,0.066612,0.053192,-1.39446,2
2024-06-14 09:14:32.007,-39.55,-135.27499999999998,-2.555,0.06466,0.064904,-1.414712,2
2024-06-14 09:14:32.012,-38.114999999999995,-142.975,-4.095,0.049776,0.13639600000000002,-1.4339879999999998,2
2024-06-14 09:14:32.017,-36.120000000000005,-151.095,-6.859999999999999,0.051972,0.170312,-1.4344759999999999,2
2024-06-14 09:14:32.022,-32.865,-159.95,-9.870000000000001,0.060268,0.19739600000000002,-1.455216,2
2024-06-14 09:14:32.027,-28.91,-169.68,-13.09,0.076372,0.18397599999999997,-1.47864,2
2024-06-14 09:14:32.031,-29.085,-179.655,-15.75,0.07344400000000001,0.086864,-1.543544,2
2024-06-14 09:14:32.036,-22.96,-190.155,-15.68,0.083692,0.023912000000000003,-1.6011279999999999,3
2024-06-14 09:14:32.041,-19.355,-201.075,-16.765,0.084912,0.157136,-1.580632,3
2024-06-14 09:14:32.046,-21.21,-212.065,-20.09,0.067832,0.197884,-1.6362640000000002,3
2024-06-14 09:14:32.051,-18.41,-224.945,-23.17,0.061976,0.17934,-1.707024,3
2024-06-14 09:14:32.055,-15.855,-239.05,-26.11,0.058803999999999995,0.21032800000000001,-1.754848,3
2024-06-14 09:14:32.060,-15.085,-252.805,-29.47,0.067344,0.166408,-1.821704,3
2024-06-14 09:14:32.065,-9.17,-268.87,-31.08,0.08296,0.113704,-1.87758,3
2024-06-14 09:14:32.070,-3.115,-284.83000000000004,-31.814999999999998,0.038064,0.160796,-1.939556,4
2024-06-14 09:14:32.075,-1.155,-300.895,-33.6,0.042455999999999994,0.21106,-2.0086079999999997,4
2024-06-14 09:14:32.080,-1.8900000000000001,-319.9,-35.56,-0.022204,0.279136,-2.0073879999999997,4
2024-06-14 09:14:32.084,-4.654999999999999,-335.51,-39.305,-0.001464,0.267424,-2.115724,4
2024-06-14 09:14:32.089,0.455,-355.845,-41.019999999999996,-0.004392,0.17324,-2.1127960000000003,4
2024-06-14 09:14:32.094,2.2049999999999996,-371.875,-41.685,0.07319999999999999,0.12834399999999999,-2.280424,4
2024-06-14 09:14:32.099,6.09,-386.89,-40.04,0.13200399999999998,0.133956,-2.3638719999999998,4
2024-06-14 09:14:32.104,5.04,-396.55,-38.15,0.12956399999999998,0.24888,-2.506124,4
2024-06-14 09:14:32.108,-4.48,-405.265,-37.38,0.101504,0.407236,-2.6415439999999997,4
2024-06-14 09:14:32.113,-26.215,-407.19,-40.6,0.18422,0.487756,-2.77672,4
2024-06-14 09:14:32.118,-35.35,-413.28,-44.03,0.154696,0.402356,-2.801608,4
2024-06-14 09:14:32.123,-43.785,-410.16499999999996,-46.41,0.11833999999999999,0.427488,-2.938492,4
2024-06-14 09:14:32.128,-55.475,-409.115,-50.855000000000004,0.025132,0.438956,-3.031944,4
2024-06-14 09:14:32.133,-68.215,-405.895,-57.33,-0.116632,0.44090799999999997,-2.9994919999999996,4
2024-06-14 09:14:32.137,-79.485,-400.855,-63.945,-0.350384,0.41870399999999997,-2.986804,4
2024-06-14 09:14:32.142,-94.39500000000001,-397.355,-73.28999999999999,-0.719556,0.425536,-2.9321479999999998,4
2024-06-14 09:14:32.147,-107.03,-392.0,-84.0,-1.0523719999999999,0.452376,-2.826008,4
2024-06-14 09:14:32.152,-120.295,-391.125,-98.315,-1.3576160000000002,0.500444,-2.6586239999999997,4
2024-06-14 09:14:32.157,-127.64500000000001,-395.91999999999996,-115.36,-1.5676999999999999,0.51972,-2.353868,4
2024-06-14 09:14:32.161,-120.295,-408.03,-134.61,-1.626504,0.469456,-1.9717639999999999,4
2024-06-14 09:14:32.166,-83.37,-431.795,-157.43,-1.817068,0.48385199999999995,-1.4532640000000001,4
2024-06-14 09:14:32.171,-51.730000000000004,-473.795,-170.94,-0.859612,0.49288,-0.670024,4
2024-06-14 09:14:32.176,-14.524999999999999,-490.455,-172.06,-0.53436,0.48995200000000005,-0.7585959999999999,4
2024-06-14 09:14:32.181,7.49,-397.005,-170.03,-1.2780719999999999,0.273524,-0.965996,4
2024-06-14 09:14:32.186,-15.435,-299.21500000000003,-170.03,-1.502552,0.142008,-0.86132,4
2024-06-14 09:14:32.190,-33.285,-182.525,-159.74,-1.240252,0.22813999999999998,-0.89426,4
2024-06-14 09:14:32.195,-25.865000000000002,-71.225,-136.64,-1.215364,0.224236,-1.0567639999999998,4
2024-06-14 09:14:32.200,-18.235,22.224999999999998,-111.3,-1.267824,0.04953200000000001,-1.05896,4
2024-06-14 09:14:32.205,-10.71,92.82,-86.94,-1.236836,0.030255999999999998,-0.9384239999999999,4
2024-06-14 09:14:32.210,2.345,136.815,-64.96000000000001,-1.1431399999999998,0.08930400000000001,-0.8313079999999999,4
2024-06-14 09:14:32.215,18.865000000000002,154.385,-47.775000000000006,-1.02602,0.14761999999999997,-0.811544,4
2024-06-14 09:14:32.219,34.195,150.07999999999998,-35.525,-0.872788,0.205936,-0.859124,4
2024-06-14 09:14:32.224,45.114999999999995,133.315,-26.985,-0.723704,0.242048,-0.877912,4
2024-06-14 09:14:32.229,47.46,113.85499999999999,-20.685000000000002,-0.613416,0.257664,-0.7537159999999999,4
2024-06-14 09:14:32.234,41.44,100.31,-14.91,-0.579988,0.275964,-0.555344,4
2024-06-14 09:14:32.239,29.049999999999997,96.35499999999999,-8.645,-0.58438,0.283528,-0.395768,4
2024-06-14 09:14:32.243,11.445,101.885,-1.5750000000000002,-0.5912120000000001,0.281576,-0.319884,4
2024-06-14 09:14:32.248,-9.625,115.43,6.125,-0.602924,0.26327599999999995,-0.311832,4
2024-06-14 09:14:32.253,-30.8,133.805,14.77,-0.625372,0.229116,-0.31622399999999995,4
2024-06-14 09:14:32.258,-48.265,154.84,24.22,-0.6524559999999999,0.181292,-0.32256799999999997,4
2024-06-14 09:14:32.263,-59.08,175.525,34.09,-0.659288,0.12321999999999998,-0.3538,4
2024-06-14 09:14:32.268,-62.3,194.18,43.995,-0.647332,0.068564,-0.401624,4
2024-06-14 09:14:32.272,-59.01,209.475,53.655,-0.628544,0.02806,-0.451156,4
2024-06-14 09:14:32.277,-51.03,221.82999999999998,62.685,-0.6034120000000001,0.0017080000000000003,-0.48922,4
2024-06-14 09:14:32.282,-40.53,233.065,70.63,-0.578524,-0.006343999999999999,-0.521428,4
2024-06-14 09:14:32.287,-30.59,243.53,77.14,-0.5472919999999999,0.0026839999999999998,-0.5516840000000001,4
2024-06-14 09:14:32.292,-23.415,254.135,81.86500000000001,-0.519964,0.024887999999999997,-0.594384,4
2024-06-14 09:14:32.296,-19.845,265.3,85.085,-0.49629599999999996,0.046848,-0.635864,4
2024-06-14 09:14:32.301,-19.705,277.235,87.22,-0.472872,0.065148,-0.670268,4
2024-06-14 09:14:32.306,-22.575,289.17,88.34,-0.45994,0.07222400000000001,-0.7015,4
2024-06-14 09:14:32.311,-27.685000000000002,300.58,88.235,-0.44896,0.072468,-0.7376119999999999,4
2024-06-14 09:14:32.316,-33.144999999999996,311.325,87.815,-0.43700399999999995,0.06417199999999999,-0.7803119999999999,4
2024-06-14 09:14:32.321,-38.394999999999996,321.05499999999995,87.11500000000001,-0.41870399999999997,0.049044000000000004,-0.822036,4
2024-06-14 09:14:32.325,-42.735,329.84000000000003,86.38,-0.40015999999999996,0.029767999999999996,-0.865956,4
2024-06-14 09:14:32.330,-45.849999999999994,337.71500000000003,85.75,-0.383812,0.0060999999999999995,-0.915488,4
2024-06-14 09:14:32.335,-47.215,344.89,85.26,-0.367464,-0.01464,-0.96136,4
2024-06-14 09:14:32.340,-46.724999999999994,351.505,84.77000000000001,-0.357216,-0.042456,-1.009428,4
2024-06-14 09:14:32.345,-44.730000000000004,357.805,84.455,-0.337696,-0.059292,-1.0553,4
2024-06-14 09:14:32.349,-41.335,363.475,84.0,-0.32378799999999996,-0.071004,-1.109468,4
2024-06-14 09:14:32.354,-36.855000000000004,368.515,83.3,-0.307928,-0.077104,-1.1770559999999999,4
2024-06-14 09:14:32.358,-32.269999999999996,372.61,82.145,-0.29060400000000003,-0.076616,-1.247084,4
2024-06-14 09:14:32.360,-27.93,376.145,80.535,-0.277428,-0.065148,-1.3268719999999998,4
2024-06-14 09:14:32.365,-24.605,379.33000000000004,78.505,-0.260348,-0.061731999999999995,-1.4095879999999998,4
2024-06-14 09:14:32.370,-22.155,382.865,75.775,-0.234484,-0.050508,-1.4837639999999999,4
2024-06-14 09:14:32.374,-20.72,386.715,72.485,-0.212524,-0.038064,-1.559892,4
2024-06-14 09:14:32.379,-19.810000000000002,390.635,68.81,-0.191052,-0.024644,-1.6372399999999998,4
2024-06-14 09:14:32.384,-18.865000000000002,394.65999999999997,64.715,-0.162748,-0.016347999999999998,-1.723372,4
2024-06-14 09:14:32.389,-17.71,398.195,60.620000000000005,-0.13785999999999998,0.0,-1.810724,4
2024-06-14 09:14:32.394,-15.645,401.555,57.05,-0.10492,0.005611999999999999,-1.89466,4
2024-06-14 09:14:32.399,-12.74,404.42499999999995,54.144999999999996,-0.07930000000000001,0.021471999999999998,-1.988112,4
2024-06-14 09:14:32.404,-9.17,405.78999999999996,52.045,-0.052216,0.03294,-2.0886400000000003,4
2024-06-14 09:14:32.408,-5.95,406.245,50.855000000000004,-0.016836,0.051239999999999994,-2.20576,4
2024-06-14 09:14:32.413,-3.885,405.58000000000004,50.575,0.005124,0.08174000000000001,-2.331664,4
2024-06-14 09:14:32.418,-3.08,404.11,51.205,0.030744,0.109068,-2.469036,4
2024-06-14 09:14:32.423,-3.2199999999999998,402.815,52.535,0.049532,0.138348,-2.615192,4
2024-06-14 09:14:32.428,-4.27,402.46500000000003,54.915,0.066124,0.153232,-2.786724,4
2024-06-14 09:14:32.433,-6.125,403.69,58.765,0.101504,0.163236,-2.970456,4
2024-06-14 09:14:32.438,-7.5600000000000005,407.155,64.295,0.154208,0.159088,-3.1683399999999997,4
2024-06-14 09:14:32.442,-8.68,413.35,71.82,0.24814799999999998,0.141764,-3.3481680000000003,4
2024-06-14 09:14:32.447,-9.030000000000001,422.38,80.60499999999999,0.390644,0.133712,-3.456504,4
2024-06-14 09:14:32.452,-8.89,433.335,89.46000000000001,0.5602239999999999,0.142496,-3.524092,4
2024-06-14 09:14:32.457,-6.58,443.24,97.16,0.757132,0.16958,-3.5697200000000002,4
2024-06-14 09:14:32.462,-0.875,448.55999999999995,103.53,0.94428,0.18690400000000001,-3.6160799999999997,4
2024-06-14 09:14:32.467,6.545,447.265,108.32499999999999,1.1285,0.185196,-3.5624000000000002,4
2024-06-14 09:14:32.472,11.934999999999999,439.07500000000005,112.245,1.323944,0.130784,-3.443328,4
2024-06-14 09:14:32.476,17.395,426.78999999999996,116.76,1.54818,0.10174799999999999,-3.200548,4
2024-06-14 09:14:32.481,40.11,411.28499999999997,122.08000000000001,1.832928,0.24131599999999997,-3.032676,4
2024-06-14 09:14:32.486,86.17,389.76,127.61,2.092544,0.4514,-2.728164,4
2024-06-14 09:14:32.491,146.51,362.91499999999996,127.64500000000001,2.199904,0.840824,-2.3643599999999996,4
2024-06-14 09:14:32.496,194.45999999999998,335.29999999999995,116.095,2.4607400000000004,1.3066200000000001,-2.1569599999999998,4
2024-06-14 09:14:32.501,197.4,309.925,91.21,2.805268,1.675792,-2.1513479999999996,4
2024-06-14 09:14:32.506,147.665,284.48,48.055,3.0075439999999998,2.012512,-1.96664,4
2024-06-14 09:14:32.510,56.98,263.935,-0.5949999999999998,3.182492,2.094496,-1.5642839999999998,4
2024-06-14 09:14:32.515,-68.53,250.565,-54.915,3.474804,1.8299999999999998,-1.185108,4
2024-06-14 09:14:32.520,-201.53,240.135,-85.575,4.212172,0.641964,-1.103612,4
2024-06-14 09:14:32.525,-288.04999999999995,217.315,-132.09,4.629168,0.291336,-1.166808,4
2024-06-14 09:14:32.530,-322.525,177.38,-137.935,5.242827999999999,-0.608536,-1.3937279999999999,4
2024-06-14 09:14:32.535,-290.91999999999996,120.85499999999999,-123.13,5.514644,-1.3768919999999998,-1.47742,4
2024-06-14 09:14:32.540,-196.07,52.605000000000004,-93.205,5.402892,-1.835856,-1.346148,4
2024-06-14 09:14:32.544,-67.165,-16.135,-55.754999999999995,4.930996,-1.9476079999999998,-1.142164,4
2024-06-14 09:14:32.549,54.25,-73.78,-18.55,4.278296,-1.659932,-1.098488,4
2024-06-14 09:14:32.554,132.055,-116.445,12.215,3.651948,-1.137284,-1.2685560000000002,4
2024-06-14 09:14:32.559,157.01,-142.83499999999998,33.985,3.1078279999999996,-0.5897479999999999,-1.402756,4
2024-06-14 09:14:32.564,26.075000000000003,-327.705,-18.444999999999997,1.237324,4.18094,-9.099492,4
