time,gyroscope_x,gyroscope_y,gyroscope_z,accelerometer_x,accelerometer_y,accelerometer_z,phase
2024-06-14 11:24:26.087,249.55,-404.03999999999996,58.765,3.1976199999999997,-0.402112,-1.4274,1
2024-06-14 11:24:26.097,66.605,-380.52,78.08500000000001,-0.18568400000000002,-0.160552,-1.91784,1
2024-06-14 11:24:26.107,-27.055,-339.675,100.8,-0.493124,-0.269864,-2.352404,1
2024-06-14 11:24:26.116,-25.515,-275.065,82.53,0.360632,-0.644404,-2.3680199999999996,1
2024-06-14 11:24:26.126,-28.735,-239.89,39.34,0.257176,-0.687592,-2.545652,1
2024-06-14 11:24:26.136,-20.79,-178.14999999999998,-8.015,0.098576,-0.31695599999999996,-1.913692,2
2024-06-14 11:24:26.145,-8.715,-110.775,-14.98,0.032695999999999996,0.121268,-1.47742,2
2024-06-14 11:24:26.155,-14.14,-67.69,8.82,-0.080276,0.182024,-1.130696,2
2024-06-14 11:24:26.165,-21.63,-36.575,19.6,-0.060267999999999995,-0.055631999999999994,-1.061888,2
2024-06-14 11:24:26.174,-17.92,-17.465,4.865,-0.040504,-0.09857600000000001,-1.0933639999999998,2
2024-06-14 11:24:26.184,-10.885,-12.145,-2.065,0.021716,0.04343199999999999,-1.076772,2
2024-06-14 11:24:26.193,-6.02,-7.875,3.99,-0.007807999999999999,0.056608,-1.05408,2
2024-06-14 11:24:26.203,-0.945,-5.495,-0.9450000000000001,-0.069052,-0.024399999999999998,-1.028948,2
2024-06-14 11:24:26.213,-0.8049999999999999,-7.245000000000001,-4.4799999999999995,-0.071736,0.0024399999999999995,-1.0335839999999998,2
2024-06-14 11:24:26.222,-1.19,-10.36,-2.87,-0.07710399999999999,-0.0061,-1.02724,2
2024-06-14 11:24:26.232,-1.4700000000000002,-11.864999999999998,-3.5,-0.06734399999999999,-0.003416,-1.014552,2
2024-06-14 11:24:26.242,-1.5750000000000002,-13.16,-2.94,-0.06588,-0.001464,-1.02236,2
2024-06-14 11:24:26.251,-2.065,-17.115000000000002,-2.9050000000000002,-0.076128,-0.001464,-1.028216,2
2024-06-14 11:24:26.261,-2.17,-20.58,-3.115,-0.071248,-0.00024400000000000002,-1.027972,2
2024-06-14 11:24:26.271,-2.205,-24.325,-3.08,-0.060268,-0.0060999999999999995,-1.0262639999999998,2
2024-06-14 11:24:26.280,-2.3099999999999996,-24.605,-3.185,-0.05978,-0.007808,-1.023336,2
2024-06-14 11:24:26.290,-2.135,-27.335,-2.765,-0.052704,-0.002196,-1.0311439999999998,2
2024-06-14 11:24:26.300,0.21,-27.895,-2.205,-0.046116000000000004,-0.006588,-1.0243120000000001,2
2024-06-14 11:24:26.309,-0.17500000000000002,-32.480000000000004,-1.8199999999999998,-0.047336,-0.0034159999999999998,-1.02846,2
2024-06-14 11:24:26.319,0.7,-36.19,-1.54,-0.044896000000000005,0.0034159999999999998,-1.033096,2
2024-06-14 11:24:26.329,2.275,-38.955,-1.54,-0.038064,0.010735999999999999,-1.0287039999999998,2
2024-06-14 11:24:26.338,4.445,-25.375,-1.855,-0.018788,0.005856,-1.022604,2
2024-06-14 11:24:26.348,2.31,-43.96,-2.1,-0.009760000000000001,0.005856,-1.021628,2
2024-06-14 11:24:26.357,-1.4,-71.96000000000001,-1.645,-0.010003999999999999,0.00732,-1.015772,2
2024-06-14 11:24:26.366,-0.245,-60.655,-2.52,-0.000976,0.002196,-1.02114,2
2024-06-14 11:24:26.376,0.245,-48.965,-0.9450000000000001,0.0075639999999999995,0.005368,-1.0187,2
2024-06-14 11:24:26.385,-1.085,-44.379999999999995,-1.54,0.017079999999999998,0.001464,-1.0165039999999999,2
2024-06-14 11:24:26.395,0.14000000000000012,-51.135000000000005,-0.875,0.0122,-0.008296,-1.024556,2
2024-06-14 11:24:26.405,2.625,-40.285,-2.065,0.021227999999999997,0.002196,-1.0340719999999999,2
2024-06-14 11:24:26.414,15.225,-31.814999999999998,0.98,0.028303999999999996,-0.007808,-1.027484,2
2024-06-14 11:24:26.424,-0.9099999999999999,-27.405,-0.63,0.037332,-0.00976,-1.0169920000000001,2
2024-06-14 11:24:26.434,-5.18,-21.98,-0.21,0.037576,-0.0036599999999999996,-1.020408,2
2024-06-14 11:24:26.443,-5.775,-20.615000000000002,-0.42,0.044652,0.000732,-1.026996,2
2024-06-14 11:24:26.453,-6.545,-20.23,-0.42000000000000004,0.040992,-0.005612,-1.0365119999999999,2
2024-06-14 11:24:26.463,-7.3149999999999995,-21.174999999999997,-0.5249999999999999,0.043188000000000004,0.008296,-1.05652,2
2024-06-14 11:24:26.472,-6.37,-22.259999999999998,-1.26,0.039772,0.023912000000000003,-1.077016,2
2024-06-14 11:24:26.482,-3.99,-25.585,-1.54,0.0427,0.017324,-1.107516,2
2024-06-14 11:24:26.492,-3.92,-33.25,-2.275,0.038552,0.009271999999999999,-1.354688,2
2024-06-14 11:24:26.501,-0.98,-39.305,-1.96,0.043676,0.008539999999999999,-1.289296,2
2024-06-14 11:24:26.511,-7.595000000000001,-41.44,-2.6950000000000003,0.06709999999999999,-0.024888,-1.120936,2
2024-06-14 11:24:26.521,-12.18,-44.555,-1.925,0.071492,-0.027572,-1.1370399999999998,2
2024-06-14 11:24:26.530,-17.29,-50.47,-1.12,0.06783199999999999,-0.026108,-1.1821799999999998,2
2024-06-14 11:24:26.540,-21.525,-58.555,-0.315,0.07002799999999998,-0.014395999999999999,-1.226344,2
2024-06-14 11:24:26.550,-24.78,-70.77,0.315,0.066368,-0.010736,-1.303204,2
2024-06-14 11:24:26.559,-28.035,-85.015,0.595,0.06831999999999999,-0.008539999999999999,-1.337852,2
2024-06-14 11:24:26.569,-31.57,-100.83500000000001,1.26,0.071492,-0.010003999999999999,-1.363472,2
2024-06-14 11:24:26.579,-37.94,-119.10499999999999,1.7850000000000001,0.069784,-0.025376,-1.4220320000000002,2
2024-06-14 11:24:26.588,-45.989999999999995,-140.45499999999998,2.0300000000000002,0.064416,-0.019276,-1.4854720000000001,3
2024-06-14 11:24:26.598,-50.959999999999994,-165.865,1.89,0.054167999999999994,0.015371999999999999,-1.5554999999999999,3
2024-06-14 11:24:26.608,-52.535,-196.105,0.525,0.034159999999999996,0.062708,-1.667252,3
2024-06-14 11:24:26.617,-52.01,-230.965,-2.52,0.013908,0.08637600000000001,-1.748748,3
2024-06-14 11:24:26.627,-51.870000000000005,-270.585,-5.390000000000001,0.00048800000000000004,0.096136,-1.8490319999999998,3
2024-06-14 11:24:26.637,-48.894999999999996,-313.565,-9.695,-0.016592,0.188368,-2.030812,3
2024-06-14 11:24:26.646,-43.05,-363.615,-15.61,-0.076372,0.186904,-2.196976,3
2024-06-14 11:24:26.656,-37.03,-418.005,-21.490000000000002,-0.09784399999999999,0.300852,-2.3973,3
2024-06-14 11:24:26.666,-39.724999999999994,-469.21,-26.354999999999997,0.027572000000000003,0.165432,-2.7694,3
2024-06-14 11:24:26.675,-56.315,-515.865,-23.1,0.218868,0.046848,-3.242516,3
2024-06-14 11:24:26.685,-94.08,-545.1600000000001,-17.884999999999998,0.38308000000000003,0.179096,-3.648776,3
2024-06-14 11:24:26.694,-101.11500000000001,-562.31,-26.775,0.155428,-0.05294800000000001,-3.568988,3
2024-06-14 11:24:26.704,-50.4,-577.5,-26.740000000000002,0.131272,-0.05538799999999999,-3.2329999999999997,3
2024-06-14 11:24:26.714,-5.004999999999999,-564.9,-24.255,-0.043188000000000004,0.045627999999999995,-3.110024,3
2024-06-14 11:24:26.723,6.335,-520.695,-14.595,-0.797148,0.43846799999999997,-3.2598399999999996,3
2024-06-14 11:24:26.733,-39.41,-501.83,-25.83,-1.8963679999999998,0.6636799999999999,-3.0927,3
2024-06-14 11:24:26.743,-133.455,-423.395,-66.465,-2.98168,0.687592,-1.6940920000000002,4
2024-06-14 11:24:26.752,-173.28500000000003,-407.53999999999996,-162.155,-1.775588,0.984784,0.44164000000000003,4
2024-06-14 11:24:26.762,-142.51999999999998,-178.29000000000002,-207.02499999999998,-1.695312,0.47775200000000007,-0.862784,4
2024-06-14 11:24:26.772,-127.225,55.23,-210.175,-1.8878279999999998,-0.347456,-0.75152,4
2024-06-14 11:24:26.781,-15.434999999999999,198.485,-163.73000000000002,-1.6689599999999998,-0.694668,-1.43594,4
2024-06-14 11:24:26.791,88.58500000000001,252.76999999999998,-112.945,-1.27978,-0.49776,-1.336876,4
2024-06-14 11:24:26.801,137.41000000000003,266.14,-81.62,-1.0226039999999998,-0.21862400000000004,-1.000156,4
2024-06-14 11:24:26.810,136.95499999999998,267.4,-63.595,-0.81252,0.009271999999999997,-0.778848,4
2024-06-14 11:24:26.820,105.21000000000001,271.355,-51.905,-0.674416,0.10980000000000001,-0.6934480000000001,4
2024-06-14 11:24:26.830,67.445,282.135,-42.21,-0.60756,0.118584,-0.661484,4
2024-06-14 11:24:26.839,40.075,299.66999999999996,-33.705,-0.58194,0.060268,-0.6919839999999999,4
2024-06-14 11:24:26.849,28.455,319.55,-24.744999999999997,-0.577548,-0.0017080000000000003,-0.783728,4
2024-06-14 11:24:26.859,27.825000000000003,341.145,-16.485,-0.583892,-0.026352,-0.8710800000000001,4
2024-06-14 11:24:26.868,29.435,365.47,-10.395,-0.586332,-0.001464,-0.970388,4
2024-06-14 11:24:26.878,25.689999999999998,389.40999999999997,-8.33,-0.5643720000000001,0.06246399999999999,-1.0677439999999998,4
2024-06-14 11:24:26.888,13.195,406.35,-10.71,-0.498004,0.140788,-1.2031640000000001,4
2024-06-14 11:24:26.897,-1.435,419.37,-15.155,-0.46994400000000003,0.113704,-1.1858399999999998,4
2024-06-14 11:24:26.907,-11.094999999999999,428.96,-18.935000000000002,-0.38381200000000004,0.10248,-1.307596,4
2024-06-14 11:24:26.917,-19.355,430.815,-21.455,-0.27206,0.09394,-1.449604,4
2024-06-14 11:24:26.926,-24.78,430.745,-22.785,-0.191784,0.102968,-1.52378,4
2024-06-14 11:24:26.936,-33.915,425.565,-24.990000000000002,-0.03416,0.16909200000000002,-1.6589559999999999,4
2024-06-14 11:24:26.946,-49.980000000000004,410.27,-26.46,0.1586,0.18324400000000002,-1.754604,4
2024-06-14 11:24:26.955,-64.36500000000001,389.97,-24.325,0.292556,0.145424,-1.860744,4
2024-06-14 11:24:26.965,-70.7,367.22,-19.215,0.35014,0.143228,-2.027152,4
2024-06-14 11:24:26.975,-73.36,341.25,-15.33,0.366244,0.231068,-2.257976,4
2024-06-14 11:24:26.984,-80.535,330.365,-13.475000000000001,0.362584,0.30231600000000003,-2.5139319999999996,4
2024-06-14 11:24:26.994,-88.9,350.875,-6.93,0.4209,0.313052,-2.7374359999999998,4
2024-06-14 11:24:27.003,-90.3,383.18,9.030000000000001,0.62098,0.297924,-2.899452,4
2024-06-14 11:24:27.013,-85.19,402.99,34.475,0.8703479999999999,0.223748,-2.94142,4
2024-06-14 11:24:27.023,-82.67,412.23,67.2,1.148508,0.20691199999999998,-2.88164,4
2024-06-14 11:24:27.032,-90.965,410.27,98.805,1.595272,0.24034,-2.9167759999999996,4
2024-06-14 11:24:27.042,-102.48,398.09000000000003,113.05000000000001,2.0679,0.27376799999999996,-2.8806639999999994,4
2024-06-14 11:24:27.052,-96.32,369.215,117.42500000000001,2.52906,0.275232,-2.7267,4
2024-06-14 11:24:27.061,-82.53,328.19500000000005,103.32,2.893596,0.38405599999999995,-2.4465879999999998,4
2024-06-14 11:24:27.071,-74.41,286.23,65.31,3.418684,0.464576,-2.1598879999999996,4
2024-06-14 11:24:27.081,-71.33,237.405,19.04,4.06626,0.424804,-1.872456,4
2024-06-14 11:24:27.090,-50.505,165.025,-18.305,4.609892,0.165188,-1.5372,4
2024-06-14 11:24:27.100,-26.985,76.51,-50.785,4.6960239999999995,0.08784,-1.35298,4
2024-06-14 11:24:27.110,-15.959999999999999,-12.879999999999999,-61.845,4.286592000000001,-0.040015999999999996,-1.2651399999999997,4
2024-06-14 11:24:27.119,-8.155000000000001,-80.535,-59.15,3.665856,-0.101992,-1.259284,4
