time,gyroscope_x,gyroscope_y,gyroscope_z,accelerometer_x,accelerometer_y,accelerometer_z,phase
2024-06-14 11:23:58.237,156.625,-452.97,65.59,3.8764279999999998,-1.1206919999999998,-4.320996,1
2024-06-14 11:23:58.247,278.565,-398.78999999999996,55.754999999999995,-0.006099999999999994,-0.04465200000000001,-0.27059599999999995,1
2024-06-14 11:23:58.256,109.44500000000001,-369.66999999999996,74.79499999999999,-0.548512,-0.17324,-2.086932,1
2024-06-14 11:23:58.266,2.275,-361.095,92.96000000000001,0.13785999999999998,-0.296948,-2.248704,1
2024-06-14 11:23:58.276,-20.405,-327.32,74.83000000000001,0.412848,-0.69174,-2.562732,1
2024-06-14 11:23:58.285,-34.405,-292.74,25.095000000000002,0.18397599999999997,-0.658556,-3.1078279999999996,1
2024-06-14 11:23:58.295,-9.870000000000001,-194.635,-18.34,0.149328,-0.198128,-2.094008,1
2024-06-14 11:23:58.305,-10.254999999999999,-97.125,-12.565000000000001,0.058072000000000006,0.205204,-1.4823,1
2024-06-14 11:23:58.314,-14.77,-49.28,9.625,-0.045628,0.12126799999999999,-1.153632,1
2024-06-14 11:23:58.324,-15.469999999999999,-21.105,11.690000000000001,-0.055632,-0.031964,-1.050176,1
2024-06-14 11:23:58.333,-9.065000000000001,-12.915,0.14000000000000012,0.008784,-0.008784000000000002,-1.068476,1
2024-06-14 11:23:58.343,-5.32,-9.065000000000001,1.8199999999999998,0.045627999999999995,0.061488,-1.066036,1
2024-06-14 11:23:58.353,-2.065,-4.305,2.5200000000000005,-0.06466,0.008784,-1.0169920000000001,1
2024-06-14 11:23:58.362,0.07000000000000003,-3.36,-2.555,-0.044163999999999995,-0.008052,-1.05408,2
2024-06-14 11:23:58.372,0.10500000000000004,-3.885,-2.625,-0.053924,-0.004879999999999999,-1.038708,2
2024-06-14 11:23:58.382,-1.225,-4.27,-2.275,-0.079544,0.016592,-1.0126,2
2024-06-14 11:23:58.391,-1.05,-4.795,-2.415,-0.06661199999999999,0.014395999999999999,-1.018212,2
2024-06-14 11:23:58.401,-0.9099999999999999,-7.0,-2.45,-0.081496,0.017324,-1.01992,2
2024-06-14 11:23:58.411,-1.6099999999999999,-10.675,-2.835,-0.07783599999999999,0.008539999999999999,-1.0201639999999998,2
2024-06-14 11:23:58.420,-2.24,-16.135,-3.29,-0.088816,0.010003999999999999,-1.0311439999999998,2
2024-06-14 11:23:58.430,-2.5549999999999997,-21.035,-3.885,-0.07539599999999999,0.011224,-1.0248,2
2024-06-14 11:23:58.439,-2.73,-23.134999999999998,-3.78,-0.070516,0.00976,-1.0206520000000001,2
2024-06-14 11:23:58.449,-3.01,-25.689999999999998,-3.465,-0.06905199999999999,0.013176,-1.0243120000000001,2
2024-06-14 11:23:58.459,-1.19,-28.7,-3.115,-0.06368399999999999,0.015616000000000001,-1.0262639999999998,2
2024-06-14 11:23:58.468,0.385,-29.575,-2.485,-0.055144,0.011956,-1.018944,2
2024-06-14 11:23:58.478,0.9099999999999999,-31.884999999999998,-2.38,-0.048799999999999996,0.016347999999999998,-1.019188,2
2024-06-14 11:23:58.488,2.17,-33.67,-2.38,-0.044163999999999995,0.016836,-1.02358,2
2024-06-14 11:23:58.497,3.71,-35.63,-2.03,-0.038552,0.018788,-1.0218720000000001,2
2024-06-14 11:23:58.507,5.81,-20.44,-1.435,-0.025132,0.02318,-1.0155280000000002,2
2024-06-14 11:23:58.517,4.235,-30.134999999999998,-1.75,-0.016104,0.019032,-1.017968,2
2024-06-14 11:23:58.526,8.89,-23.415000000000003,-2.38,-0.015372,0.015616000000000001,-1.01382,2
2024-06-14 11:23:58.536,4.06,-23.695,-1.47,-0.00732,0.0183,-1.014064,2
2024-06-14 11:23:58.545,2.94,-30.799999999999997,-1.68,-0.007808000000000001,0.017079999999999998,-1.009672,2
2024-06-14 11:23:58.555,2.9050000000000002,-30.1,-2.205,-0.002196,0.022935999999999998,-1.019432,2
2024-06-14 11:23:58.565,2.5549999999999997,-31.744999999999997,-1.365,0.0068319999999999995,0.015616,-1.0152839999999999,2
2024-06-14 11:23:58.574,3.01,-33.635000000000005,-1.8199999999999998,0.015127999999999999,0.019032,-1.0226039999999998,2
2024-06-14 11:23:58.584,2.275,-41.09,0.175,0.017324,0.023912,-1.0189439999999998,2
2024-06-14 11:23:58.594,7.245,-30.064999999999998,-0.98,0.024399999999999998,0.013908,-1.0448079999999997,2
2024-06-14 11:23:58.599,19.215,-30.17,-0.105,0.033184,-0.0060999999999999995,-1.035292,2
2024-06-14 11:23:58.609,6.859999999999999,-33.425,0.56,0.027572,0.0014640000000000002,-1.0521280000000002,2
2024-06-14 11:23:58.619,-0.175,-29.155,-1.12,0.031964,0.012931999999999999,-1.0960480000000001,2
2024-06-14 11:23:58.628,-0.56,-30.765,-0.77,0.035868,0.00244,-1.079944,2
2024-06-14 11:23:58.638,-2.9050000000000002,-31.36,-1.7850000000000001,0.039772,-0.002684,-1.085556,2
2024-06-14 11:23:58.648,-7.875,-32.69,-0.98,0.038551999999999996,-0.004148,-1.084092,2
2024-06-14 11:23:58.657,-11.129999999999999,-36.61,-0.49,0.053924,-0.010004,-1.109468,2
2024-06-14 11:23:58.667,-17.57,-39.69,-0.45499999999999996,0.053924,-0.020007999999999998,-1.180472,2
2024-06-14 11:23:58.677,-22.61,-46.445,0.27999999999999997,0.050508,-0.017079999999999998,-1.247084,2
2024-06-14 11:23:58.686,-27.335,-58.17,0.42,0.048312,-0.012444,-1.336632,2
2024-06-14 11:23:58.696,-32.06,-73.71000000000001,0.8049999999999999,0.04758,0.002928,-1.4073920000000002,2
2024-06-14 11:23:58.706,-36.68,-91.10499999999999,0.945,0.04758,-0.023424,-1.398608,2
2024-06-14 11:23:58.715,-41.614999999999995,-107.275,2.625,0.048068,-0.054168,-1.4208119999999997,2
2024-06-14 11:23:58.725,-49.769999999999996,-131.6,4.375,0.03782,-0.03294,-1.558428,2
2024-06-14 11:23:58.735,-57.89,-159.39,4.41,0.019764,0.010248,-1.636752,3
2024-06-14 11:23:58.744,-60.655,-192.57,3.2199999999999998,-0.00488,0.058072,-1.732644,3
2024-06-14 11:23:58.754,-61.6,-233.38,0.7,-0.041235999999999995,0.095892,-1.8502519999999998,3
2024-06-14 11:23:58.764,-60.095,-279.37,-4.27,-0.081984,0.17519200000000001,-1.9854279999999997,3
2024-06-14 11:23:58.773,-55.895,-329.21000000000004,-10.465,-0.104188,0.20422800000000002,-2.181604,3
2024-06-14 11:23:58.783,-51.065,-384.93,-17.744999999999997,-0.163236,0.23936400000000002,-2.27774,3
2024-06-14 11:23:58.793,-49.035,-444.045,-24.92,-0.24546400000000002,0.234484,-2.4722079999999997,3
2024-06-14 11:23:58.802,-57.575,-503.3,-27.265,-0.075152,0.112484,-2.892132,3
2024-06-14 11:23:58.812,-82.845,-556.85,-22.085,0.065636,-0.010735999999999999,-3.336456,3
2024-06-14 11:23:58.822,-124.6,-588.385,-14.14,0.30890399999999996,-0.02196,-3.766384,3
2024-06-14 11:23:58.832,-131.46,-598.815,-18.97,0.128344,-0.07149199999999999,-3.635356,3
2024-06-14 11:23:58.841,-97.89500000000001,-609.8050000000001,-21.735,-0.048311999999999994,0.020984000000000003,-3.2273880000000004,3
2024-06-14 11:23:58.851,-65.72999999999999,-591.64,-24.15,-0.10125999999999999,0.21667200000000003,-2.956548,3
2024-06-14 11:23:58.861,-85.19,-568.8199999999999,-28.0,-0.810812,0.5277719999999999,-3.4845639999999998,3
2024-06-14 11:23:58.870,-127.435,-493.67499999999995,-48.545,-1.9717639999999999,0.5304559999999999,-3.0900160000000003,3
2024-06-14 11:23:58.880,-203.14,-410.13,-94.325,-3.324988,0.43456399999999995,-2.05814,4
2024-06-14 11:23:58.890,-182.875,-376.81,-168.525,-2.082784,0.578768,0.47213999999999995,4
2024-06-14 11:23:58.899,-95.375,-128.345,-185.29000000000002,-1.9876239999999998,0.316712,-0.765184,4
2024-06-14 11:23:58.909,-77.35,107.31,-169.89,-2.097424,-0.32622799999999996,-1.006256,4
2024-06-14 11:23:58.919,10.71,255.99,-118.89500000000001,-1.813408,-0.42089999999999994,-1.589172,4
2024-06-14 11:23:58.928,80.08,305.9,-77.07,-1.3978760000000001,-0.234728,-1.3929960000000001,4
2024-06-14 11:23:58.938,98.63,311.185,-53.9,-1.17852,0.012932000000000003,-1.047492,4
2024-06-14 11:23:58.948,77.35,309.92499999999995,-42.980000000000004,-0.9008480000000001,0.17470400000000003,-0.837408,4
2024-06-14 11:23:58.957,40.285,313.28499999999997,-35.595,-0.7017439999999999,0.16250399999999998,-0.8210599999999999,4
2024-06-14 11:23:58.967,8.959999999999999,323.78499999999997,-27.965,-0.612196,0.036844,-0.82106,4
2024-06-14 11:23:58.977,3.5,341.355,-19.810000000000002,-0.5895039999999999,-0.10638399999999999,-0.854488,4
2024-06-14 11:23:58.986,18.48,360.185,-11.095,-0.565836,-0.200568,-0.976488,4
2024-06-14 11:23:58.996,38.22,379.435,-3.815,-0.576084,-0.200812,-1.0594480000000002,4
2024-06-14 11:23:59.006,49.035,402.57,-0.56,-0.587064,-0.121024,-1.13582,4
2024-06-14 11:23:59.015,47.25,425.74,-2.415,-0.560224,-0.04148,-1.225612,4
2024-06-14 11:23:59.025,34.72,440.54499999999996,-8.855,-0.4941,0.038796,-1.3710360000000001,4
2024-06-14 11:23:59.035,18.585,448.245,-17.185,-0.46116,-0.0029279999999999983,-1.384212,4
2024-06-14 11:23:59.044,9.905000000000001,454.09000000000003,-22.715,-0.40747999999999995,-0.022935999999999998,-1.464,4
2024-06-14 11:23:59.054,6.3,452.40999999999997,-26.11,-0.279136,-0.046604,-1.6448040000000002,4
2024-06-14 11:23:59.064,2.8699999999999997,443.55499999999995,-26.810000000000002,-0.175924,-0.0046359999999999995,-1.7079999999999997,4
2024-06-14 11:23:59.073,-7.945,428.96,-28.42,-0.007564000000000001,0.085644,-1.868064,4
2024-06-14 11:23:59.083,-28.56,411.21500000000003,-28.384999999999998,0.178364,0.121268,-1.9973839999999998,4
2024-06-14 11:23:59.093,-48.44,391.79,-22.12,0.32452000000000003,0.09882,-2.137684,4
2024-06-14 11:23:59.102,-56.629999999999995,367.5,-10.64,0.37136800000000003,0.08881599999999999,-2.3118999999999996,4
2024-06-14 11:23:59.112,-59.955,343.94500000000005,3.325,0.41211600000000004,0.186172,-2.589328,4
2024-06-14 11:23:59.122,-71.57499999999999,347.62,21.700000000000003,0.429928,0.24546400000000002,-2.78038,4
2024-06-14 11:23:59.131,-76.86,378.7,49.35,0.561688,0.200812,-2.9101879999999998,4
2024-06-14 11:23:59.141,-67.47999999999999,402.85,85.96000000000001,0.804956,0.15372,-2.9897319999999996,4
2024-06-14 11:23:59.151,-61.53,411.42499999999995,122.04499999999999,1.098488,0.215208,-2.9594759999999996,4
2024-06-14 11:23:59.160,-74.58500000000001,408.87,148.47,1.54452,0.258884,-2.9602079999999997,4
2024-06-14 11:23:59.170,-83.545,395.91999999999996,166.775,2.122556,0.175924,-2.919948,4
2024-06-14 11:23:59.180,-65.38,370.685,172.9,2.584448,0.167628,-2.742072,4
2024-06-14 11:23:59.189,-28.805,331.765,167.47500000000002,2.928976,0.315492,-2.4199919999999997,4
2024-06-14 11:23:59.199,18.095,285.07500000000005,143.04500000000002,3.462604,0.771528,-2.1293880000000005,4
2024-06-14 11:23:59.209,30.729999999999997,235.095,93.44999999999999,4.315872,1.2646519999999999,-1.9032,4
2024-06-14 11:23:59.218,-13.02,173.075,32.269999999999996,5.049336,1.316624,-1.594052,4
2024-06-14 11:23:59.228,-64.505,79.94,-14.28,5.111800000000001,0.743468,-1.455216,4
2024-06-14 11:23:59.238,-69.61500000000001,-31.5,-31.64,4.484719999999999,0.05831599999999999,-1.342488,4
2024-06-14 11:23:59.247,-21.104999999999997,-119.175,-20.86,3.682692,-0.240584,-1.3620079999999999,4
2024-06-14 11:23:59.257,6.859999999999999,-376.10999999999996,-3.325,3.754428,-1.2209759999999998,-5.745224,4
