time,gyroscope_x,gyroscope_y,gyroscope_z,accelerometer_x,accelerometer_y,accelerometer_z,phase
2024-06-14 09:12:50.977,78.12,-353.115,5.705,4.153124,-0.823744,-9.306648,1
2024-06-14 09:12:50.982,46.75999999999999,-210.735,13.790000000000001,-4.181184,0.184464,3.347436,1
2024-06-14 09:12:50.987,182.0,-341.985,-0.7349999999999999,-1.399584,1.426912,0.22765199999999985,1
2024-06-14 09:12:50.992,242.41,-370.685,-2.975,-1.227564,-0.197884,-1.701656,1
2024-06-14 09:12:50.997,233.905,-392.35,6.125,0.5399719999999999,0.07759200000000001,-1.191696,1
2024-06-14 09:12:51.002,209.01999999999998,-392.77,19.355,1.125816,-0.252784,-1.8258519999999998,1
2024-06-14 09:12:51.006,127.57499999999999,-357.805,43.96,0.9594079999999999,-0.24717199999999998,-1.935652,1
2024-06-14 09:12:51.011,68.63499999999999,-341.565,67.34,0.23741199999999998,-0.079544,-1.9724959999999998,1
2024-06-14 09:12:51.016,35.945,-334.845,73.675,-0.099552,-0.162992,-2.083272,1
2024-06-14 09:12:51.021,44.695,-332.71000000000004,61.04,0.029036000000000003,-0.4687239999999999,-2.204784,1
2024-06-14 09:12:51.026,50.47,-320.635,36.400000000000006,0.180072,-0.7585959999999999,-2.463912,1
2024-06-14 09:12:51.031,39.445,-289.905,11.27,0.098332,-0.8320400000000001,-2.673752,1
2024-06-14 09:12:51.035,16.485,-242.58499999999998,-9.905000000000001,0.264496,-0.578524,-2.4949000000000003,1
2024-06-14 09:12:51.040,11.129999999999999,-196.035,-23.87,0.36038800000000004,-0.22814,-2.207956,1
2024-06-14 09:12:51.045,11.41,-155.61,-27.335,0.293288,0.207888,-1.935896,1
2024-06-14 09:12:51.050,12.285,-122.815,-12.389999999999999,0.174704,0.403332,-1.81292,1
2024-06-14 09:12:51.055,11.55,-88.655,9.450000000000001,0.18958799999999998,0.277916,-1.561356,1
2024-06-14 09:12:51.060,11.795,-71.26,19.565,0.134932,0.09662399999999999,-1.355908,1
2024-06-14 09:12:51.065,14.14,-58.24,15.82,0.03538,-0.069296,-1.231224,1
2024-06-14 09:12:51.069,13.265,-46.55,4.97,0.02196,-0.12053599999999999,-1.061888,1
2024-06-14 09:12:51.074,11.76,-36.54,-2.275,0.04074799999999999,-0.06636800000000001,-0.96746,1
2024-06-14 09:12:51.079,9.94,-27.265,-2.275,0.008784,0.036112,-1.0104039999999999,1
2024-06-14 09:12:51.084,9.205,-23.31,1.785,-0.033671999999999994,0.0671,-1.06262,2
2024-06-14 09:12:51.089,9.065000000000001,-23.064999999999998,3.6399999999999997,-0.02318,-0.010003999999999999,-1.1016599999999999,2
2024-06-14 09:12:51.094,7.140000000000001,-21.735,1.0150000000000001,-0.012931999999999999,-0.076128,-1.083848,2
2024-06-14 09:12:51.098,4.375,-19.81,-0.35,-0.039284,-0.017324,-1.053836,2
2024-06-14 09:12:51.103,3.745,-19.425,0.525,-0.073444,0.061731999999999995,-1.033828,2
2024-06-14 09:12:51.108,5.145,-19.53,1.085,-0.081008,0.051484,-1.013332,2
2024-06-14 09:12:51.113,5.6,-19.775,-0.17500000000000002,-0.073932,-0.010248,-1.0431,2
2024-06-14 09:12:51.118,3.8150000000000004,-20.965,-1.225,-0.071248,-0.032208,-1.0614,2
2024-06-14 09:12:51.123,1.54,-23.450000000000003,-1.4700000000000002,-0.08662,-0.013663999999999999,-1.065548,2
2024-06-14 09:12:51.128,0.63,-26.075000000000003,-1.7149999999999999,-0.100284,0.008052,-1.0506639999999998,2
2024-06-14 09:12:51.132,0.35,-27.405,-1.995,-0.07198,0.00366,-1.0311439999999998,2
2024-06-14 09:12:51.137,-0.35000000000000003,-27.23,-2.0300000000000002,-0.055875999999999995,-0.00244,-1.027972,2
2024-06-14 09:12:51.142,-1.155,-26.845,-2.205,-0.072712,-0.009271999999999999,-1.035536,2
2024-06-14 09:12:51.147,-2.065,-27.615000000000002,-2.415,-0.082716,-0.005612,-1.0438319999999999,2
2024-06-14 09:12:51.152,-2.625,-29.435000000000002,-2.59,-0.096624,0.005612000000000001,-1.0548119999999999,2
2024-06-14 09:12:51.157,-2.8,-31.395,-3.01,-0.09564800000000001,0.005368,-1.06384,2
2024-06-14 09:12:51.161,-3.15,-33.599999999999994,-3.185,-0.08906,0.013420000000000001,-1.048468,2
2024-06-14 09:12:51.166,-3.15,-35.14,-3.395,-0.074176,-0.0026839999999999998,-1.0326079999999997,2
2024-06-14 09:12:51.171,-3.29,-36.4,-3.64,-0.112972,0.013908,-1.0553000000000001,2
2024-06-14 09:12:51.176,-3.675,-38.114999999999995,-3.92,-0.032695999999999996,0.008296,-1.01504,2
2024-06-14 09:12:51.181,-3.8150000000000004,-38.745000000000005,-4.095,-0.049044,0.011224000000000001,-1.0082079999999998,2
2024-06-14 09:12:51.186,-3.01,-38.29,-3.85,-0.045628,-0.00122,-1.0055239999999999,2
2024-06-14 09:12:51.191,-3.185,-40.425,-3.7800000000000002,-0.096868,0.005855999999999999,-1.0377319999999999,2
2024-06-14 09:12:51.195,-0.7350000000000001,-38.71,-3.885,-0.031964,0.031232,-1.024556,2
2024-06-14 09:12:51.200,-0.665,-40.879999999999995,-3.8150000000000004,-0.081984,0.006588,-1.01748,2
2024-06-14 09:12:51.205,1.19,-41.09,-3.57,-0.085644,0.011956000000000001,-1.0421239999999998,2
2024-06-14 09:12:51.213,1.05,-40.985,-3.395,-0.042455999999999994,0.017079999999999998,-1.028704,2
2024-06-14 09:12:51.218,2.3449999999999998,-41.195,-3.5,-0.07783599999999999,0.018543999999999998,-1.029924,2
2024-06-14 09:12:51.223,2.205,-40.635000000000005,-3.395,-0.024155999999999997,0.030011999999999997,-0.995276,2
2024-06-14 09:12:51.227,3.325,-40.599999999999994,-3.6399999999999997,-0.025376000000000003,0.031964,-0.9933239999999999,2
2024-06-14 09:12:51.232,3.955,-39.375,-3.71,-0.03294,0.023912,-1.016504,2
2024-06-14 09:12:51.237,5.145,-38.849999999999994,-3.57,-0.047092,0.027084,-1.0108920000000001,2
2024-06-14 09:12:51.242,8.085,-35.209999999999994,-3.325,-0.025864,0.023667999999999998,-1.0238239999999998,2
2024-06-14 09:12:51.247,9.625,-33.46,-2.6950000000000003,-0.007808000000000001,0.006588,-1.002596,2
2024-06-14 09:12:51.251,9.205,-32.655,-2.6950000000000003,-0.015616000000000001,0.003904,-1.008208,2
2024-06-14 09:12:51.256,9.24,-29.33,-2.66,-0.009272,0.016348,-0.9916159999999999,2
2024-06-14 09:12:51.261,9.205,-27.02,-2.73,0.003660000000000001,0.013907999999999998,-0.99186,2
2024-06-14 09:12:51.266,8.68,-25.725,-3.08,0.011467999999999999,0.016347999999999998,-0.9877119999999999,2
2024-06-14 09:12:51.271,8.925,-24.29,-3.045,-0.005124,0.020252,-0.98698,2
2024-06-14 09:12:51.276,8.12,-22.365000000000002,-3.325,0.011712,-0.010735999999999999,-0.99552,2
2024-06-14 09:12:51.280,7.7,-20.615000000000002,-2.975,0.006344,0.0017079999999999994,-0.99552,2
2024-06-14 09:12:51.285,7.385,-19.18,-2.94,0.011224,0.0024399999999999995,-1.000156,2
2024-06-14 09:12:51.290,7.595,-16.869999999999997,-3.115,0.0053679999999999995,0.00732,-0.997228,2
2024-06-14 09:12:51.295,5.425,-23.625,-3.29,0.00854,0.00244,-1.001132,2
2024-06-14 09:12:51.300,5.495,-15.96,-3.885,0.010492,0.009028,-0.999668,2
2024-06-14 09:12:51.304,5.984999999999999,-17.36,-3.815,0.00854,0.009271999999999999,-1.004304,2
2024-06-14 09:12:51.309,6.055,-16.555,-3.885,0.015616000000000001,0.00024399999999999986,-1.0023520000000001,2
2024-06-14 09:12:51.314,6.4399999999999995,-16.52,-3.955,0.012931999999999999,0.004148000000000001,-1.0035720000000001,2
2024-06-14 09:12:51.319,7.945,-37.1,-3.7800000000000002,0.016348,-0.009271999999999999,-1.0055239999999999,2
2024-06-14 09:12:51.324,4.095,-16.695,-4.095,0.014883999999999998,0.000244,-1.013088,2
2024-06-14 09:12:51.329,4.9,-16.695,-3.85,0.016104,0.005612000000000001,-1.013576,2
2024-06-14 09:12:51.333,3.64,-16.905,-4.0600000000000005,0.017568,0.0004879999999999997,-1.0218720000000001,2
2024-06-14 09:12:51.338,4.62,-17.185000000000002,-4.41,0.019763999999999997,-0.000732,-1.01626,2
2024-06-14 09:12:51.343,4.025,-17.43,-4.234999999999999,0.021228,0.0017079999999999999,-1.0228479999999998,2
2024-06-14 09:12:51.348,4.234999999999999,-18.095,-4.0249999999999995,0.018056,-0.0014639999999999996,-1.02114,2
2024-06-14 09:12:51.353,4.095000000000001,-18.865000000000002,-3.99,0.0183,0.001708,-1.0377319999999999,2
2024-06-14 09:12:51.357,6.195,-19.95,-4.13,0.021228,0.005124000000000002,-1.038708,2
2024-06-14 09:12:51.362,7.21,-20.895,-3.92,0.028304,-0.00366,-1.047492,2
2024-06-14 09:12:51.367,8.82,-22.54,-3.325,0.020252,0.000732,-1.0492,2
2024-06-14 09:12:51.372,9.975,-24.185,-2.765,0.024644,0.0026839999999999998,-1.044076,2
2024-06-14 09:12:51.377,9.065000000000001,-26.6,-3.29,0.024155999999999997,-0.00976,-1.058716,2
2024-06-14 09:12:51.382,8.504999999999999,-28.595,-4.025,0.022691999999999997,-0.013176,-1.06628,2
2024-06-14 09:12:51.386,8.225,-30.555,-4.234999999999999,0.027083999999999997,-0.005612,-1.103612,2
2024-06-14 09:12:51.391,17.744999999999997,-28.385,-3.325,0.022447999999999996,-0.057584,-0.954528,2
2024-06-14 09:12:51.396,-2.45,-40.144999999999996,-5.11,0.038552,0.0039040000000000012,-1.1277679999999999,2
2024-06-14 09:12:51.401,-3.29,-39.2,-4.795,0.024644,-0.051727999999999996,-1.118496,2
2024-06-14 09:12:51.406,-7.0,-36.96,-4.199999999999999,0.02196,-0.04074799999999999,-1.117032,2
2024-06-14 09:12:51.411,-10.01,-40.705,-3.36,0.017812,-0.082228,-1.146312,2
2024-06-14 09:12:51.415,-15.015,-46.165,-2.3449999999999998,0.031964,-0.074908,-1.158512,2
2024-06-14 09:12:51.420,-19.425,-49.21,-1.75,0.03172,-0.026840000000000003,-1.1907199999999998,2
2024-06-14 09:12:51.425,-23.064999999999998,-55.754999999999995,-2.135,0.017812,-0.013908,-1.2861239999999998,2
2024-06-14 09:12:51.430,-25.865000000000002,-63.209999999999994,-1.9249999999999998,0.0068319999999999995,-0.020007999999999998,-1.3273599999999999,2
2024-06-14 09:12:51.435,-28.700000000000003,-73.22,-2.2750000000000004,0.008296000000000001,-0.00976,-1.356152,2
2024-06-14 09:12:51.439,-31.29,-84.035,-3.15,0.018543999999999998,0.041479999999999996,-1.393484,2
2024-06-14 09:12:51.444,-30.869999999999997,-93.24000000000001,-4.13,0.000976,0.01952,-1.400804,2
2024-06-14 09:12:51.449,-33.04,-104.545,-4.305,0.006587999999999998,-0.019763999999999997,-1.431548,2
2024-06-14 09:12:51.454,-36.365,-115.185,-4.13,0.030744,-0.0305,-1.452776,2
2024-06-14 09:12:51.459,-38.955,-126.735,-3.8499999999999996,0.028304000000000003,-0.033671999999999994,-1.511824,2
2024-06-14 09:12:51.464,-42.875,-139.64999999999998,-4.095000000000001,0.00976,0.0004879999999999997,-1.5167039999999998,2
2024-06-14 09:12:51.468,-48.055,-150.57,-4.9350000000000005,0.020007999999999998,-0.027328,-1.5435439999999998,2
2024-06-14 09:12:51.473,-51.239999999999995,-160.01999999999998,-4.9,0.034404,-0.03294,-1.563796,2
2024-06-14 09:12:51.478,-55.510000000000005,-172.165,-5.95,0.014152000000000001,0.035623999999999996,-1.606008,2
2024-06-14 09:12:51.483,-57.715,-183.435,-7.42,-0.0031720000000000003,0.018788,-1.635532,2
2024-06-14 09:12:51.488,-54.635000000000005,-195.475,-8.54,-0.007076000000000001,0.1159,-1.691652,2
2024-06-14 09:12:51.492,-56.28,-208.70499999999998,-12.6,-0.032208,0.203252,-1.6755479999999998,2
2024-06-14 09:12:51.497,-53.375,-221.26999999999998,-15.504999999999999,0.018299999999999997,0.041724,-1.7660719999999999,3
2024-06-14 09:12:51.502,-44.135000000000005,-238.35,-15.959999999999999,0.007563999999999999,0.075396,-1.757288,3
2024-06-14 09:12:51.507,-42.91,-250.32,-18.585,-0.01342,0.15616,-1.7648519999999999,3
2024-06-14 09:12:51.512,-38.185,-265.82500000000005,-21.56,0.014395999999999999,0.189344,-1.825364,3
2024-06-14 09:12:51.517,-37.59,-282.20500000000004,-25.689999999999998,0.0061,0.213988,-1.930772,3
2024-06-14 09:12:51.521,-34.405,-299.565,-29.155,-0.016348,0.193004,-2.0110479999999997,3
2024-06-14 09:12:51.526,-29.575,-318.99,-31.884999999999998,-0.035136,0.17934,-2.057652,3
2024-06-14 09:12:51.531,-25.795,-337.645,-33.985,-0.023667999999999998,0.132736,-2.168184,3
2024-06-14 09:12:51.536,-23.03,-359.24,-34.44,-0.070028,0.186172,-2.2557799999999997,3
2024-06-14 09:12:51.541,-24.85,-378.525,-36.995000000000005,-0.08027599999999999,0.21716,-2.364116,3
2024-06-14 09:12:51.545,-18.095,-400.4,-38.08,-0.096136,0.25498,-2.3448400000000005,3
2024-06-14 09:12:51.550,-14.07,-418.11,-40.32,-0.033184000000000005,0.17812,-2.539796,3
2024-06-14 09:12:51.555,-6.93,-434.42,-37.38,0.036356,0.160552,-2.662772,3
2024-06-14 09:12:51.560,-9.8,-443.345,-35.595,0.055144,0.338672,-2.7403639999999996,3
2024-06-14 09:12:51.565,-18.549999999999997,-448.77,-35.875,0.039772,0.448716,-2.813564,3
2024-06-14 09:12:51.570,-35.455,-455.98,-37.239999999999995,0.033184,0.576328,-3.030236,3
2024-06-14 09:12:51.574,-58.38,-454.54499999999996,-43.82,-0.049532,0.5982879999999999,-3.175904,3
2024-06-14 09:12:51.579,-73.045,-449.75,-49.805,0.0183,0.5097160000000001,-3.36354,3
2024-06-14 09:12:51.584,-86.03,-450.20500000000004,-56.735,-0.09516,0.4758,-3.312544,3
2024-06-14 09:12:51.589,-97.61500000000001,-445.34000000000003,-65.59,-0.390644,0.418216,-3.326208,3
2024-06-14 09:12:51.594,-110.11,-439.25,-74.58500000000001,-0.807396,0.391132,-3.3557319999999997,3
2024-06-14 09:12:51.598,-121.485,-431.655,-85.19,-1.210484,0.430416,-3.2983919999999998,3
2024-06-14 09:12:51.603,-133.66500000000002,-427.175,-99.08500000000001,-1.6179640000000002,0.5243559999999999,-3.153212,3
2024-06-14 09:12:51.608,-142.555,-430.675,-118.195,-2.00446,0.6160999999999999,-2.863828,3
2024-06-14 09:12:51.613,-118.86000000000001,-445.375,-139.64999999999998,-2.207224,0.49239200000000005,-2.308972,3
2024-06-14 09:12:51.618,-130.55,-464.135,-164.185,-2.3436199999999996,0.553636,-1.9354080000000002,3
2024-06-14 09:12:51.623,-82.95,-504.56,-188.44,-1.6931159999999998,0.6087800000000001,-1.1758359999999999,3
2024-06-14 09:12:51.627,-29.435,-567.665,-198.27499999999998,-0.905484,0.7583519999999999,-0.700036,3
2024-06-14 09:12:51.632,5.775,-489.09,-200.41,-1.611376,0.473604,-1.0165039999999999,4
2024-06-14 09:12:51.637,-11.55,-372.53999999999996,-202.755,-2.09352,0.24229199999999998,-1.032852,4
2024-06-14 09:12:51.642,-41.894999999999996,-232.505,-193.41,-1.704828,0.28181999999999996,-1.048468,4
2024-06-14 09:12:51.647,-37.485,-80.92,-165.48000000000002,-1.6911639999999997,0.235948,-1.067012,4
2024-06-14 09:12:51.651,-23.94,53.69,-132.33499999999998,-1.80438,-0.01098,-1.118496,4
2024-06-14 09:12:51.656,-10.92,155.925,-99.36500000000001,-1.720688,-0.06344,-1.206336,4
2024-06-14 09:12:51.661,7.56,217.35,-69.615,-1.527196,-0.021959999999999997,-1.2148759999999998,4
2024-06-14 09:12:51.666,31.5,241.70999999999998,-46.725,-1.4254479999999998,0.075152,-1.104832,4
2024-06-14 09:12:51.671,56.525,237.51,-31.884999999999998,-1.325164,0.15201199999999998,-1.054812,4
2024-06-14 09:12:51.676,78.575,216.265,-22.925,-1.1477760000000001,0.202764,-1.0340719999999999,4
2024-06-14 09:12:51.680,92.715,189.7,-18.025,-0.9755119999999999,0.258152,-0.9677039999999999,4
2024-06-14 09:12:51.685,94.5,166.39,-14.945,-0.846192,0.31012399999999996,-0.816668,4
2024-06-14 09:12:51.690,83.755,153.44,-12.04,-0.7954399999999999,0.36648800000000004,-0.6361079999999999,4
2024-06-14 09:12:51.695,62.58,152.985,-8.96,-0.77104,0.410164,-0.49654,4
2024-06-14 09:12:51.700,34.405,164.43,-5.425000000000001,-0.771772,0.42358399999999996,-0.433588,4
2024-06-14 09:12:51.704,2.415,184.52,-0.84,-0.777384,0.398696,-0.423828,4
2024-06-14 09:12:51.709,-28.525000000000002,209.79000000000002,5.18,-0.786168,0.338916,-0.44188399999999994,4
2024-06-14 09:12:51.714,-52.64,236.28500000000003,13.055,-0.7868999999999999,0.255956,-0.48629199999999995,4
2024-06-14 09:12:51.719,-65.94,260.295,22.68,-0.7693319999999999,0.163968,-0.55022,4
2024-06-14 09:12:51.724,-67.75999999999999,279.51,33.46,-0.73322,0.085156,-0.6185400000000001,4
2024-06-14 09:12:51.729,-59.71,294.0,44.695,-0.68076,0.0244,-0.676368,4
2024-06-14 09:12:51.733,-45.394999999999996,304.99,55.58,-0.6348879999999999,-0.012931999999999999,-0.72224,4
2024-06-14 09:12:51.738,-28.63,314.3,65.52,-0.58682,-0.013176,-0.7517640000000001,4
2024-06-14 09:12:51.743,-13.475000000000001,322.90999999999997,73.60499999999999,-0.5477799999999999,0.0122,-0.782996,4
2024-06-14 09:12:51.748,-2.8,332.325,80.08,-0.5192319999999999,0.05758400000000001,-0.8169120000000001,4
2024-06-14 09:12:51.753,1.4,342.96500000000003,84.14,-0.49580799999999997,0.11175199999999999,-0.856684,4
2024-06-14 09:12:51.758,0.07,354.27,86.38,-0.47824,0.151524,-0.8918200000000001,4
2024-06-14 09:12:51.762,-5.145,365.68,87.045,-0.46506400000000003,0.18056,-0.92476,4
2024-06-14 09:12:51.767,-12.145,376.39,86.41499999999999,-0.45164399999999993,0.19446799999999997,-0.9718519999999999,4
2024-06-14 09:12:51.772,-19.425,385.63,85.4,-0.431392,0.1891,-1.01992,4
2024-06-14 09:12:51.777,-25.445,393.26,84.245,-0.410652,0.178852,-1.067012,4
2024-06-14 09:12:51.782,-28.98,399.42,83.3,-0.394304,0.160308,-1.117764,4
2024-06-14 09:12:51.786,-30.765,403.935,82.53,-0.3782,0.140788,-1.1916959999999999,4
2024-06-14 09:12:51.791,-31.009999999999998,407.05,82.11000000000001,-0.352824,0.12736799999999998,-1.274168,4
2024-06-14 09:12:51.796,-30.380000000000003,408.87,81.76,-0.32622799999999996,0.1159,-1.35542,4
2024-06-14 09:12:51.801,-28.909999999999997,410.725,81.69,-0.30768399999999996,0.11907200000000001,-1.419592,4
2024-06-14 09:12:51.806,-27.125,412.68499999999995,81.27,-0.28523600000000005,0.119804,-1.48962,4
2024-06-14 09:12:51.811,-25.515,415.38,80.78,-0.26718,0.12614799999999998,-1.569896,4
2024-06-14 09:12:51.815,-24.15,418.6,80.36,-0.242536,0.13712799999999997,-1.6638359999999999,4
2024-06-14 09:12:51.820,-22.82,421.995,80.15,-0.213988,0.144204,-1.76168,4
2024-06-14 09:12:51.825,-21.84,425.88,80.255,-0.193492,0.152012,-1.854644,4
2024-06-14 09:12:51.830,-21.105,429.87,80.71000000000001,-0.16714,0.167872,-1.9624920000000001,4
2024-06-14 09:12:51.835,-20.72,433.23,81.445,-0.139812,0.177388,-2.0781479999999997,4
2024-06-14 09:12:51.839,-20.895,435.96000000000004,82.775,-0.111264,0.197152,-2.206736,4
2024-06-14 09:12:51.844,-21.595,437.04499999999996,84.315,-0.073932,0.225456,-2.3516719999999998,4
2024-06-14 09:12:51.849,-23.38,436.345,85.75,-0.036356,0.24668400000000001,-2.51564,4
2024-06-14 09:12:51.854,-26.32,434.385,87.36,-0.00854,0.2715719999999999,-2.699128,4
2024-06-14 09:12:51.859,-29.645,431.515,89.53,0.037087999999999996,0.290848,-2.9131159999999996,4
2024-06-14 09:12:51.864,-32.585,429.20500000000004,92.89,0.12858799999999998,0.282796,-3.1122199999999998,4
2024-06-14 09:12:51.868,-35.455,429.41499999999996,98.455,0.26961999999999997,0.249612,-3.272772,4
2024-06-14 09:12:51.873,-39.375,433.055,104.89500000000001,0.43968799999999997,0.269132,-3.44162,4
2024-06-14 09:12:51.878,-45.114999999999995,437.95500000000004,109.445,0.613172,0.29646000000000006,-3.605588,4
2024-06-14 09:12:51.883,-50.715,442.505,112.595,0.811056,0.299388,-3.693184,4
2024-06-14 09:12:51.888,-52.185,445.865,115.605,1.015772,0.309392,-3.704408,4
2024-06-14 09:12:51.892,-46.97,446.11,118.33500000000001,1.234152,0.312808,-3.6822039999999996,4
2024-06-14 09:12:51.897,-33.18,441.98,120.96000000000001,1.450092,0.30280399999999996,-3.613396,4
2024-06-14 09:12:51.902,-11.025,433.33500000000004,123.9,1.6509040000000001,0.306464,-3.5111600000000003,4
2024-06-14 09:12:51.907,17.08,420.105,128.03,1.873676,0.315248,-3.376716,4
2024-06-14 09:12:51.912,47.739999999999995,402.325,133.035,2.104744,0.39405999999999997,-3.157848,4
2024-06-14 09:12:51.917,83.37,380.38,135.97500000000002,2.257732,0.666852,-2.779648,4
2024-06-14 09:12:51.921,123.55000000000001,357.105,130.13,2.417796,1.0511519999999999,-2.460008,4
2024-06-14 09:12:51.926,137.585,335.405,110.775,2.7715959999999997,1.370304,-2.3711919999999997,4
2024-06-14 09:12:51.931,112.56,314.33500000000004,82.11,3.0968479999999996,1.6218679999999999,-2.249192,4
2024-06-14 09:12:51.936,52.045,290.95500000000004,41.195,3.3508519999999997,1.714344,-1.953708,4
2024-06-14 09:12:51.941,-40.144999999999996,272.37,0.875,3.53312,1.83122,-1.575508,4
2024-06-14 09:12:51.945,-145.775,253.57500000000002,-35.42,4.3505199999999995,0.630008,-1.366644,4
2024-06-14 09:12:51.950,-219.415,227.14999999999998,-83.265,4.4220120000000005,0.66612,-1.330776,4
2024-06-14 09:12:51.955,-256.235,192.14999999999998,-104.58,4.8919559999999995,0.07564000000000001,-1.3868960000000001,4
2024-06-14 09:12:51.960,-245.98000000000002,147.98000000000002,-111.78999999999999,5.3033399999999995,-0.473604,-1.4217879999999998,4
2024-06-14 09:12:51.965,-192.04500000000002,98.735,-107.695,5.519524,-0.851804,-1.384456,4
2024-06-14 09:12:51.970,-108.39500000000001,46.795,-96.95,5.452667999999999,-0.996008,-1.283928,4
2024-06-14 09:12:51.974,-17.85,-4.9,-84.805,5.0866679999999995,-0.959408,-1.208044,4
2024-06-14 09:12:51.979,54.004999999999995,-52.115,-73.36,4.616968,-0.754448,-1.22976,4
2024-06-14 09:12:51.984,93.8,-92.295,-63.105000000000004,4.139948,-0.49507599999999996,-1.35054,4
2024-06-14 09:12:51.989,102.06,-122.36000000000001,-53.025,3.7119720000000003,-0.26839999999999997,-1.457168,4
2024-06-14 09:12:51.994,91.56,-142.31,-41.825,3.3288919999999997,-0.10369999999999999,-1.504992,4
2024-06-14 09:12:51.998,75.53,-153.89499999999998,-28.805,2.99388,0.013663999999999999,-1.570872,4
2024-06-14 09:12:52.003,63.06999999999999,-110.46000000000001,-18.759999999999998,0.17372799999999966,0.282796,-5.5327,4
2024-06-14 09:12:52.008,61.98499999999999,-485.625,19.950000000000003,-3.038044,-2.089128,0.33013199999999987,0
