time,gyroscope_x,gyroscope_y,gyroscope_z,accelerometer_x,accelerometer_y,accelerometer_z,phase
2024-06-14 09:34:49.540,-89.985,-191.485,-61.004999999999995,-5.661531999999999,-0.387472,1.8565959999999997,1
2024-06-14 09:34:49.545,-148.61,-240.51999999999998,-46.480000000000004,-4.786304,-0.29475199999999996,0.229604,1
2024-06-14 09:34:49.550,-120.92500000000001,-305.655,-35.629999999999995,-1.3976320000000002,-0.17397200000000002,-1.3563960000000002,1
2024-06-14 09:34:49.555,-104.965,-316.47,-41.93,0.694912,-0.31622399999999995,-2.0049479999999997,1
2024-06-14 09:34:49.560,-76.02000000000001,-329.105,-60.235,2.633492,-0.30963599999999997,-1.487912,1
2024-06-14 09:34:49.565,-39.41,-340.13,-79.87,1.9837200000000001,-0.16128399999999998,-1.4339879999999998,1
2024-06-14 09:34:49.569,14.42,-312.40999999999997,-94.955,0.21350000000000002,-0.19788399999999998,-1.9939679999999997,1
2024-06-14 09:34:49.574,59.815,-269.395,-100.065,-0.8866959999999999,0.183244,-1.982744,1
2024-06-14 09:34:49.579,54.53,-249.375,-87.36,-0.493612,0.612196,-1.957856,1
2024-06-14 09:34:49.584,29.085,-240.695,-57.82,0.039528,0.725412,-1.86416,1
2024-06-14 09:34:49.589,4.62,-250.565,-25.619999999999997,0.2740119999999999,0.6405,-1.753384,1
2024-06-14 09:34:49.594,-8.225,-257.88,-2.4149999999999996,0.09028,0.405528,-1.582584,1
2024-06-14 09:34:49.598,-9.379999999999999,-245.875,10.29,-0.19276,0.13541999999999998,-1.4884,1
2024-06-14 09:34:49.603,-9.52,-218.365,14.735,-0.145424,-0.047824,-1.46278,1
2024-06-14 09:34:49.608,-18.375,-205.83499999999998,8.89,-0.006587999999999999,-0.31964000000000004,-1.544276,1
2024-06-14 09:34:49.613,-14.28,-198.625,-4.76,0.012199999999999999,-0.43090399999999995,-1.4732720000000001,1
2024-06-14 09:34:49.618,-11.760000000000002,-182.315,-25.27,-0.004392,-0.425048,-1.63236,1
2024-06-14 09:34:49.623,-10.745000000000001,-158.515,-41.019999999999996,0.0019519999999999997,-0.191784,-1.46034,1
2024-06-14 09:34:49.628,-6.3,-132.01999999999998,-43.575,0.040748,0.071004,-1.502552,1
2024-06-14 09:34:49.632,-14.945,-99.25999999999999,-36.225,0.11833999999999999,0.205936,-1.486936,1
2024-06-14 09:34:49.637,-16.765,-58.87,-16.240000000000002,0.03294,0.01122399999999997,-1.250744,2
2024-06-14 09:34:49.642,-13.265,-49.245000000000005,-10.325,0.098576,-0.06222,-1.258064,2
2024-06-14 09:34:49.647,-6.265000000000001,-32.97,-11.655000000000001,0.10614,-0.032452,-1.216828,2
2024-06-14 09:34:49.652,-3.745,-27.86,-11.725000000000001,-0.043676,-0.038796,-1.0677439999999998,2
2024-06-14 09:34:49.657,-4.199999999999999,-24.36,-9.065,-0.101504,-0.007319999999999999,-1.009428,2
2024-06-14 09:34:49.661,-4.62,-20.265,-5.915,-0.06783199999999999,-0.016836,-0.993812,2
2024-06-14 09:34:49.666,-3.465,-15.715,-4.585,-0.018056,-0.02684,-1.03212,2
2024-06-14 09:34:49.671,-2.065,-12.355,-4.550000000000001,-0.025132,-0.048068,-1.03822,2
2024-06-14 09:34:49.676,-1.47,-11.41,-4.27,-0.048312,-0.0427,-1.027484,2
2024-06-14 09:34:49.681,-1.6099999999999999,-11.2,-3.43,-0.065392,-0.031476,-1.013576,2
2024-06-14 09:34:49.686,-1.68,-10.36,-2.415,-0.06222,-0.026108,-1.0133320000000001,2
2024-06-14 09:34:49.691,-1.365,-9.17,-2.0300000000000002,-0.06709999999999999,-0.03904,-1.0060120000000001,2
2024-06-14 09:34:49.695,-1.19,-6.859999999999999,-1.505,-0.05660799999999999,-0.038308,-1.020652,2
2024-06-14 09:34:49.700,-1.575,-7.0,-0.8049999999999999,-0.05538799999999999,-0.036112,-1.01626,2
2024-06-14 09:34:49.705,-1.96,-7.665,-0.10499999999999998,-0.061487999999999994,-0.033672,-1.01504,2
2024-06-14 09:34:49.713,-2.38,-8.05,-0.105,-0.06734399999999999,-0.049044000000000004,-1.0091839999999999,2
2024-06-14 09:34:49.718,-3.045,-8.75,0.035,-0.061244,-0.053192,-1.005768,2
2024-06-14 09:34:49.723,-3.885,-9.485,0.105,-0.05246,-0.048799999999999996,-1.000156,2
2024-06-14 09:34:49.727,-4.375,-9.905000000000001,0.07,-0.054655999999999996,-0.05246,-0.99552,2
2024-06-14 09:34:49.732,-4.795,-9.66,0.175,-0.060756,-0.050996,-0.99552,2
2024-06-14 09:34:49.737,-5.11,-10.08,0.035,-0.067832,-0.057339999999999995,-0.9913719999999999,2
2024-06-14 09:34:49.742,-4.9,-10.745000000000001,-0.175,-0.063928,-0.053436,-0.9935679999999999,2
2024-06-14 09:34:49.747,-4.6899999999999995,-12.844999999999999,-0.77,-0.059292,-0.047824,-1.0030839999999999,2
2024-06-14 09:34:49.751,-4.970000000000001,-14.105,-0.8049999999999999,-0.055388,-0.04148,-1.003084,2
2024-06-14 09:34:49.756,-4.795,-14.875,-0.56,-0.050019999999999995,-0.025619999999999997,-1.006256,2
2024-06-14 09:34:49.761,-4.445,-14.875,-0.735,-0.052216,-0.028059999999999998,-1.0047920000000001,2
2024-06-14 09:34:49.766,-3.955,-15.575,-0.9450000000000001,-0.042943999999999996,-0.02928,-1.00406,2
2024-06-14 09:34:49.771,-3.675,-16.134999999999998,-0.98,-0.046116,-0.033184000000000005,-1.006988,2
2024-06-14 09:34:49.776,-3.255,-16.939999999999998,-0.77,-0.046848,-0.034159999999999996,-1.0128439999999999,2
2024-06-14 09:34:49.780,-3.045,-17.92,-0.63,-0.047091999999999995,-0.036356,-1.00772,2
2024-06-14 09:34:49.785,-3.1500000000000004,-18.305,-0.63,-0.043676000000000006,-0.036844,-1.0084520000000001,2
2024-06-14 09:34:49.790,-3.01,-19.880000000000003,-0.49,-0.04026,-0.037576,-1.0065,2
2024-06-14 09:34:49.795,-3.22,-20.195,-0.49,-0.038064,-0.04148,-1.0030839999999999,2
2024-06-14 09:34:49.800,-3.2199999999999998,-21.63,-0.42,-0.040260000000000004,-0.0427,-1.00772,2
2024-06-14 09:34:49.804,-3.045,-22.155,-0.27999999999999997,-0.038307999999999995,-0.038552,-1.0065,2
2024-06-14 09:34:49.809,-3.64,-22.12,-0.14,-0.033671999999999994,-0.041236,-1.007476,2
2024-06-14 09:34:49.814,-3.99,-22.82,-0.035,-0.03294,-0.034404000000000004,-1.0065,2
2024-06-14 09:34:49.819,-4.55,-20.405,0.10500000000000001,-0.033916,-0.036599999999999994,-1.00772,2
2024-06-14 09:34:49.824,-2.38,-29.47,0.49,-0.032451999999999995,-0.03782,-1.01626,2
2024-06-14 09:34:49.829,-4.83,-20.475,0.21000000000000002,-0.03416,-0.048068,-1.0104039999999999,2
2024-06-14 09:34:49.833,-2.59,6.335000000000001,0.8049999999999999,-0.036112000000000005,-0.046116,-1.009672,2
2024-06-14 09:34:49.838,-8.61,-22.61,1.05,-0.02806,-0.049776,-1.010648,2
2024-06-14 09:34:49.843,-6.195,-21.875,1.4000000000000001,-0.024888,-0.052947999999999995,-1.0065,2
2024-06-14 09:34:49.848,-8.61,-20.509999999999998,1.54,-0.017324,-0.056852,-1.001132,2
2024-06-14 09:34:49.853,-9.309999999999999,-18.83,1.68,-0.0183,-0.0549,-0.999424,2
2024-06-14 09:34:49.857,-8.785,-17.919999999999998,2.3449999999999998,-0.013176,-0.052704,-1.01504,2
2024-06-14 09:34:49.862,-10.395,-17.92,3.15,-0.014884000000000001,-0.048799999999999996,-1.002108,2
2024-06-14 09:34:49.867,-9.905000000000001,-16.869999999999997,3.71,-0.013663999999999999,-0.053192,-0.99796,2
2024-06-14 09:34:49.872,-10.605,-16.625,4.235,-0.011467999999999999,-0.050508,-0.998936,2
2024-06-14 09:34:49.877,-10.99,-15.995,4.27,-0.008296,-0.044896000000000005,-1.00162,2
2024-06-14 09:34:49.882,-10.675,-16.135,4.34,-0.015127999999999999,-0.036112000000000005,-1.00406,2
2024-06-14 09:34:49.886,-11.48,-16.905,4.655,-0.013908,-0.041968,-1.005768,2
2024-06-14 09:34:49.891,-11.34,-18.2,5.04,-0.010248,-0.037332000000000004,-1.0189439999999998,2
2024-06-14 09:34:49.896,-11.165,-19.950000000000003,5.390000000000001,-0.0029279999999999996,-0.036112,-1.0177239999999999,2
2024-06-14 09:34:49.901,-11.690000000000001,-21.384999999999998,5.5649999999999995,-0.000976,-0.025619999999999997,-1.0177239999999999,2
2024-06-14 09:34:49.906,-12.18,-22.4,5.390000000000001,-0.00048800000000000004,-0.023424,-1.02114,2
2024-06-14 09:34:49.911,-13.405000000000001,-23.73,5.18,-0.00122,-0.014884000000000001,-1.024556,2
2024-06-14 09:34:49.915,-14.455,-25.165,5.04,0.0024400000000000003,-0.00854,-1.024556,2
2024-06-14 09:34:49.920,-17.255000000000003,-27.265,4.27,-0.001464,0.0026839999999999998,-1.0374880000000002,2
2024-06-14 09:34:49.925,-21.84,-29.33,3.2199999999999998,-0.0046359999999999995,0.007076,-1.0670119999999998,2
2024-06-14 09:34:49.930,-25.795,-33.075,2.5549999999999997,0.002928,-0.026596,-1.03212,2
2024-06-14 09:34:49.935,-27.195,-36.54,2.45,0.006588,-0.029036,-1.052128,2
2024-06-14 09:34:49.939,-30.905,-40.495,2.135,0.0053679999999999995,-0.033184000000000005,-1.077504,2
2024-06-14 09:34:49.944,-37.765,-47.495000000000005,1.75,0.015127999999999999,-0.11077600000000001,-1.048956,2
2024-06-14 09:34:49.949,-32.06,-57.995000000000005,4.6899999999999995,0.008296,-0.117364,-1.0884840000000002,2
2024-06-14 09:34:49.954,-24.465,-62.44,6.615,-0.010248,0.029524,-1.249768,2
2024-06-14 09:34:49.959,-9.940000000000001,-56.91,6.125,-0.02074,0.156404,-1.373964,2
2024-06-14 09:34:49.964,-4.9350000000000005,-64.92500000000001,4.865,-0.010003999999999999,0.026108,-1.205848,2
2024-06-14 09:34:49.968,2.835,-68.94999999999999,5.18,0.010248,0.057095999999999994,-1.2077999999999998,2
2024-06-14 09:34:49.973,6.720000000000001,-74.025,3.955,0.012932,0.075152,-1.23952,2
2024-06-14 09:34:49.978,11.83,-78.61000000000001,3.185,0.009271999999999999,0.056364,-1.2514759999999998,2
2024-06-14 09:34:49.983,16.975,-84.56,2.555,0.011224,0.069784,-1.2805119999999999,2
2024-06-14 09:34:49.988,21.42,-91.28,1.295,0.015372,0.064416,-1.301496,2
2024-06-14 09:34:49.992,28.21,-98.315,0.77,0.005856,0.071736,-1.3793319999999998,3
2024-06-14 09:34:49.997,33.565,-105.97999999999999,-0.21,0.01342,0.046604,-1.38104,3
2024-06-14 09:34:50.002,38.78,-114.66,-0.105,0.002928,0.017812,-1.429352,3
2024-06-14 09:34:50.007,42.875,-124.91499999999999,0.105,0.00488,0.004392,-1.45424,3
2024-06-14 09:34:50.012,42.14,-134.435,0.385,-0.001952,0.010735999999999999,-1.5228039999999998,3
2024-06-14 09:34:50.017,41.614999999999995,-143.885,0.56,0.005856,-0.028059999999999998,-1.483276,3
2024-06-14 09:34:50.021,49.315,-151.27,1.925,0.00488,-0.01586,-1.501576,3
2024-06-14 09:34:50.026,55.370000000000005,-159.845,2.4850000000000003,0.010492,0.027816,-1.495476,3
2024-06-14 09:34:50.031,54.215,-171.185,2.0300000000000002,0.010248,0.0021960000000000005,-1.4935239999999999,3
2024-06-14 09:34:50.036,59.08,-179.655,1.54,0.012931999999999999,0.009272,-1.460828,3
2024-06-14 09:34:50.041,63.42,-190.89,1.5750000000000002,0.019032,0.039772,-1.4776639999999999,3
2024-06-14 09:34:50.045,70.77,-200.76,1.855,0.027084,0.062464,-1.5145080000000002,3
2024-06-14 09:34:50.050,75.63499999999999,-213.325,1.225,-0.002196,0.05831599999999999,-1.52256,3
2024-06-14 09:34:50.055,77.245,-224.7,1.085,0.009028,0.014639999999999999,-1.562576,3
2024-06-14 09:34:50.060,77.91,-235.095,1.855,-0.004148,-0.037087999999999996,-1.608204,3
2024-06-14 09:34:50.065,78.47,-252.0,3.675,-0.019276,-0.111508,-1.636752,3
2024-06-14 09:34:50.070,78.61,-269.78,6.965,-0.025132,-0.17275200000000002,-1.677012,3
2024-06-14 09:34:50.074,79.205,-287.42,11.375,-0.039040000000000005,-0.216428,-1.6850640000000001,3
2024-06-14 09:34:50.079,79.765,-306.565,16.555,-0.06124399999999999,-0.24766,-1.695312,3
2024-06-14 09:34:50.084,80.00999999999999,-327.11,21.735,-0.07222400000000001,-0.232288,-1.7751000000000001,3
2024-06-14 09:34:50.089,82.66999999999999,-349.29999999999995,26.04,-0.074664,-0.139568,-1.893684,3
2024-06-14 09:34:50.094,82.63499999999999,-374.605,28.35,-0.066368,-0.09662399999999999,-1.96054,3
2024-06-14 09:34:50.098,81.19999999999999,-399.56,30.625,-0.052216,-0.183,-2.0110479999999997,3
2024-06-14 09:34:50.103,79.24000000000001,-426.615,35.315,-0.007319999999999999,-0.284992,-2.0366679999999997,3
2024-06-14 09:34:50.108,78.295,-449.855,39.83,0.045872,-0.32134799999999997,-2.19966,3
2024-06-14 09:34:50.113,81.165,-469.41999999999996,42.665000000000006,0.152744,-0.2257,-2.404864,3
2024-06-14 09:34:50.118,75.66999999999999,-480.725,41.019999999999996,0.288164,-0.034648,-2.68156,3
2024-06-14 09:34:50.123,73.00999999999999,-498.54,32.375,0.254004,0.180804,-2.833328,3
2024-06-14 09:34:50.127,64.365,-503.58000000000004,22.189999999999998,0.2135,0.17836400000000002,-2.92434,3
2024-06-14 09:34:50.132,60.760000000000005,-511.0,11.129999999999999,0.305,0.067588,-2.9497160000000004,3
2024-06-14 09:34:50.137,67.305,-510.72,2.485,0.36624399999999996,0.015615999999999998,-3.0009559999999995,3
2024-06-14 09:34:50.142,62.510000000000005,-511.17499999999995,-2.17,0.256444,-0.042212,-2.9899760000000004,3
2024-06-14 09:34:50.147,67.655,-513.24,-1.155,0.12858799999999998,-0.11053199999999999,-2.8896919999999997,3
2024-06-14 09:34:50.151,65.13499999999999,-515.7249999999999,-0.21000000000000002,0.08296,-0.139812,-2.897256,3
2024-06-14 09:34:50.156,65.03,-514.745,1.225,0.223016,-0.13663999999999998,-2.8591919999999997,3
2024-06-14 09:34:50.161,61.67,-520.135,2.59,0.262056,-0.16592,-2.5602919999999996,3
2024-06-14 09:34:50.166,68.285,-529.3050000000001,6.09,0.097112,-0.19032,-2.689856,3
2024-06-14 09:34:50.171,77.63,-524.755,12.844999999999999,0.213988,-0.34648,-2.711328,3
2024-06-14 09:34:50.176,76.265,-510.15999999999997,11.69,-0.06417199999999999,-0.47262800000000005,-2.968504,3
2024-06-14 09:34:50.180,88.2,-489.44,13.440000000000001,-0.393084,-0.47824,-2.706448,3
2024-06-14 09:34:50.185,110.775,-446.81,20.685000000000002,-0.876692,-0.541436,-2.343864,4
2024-06-14 09:34:50.190,130.2,-392.245,31.395,-1.348832,-0.46555199999999997,-1.7748559999999998,4
2024-06-14 09:34:50.195,136.57,-336.66499999999996,44.765,-1.785348,-0.431148,-1.528416,4
2024-06-14 09:34:50.200,136.255,-283.99,58.835,-2.230648,-0.314272,-1.3175999999999999,4
2024-06-14 09:34:50.204,126.63,-221.76,79.695,-2.23016,-0.078812,-1.195356,4
2024-06-14 09:34:50.209,99.925,-182.175,93.41499999999999,-1.184132,-0.262544,-0.7583519999999999,4
2024-06-14 09:34:50.214,47.18,-167.755,87.15,-0.938912,-0.162748,-1.13338,4
2024-06-14 09:34:50.219,16.205,-67.34,78.155,-1.7934,0.053191999999999996,-1.728252,4
2024-06-14 09:34:50.224,2.0300000000000002,30.134999999999998,68.075,-2.0115360000000004,0.24326799999999998,-1.2392759999999998,4
2024-06-14 09:34:50.229,-23.73,85.68,57.47,-1.630896,0.146644,-1.034072,4
2024-06-14 09:34:50.233,-62.019999999999996,124.11,48.265,-1.406904,-0.025376,-1.263676,4
2024-06-14 09:34:50.238,-84.45500000000001,156.73000000000002,44.065,-1.3541999999999998,-0.141764,-1.38104,4
2024-06-14 09:34:50.243,-84.63,179.655,45.010000000000005,-1.280756,-0.25864000000000004,-1.300276,4
2024-06-14 09:34:50.248,-75.11,195.405,49.56,-1.1873040000000001,-0.328912,-1.146068,4
2024-06-14 09:34:50.253,-65.345,208.70499999999998,54.985,-1.1346,-0.32256799999999997,-1.003328,4
2024-06-14 09:34:50.256,-56.629999999999995,221.82999999999998,59.92,-1.102636,-0.296948,-0.894504,4
2024-06-14 09:34:50.260,-48.965,235.34,64.19,-1.059692,-0.24595199999999998,-0.807152,4
2024-06-14 09:34:50.265,-43.995,249.79500000000002,67.16499999999999,-1.011868,-0.175924,-0.749568,4
2024-06-14 09:34:50.270,-43.085,265.33500000000004,68.81,-0.970388,-0.08832799999999999,-0.704916,4
2024-06-14 09:34:50.275,-46.480000000000004,281.435,68.985,-0.930372,-0.01586,-0.681492,4
2024-06-14 09:34:50.280,-53.725,297.67499999999995,68.215,-0.89304,0.049044,-0.6685599999999999,4
2024-06-14 09:34:50.285,-64.05,313.425,66.28999999999999,-0.8483879999999999,0.104432,-0.674904,4
2024-06-14 09:34:50.289,-75.565,328.23,63.980000000000004,-0.792756,0.134932,-0.7019880000000001,4
2024-06-14 09:34:50.294,-87.00999999999999,341.355,61.95,-0.74176,0.142252,-0.738588,4
2024-06-14 09:34:50.299,-96.74000000000001,352.87,60.445,-0.674172,0.126636,-0.784948,4
2024-06-14 09:34:50.304,-104.16,362.07500000000005,60.13,-0.637084,0.08906,-0.822768,4
2024-06-14 09:34:50.309,-107.975,369.985,60.9,-0.5814520000000001,0.04489599999999999,-0.864248,4
2024-06-14 09:34:50.314,-108.535,375.865,62.405,-0.5070319999999999,-0.0019520000000000002,-0.906948,4
2024-06-14 09:34:50.318,-106.25999999999999,380.41499999999996,64.4,-0.46848,-0.050019999999999995,-0.9384239999999999,4
2024-06-14 09:34:50.323,-100.45,385.175,67.06,-0.445544,-0.086376,-0.957212,4
2024-06-14 09:34:50.328,-92.435,390.495,70.385,-0.425536,-0.11346,-0.97356,4
2024-06-14 09:34:50.333,-83.58,396.06,73.78,-0.405772,-0.1281,-1.009916,4
2024-06-14 09:34:50.338,-74.41,401.16999999999996,76.895,-0.372344,-0.13054,-1.055056,4
2024-06-14 09:34:50.343,-65.625,404.985,79.555,-0.34038,-0.13200399999999998,-1.114592,4
2024-06-14 09:34:50.347,-57.015,407.19,81.41,-0.31354000000000004,-0.12248799999999999,-1.165588,4
2024-06-14 09:34:50.352,-49.875,407.89,82.14500000000001,-0.27059599999999995,-0.100772,-1.202432,4
2024-06-14 09:34:50.357,-43.47,408.31,82.11,-0.233508,-0.08662,-1.255868,4
2024-06-14 09:34:50.362,-37.205,408.31,81.06,-0.208376,-0.08417999999999999,-1.2975919999999999,4
2024-06-14 09:34:50.367,-31.57,408.03,79.275,-0.18690400000000001,-0.088084,-1.35908,4
2024-06-14 09:34:50.372,-26.075,408.41499999999996,76.545,-0.144204,-0.088084,-1.3829919999999998,4
2024-06-14 09:34:50.376,-20.16,409.885,72.345,-0.13176,-0.099552,-1.494012,4
2024-06-14 09:34:50.381,-10.08,411.985,68.775,-0.139812,-0.13907999999999998,-1.583804,4
2024-06-14 09:34:50.386,-0.03499999999999992,413.14,64.54,-0.11541199999999999,-0.152744,-1.613572,4
2024-06-14 09:34:50.391,10.08,414.33000000000004,60.585,-0.12102399999999999,-0.175192,-1.674328,4
2024-06-14 09:34:50.396,18.13,416.605,56.525,-0.13102799999999998,-0.168848,-1.7299600000000002,4
2024-06-14 09:34:50.401,26.075,418.25,52.43,-0.13663999999999998,-0.16713999999999998,-1.8221919999999998,4
2024-06-14 09:34:50.405,33.11,419.72,48.370000000000005,-0.12858799999999998,-0.16738399999999998,-1.904176,4
2024-06-14 09:34:50.410,39.724999999999994,421.47,44.135,-0.131272,-0.16006399999999998,-1.983476,4
2024-06-14 09:34:50.415,45.394999999999996,422.765,40.040000000000006,-0.141276,-0.16860399999999998,-2.07644,4
2024-06-14 09:34:50.420,51.1,424.095,36.68,-0.143716,-0.18470799999999998,-2.1752599999999997,4
2024-06-14 09:34:50.425,57.715,425.53,34.370000000000005,-0.142984,-0.209352,-2.306776,4
2024-06-14 09:34:50.430,66.08,427.56,33.95,-0.127612,-0.236436,-2.45342,4
2024-06-14 09:34:50.434,75.775,430.15,34.79,-0.08759600000000001,-0.245708,-2.6034800000000002,4
2024-06-14 09:34:50.439,85.015,433.125,35.84,-0.019032,-0.23643599999999998,-2.7569559999999997,4
2024-06-14 09:34:50.444,92.19,436.275,36.295,0.073444,-0.235216,-2.898964,4
2024-06-14 09:34:50.449,97.09,438.305,35.665,0.191784,-0.23546,-3.027064,4
2024-06-14 09:34:50.454,100.625,439.355,33.459999999999994,0.34038,-0.229116,-3.1073399999999998,4
2024-06-14 09:34:50.459,105.14,439.32000000000005,29.505000000000003,0.4758,-0.19885999999999998,-3.1622399999999997,4
2024-06-14 09:34:50.463,114.065,437.22,24.465000000000003,0.619272,-0.188856,-3.269112,4
2024-06-14 09:34:50.468,123.725,434.245,18.585,0.804956,-0.160796,-3.37208,4
2024-06-14 09:34:50.473,130.41,428.4,10.5,0.99674,-0.11175199999999999,-3.454308,4
2024-06-14 09:34:50.478,134.26,420.105,0.875,1.199992,-0.073688,-3.522628,4
2024-06-14 09:34:50.483,135.87,410.095,-10.185,1.4449679999999998,-0.019764,-3.545808,4
2024-06-14 09:34:50.488,137.16500000000002,397.39,-22.015,1.724104,0.024155999999999997,-3.5477600000000002,4
2024-06-14 09:34:50.493,139.72,383.005,-33.845,2.0415479999999997,0.057095999999999994,-3.50506,4
2024-06-14 09:34:50.497,143.43,366.24,-44.45,2.392176,0.08710799999999999,-3.4221,4
2024-06-14 09:34:50.502,146.755,346.605,-54.39,2.7623240000000004,0.131516,-3.299124,4
2024-06-14 09:34:50.507,145.775,323.155,-65.13499999999999,3.131008,0.2135,-3.111732,4
2024-06-14 09:34:50.512,137.585,296.16999999999996,-77.07,3.4899319999999996,0.30012,-2.8687080000000003,4
2024-06-14 09:34:50.517,120.96000000000001,264.81,-89.6,3.805668,0.338184,-2.588596,4
2024-06-14 09:34:50.522,101.08,229.81,-99.68,4.05772,0.284504,-2.290428,4
2024-06-14 09:34:50.526,86.975,193.235,-103.145,4.252675999999999,0.17592399999999997,-1.994456,4
2024-06-14 09:34:50.531,90.755,159.53,-97.93,4.527176,0.12468399999999999,-1.823168,4
2024-06-14 09:34:50.536,108.745,130.445,-85.96000000000001,4.758732,0.090768,-1.705072,4
2024-06-14 09:34:50.541,122.60499999999999,102.795,-71.925,4.912208,0.21227999999999997,-1.619672,4
2024-06-14 09:34:50.546,126.595,75.63499999999999,-59.675,5.067636,0.434076,-1.55306,4
2024-06-14 09:34:50.551,121.065,46.97,-50.155,5.168163999999999,0.5953600000000001,-1.578192,4
2024-06-14 09:34:50.555,106.33,14.105,-43.155,5.112776,0.7485919999999999,-1.615768,4
2024-06-14 09:34:50.560,85.92500000000001,-23.099999999999998,-38.989999999999995,4.93368,0.894992,-1.6277239999999997,4
2024-06-14 09:34:50.565,60.445,-61.67,-38.22,4.66772,0.951356,-1.654564,4
2024-06-14 09:34:50.570,31.64,-99.155,-40.95,4.300256000000001,0.979904,-1.6857959999999999,4
2024-06-14 09:34:50.575,4.76,-130.41,-46.41,3.8959479999999997,0.9008480000000001,-1.707268,4
2024-06-14 09:34:50.580,-18.9,-155.89,-53.724999999999994,3.473828,0.7317560000000001,-1.7250800000000002,4
2024-06-14 09:34:50.584,-44.345,-182.98000000000002,-60.375,2.880908,0.00024400000000002198,-1.319308,4
