time,gyroscope_x,gyroscope_y,gyroscope_z,accelerometer_x,accelerometer_y,accelerometer_z,phase
2024-06-14 12:20:56.039,316.19,-211.95999999999998,-46.445,-3.62828,1.762168,5.200372000000001,1
2024-06-14 12:20:56.044,403.235,-261.73,-50.75,-0.988932,0.12956399999999998,-1.095316,1
2024-06-14 12:20:56.049,430.15,-290.78,-40.144999999999996,-1.159488,-0.096136,-1.32126,1
2024-06-14 12:20:56.054,417.2,-323.225,-23.415,0.21106,0.06344,-1.9734720000000001,1
2024-06-14 12:20:56.058,340.935,-334.53,3.43,0.351848,-0.288164,-2.7306039999999996,1
2024-06-14 12:20:56.063,203.035,-336.45500000000004,31.045,0.363316,-0.71736,-2.5127119999999996,1
2024-06-14 12:20:56.068,104.475,-327.32000000000005,50.68,0.410164,-0.5936520000000001,-2.41194,1
2024-06-14 12:20:56.073,32.864999999999995,-310.31,57.435,0.3721,-0.6397679999999999,-2.46806,1
2024-06-14 12:20:56.078,14.63,-285.39,41.195,0.30256000000000005,-0.902068,-2.677168,1
2024-06-14 12:20:56.083,16.064999999999998,-247.1,4.584999999999999,0.202276,-0.7773840000000001,-2.441952,2
2024-06-14 12:20:56.087,21.98,-215.95,-23.975,0.181048,-0.372344,-2.3643599999999996,2
2024-06-14 12:20:56.092,11.725000000000001,-191.555,-31.115000000000002,0.07783599999999999,0.022692,-1.97884,2
2024-06-14 12:20:56.097,-1.505,-163.27499999999998,-16.450000000000003,0.192272,0.283772,-1.798768,2
2024-06-14 12:20:56.102,0.6649999999999998,-135.52,8.785,0.21716000000000002,0.44578799999999996,-1.772904,2
2024-06-14 12:20:56.107,7.3149999999999995,-110.005,28.385,0.15762400000000001,0.260592,-1.53354,2
2024-06-14 12:20:56.112,13.545,-93.94,33.879999999999995,0.078812,0.037576,-1.3766479999999999,2
2024-06-14 12:20:56.117,12.25,-79.275,29.785000000000004,0.025375999999999996,-0.14932800000000002,-1.2514759999999998,2
2024-06-14 12:20:56.121,9.275,-61.88,19.67,-0.00048799999999999885,-0.192272,-1.1370399999999998,2
2024-06-14 12:20:56.126,5.215,-47.74,10.29,0.016592000000000003,-0.08832799999999999,-1.1287439999999997,2
2024-06-14 12:20:56.131,4.375,-36.47,7.3149999999999995,0.055632,0.018543999999999998,-1.138992,2
2024-06-14 12:20:56.136,5.6,-28.28,9.59,0.100284,0.08296,-1.1733959999999999,2
2024-06-14 12:20:56.141,8.61,-26.705,11.059999999999999,0.12541599999999997,0.070272,-1.146312,2
2024-06-14 12:20:56.146,9.975,-23.064999999999998,8.995000000000001,0.06222,-0.015372,-1.114836,2
2024-06-14 12:20:56.150,8.575,-21.735,3.955,0.019276,-0.063196,-1.115812,2
2024-06-14 12:20:56.155,4.795,-21.700000000000003,0.10500000000000004,-0.010735999999999999,-0.049776,-1.109224,2
2024-06-14 12:20:56.160,0.28,-20.09,-1.295,-0.018056,-0.009028000000000001,-1.086044,2
2024-06-14 12:20:56.165,-1.155,-21.035,-1.085,-0.027572,0.022447999999999996,-1.0604239999999998,2
2024-06-14 12:20:56.170,-0.84,-22.365000000000002,-1.33,-0.039284,0.029523999999999998,-1.047004,2
2024-06-14 12:20:56.175,0.455,-25.13,-2.065,-0.038552,0.027083999999999997,-1.0431,2
2024-06-14 12:20:56.180,1.96,-27.72,-2.87,-0.047336,0.013419999999999998,-1.046516,2
2024-06-14 12:20:56.184,2.135,-29.645,-3.01,-0.027327999999999998,0.012444,-1.05652,2
2024-06-14 12:20:56.189,1.47,-32.025,-3.185,-0.033671999999999994,-0.010003999999999999,-1.065304,2
2024-06-14 12:20:56.194,-0.5950000000000001,-33.635,-3.6399999999999997,-0.05734,-0.015371999999999999,-1.072136,2
2024-06-14 12:20:56.199,-2.59,-35.665,-3.6399999999999997,-0.035624,-0.01098,-1.0716480000000002,2
2024-06-14 12:20:56.204,-4.655,-38.010000000000005,-3.8149999999999995,-0.0549,-0.011467999999999999,-1.079456,2
2024-06-14 12:20:56.209,-6.335,-40.95,-3.885,-0.05660799999999999,-0.010004,-1.0796999999999999,2
2024-06-14 12:20:56.213,-7.175,-43.855000000000004,-3.92,-0.035868,-0.010736,-1.075552,2
2024-06-14 12:20:56.218,-8.155000000000001,-45.815,-3.955,-0.035136,-0.00366,-1.0653039999999998,2
2024-06-14 12:20:56.223,-8.96,-48.125,-3.8499999999999996,-0.008539999999999999,-0.00024399999999999943,-1.053836,2
2024-06-14 12:20:56.228,-9.870000000000001,-48.545,-3.78,-0.019276,0.0012199999999999997,-1.049932,2
2024-06-14 12:20:56.233,-10.29,-49.665,-3.78,-0.011467999999999999,0.0075639999999999995,-1.0548119999999999,2
2024-06-14 12:20:56.238,-10.535,-52.325,-3.815,-0.033428,0.019764,-1.055056,2
2024-06-14 12:20:56.243,-3.29,-80.5,-3.955,0.005368000000000005,0.02196,-1.06872,2
2024-06-14 12:20:56.247,-9.835,-53.095,-3.605,-0.023912,0.028548,-1.059692,2
2024-06-14 12:20:56.252,-9.275,-55.58,-3.29,-0.014396000000000006,0.006344000000000002,-1.072624,2
2024-06-14 12:20:56.257,-8.015,-59.78,-3.85,0.033916,0.0732,-1.006988,2
2024-06-14 12:20:56.262,-6.16,-61.32,-4.515,-0.091744,-0.0048799999999999955,-1.0931199999999999,2
2024-06-14 12:20:56.267,-4.62,-62.72,-4.095,0.141764,0.073688,-0.9969840000000001,2
2024-06-14 12:20:56.272,-1.855,-63.629999999999995,-3.8499999999999996,0.110044,0.025376000000000003,-1.024556,2
2024-06-14 12:20:56.276,-37.1,65.13499999999999,-9.975,0.10126,0.048799999999999996,-0.960384,2
2024-06-14 12:20:56.281,-4.69,-25.06,-7.909999999999999,0.09296399999999999,0.053192,-0.99186,2
2024-06-14 12:20:56.286,8.469999999999999,-14.280000000000001,-4.409999999999999,0.06539199999999999,0.046116000000000004,-1.0018639999999999,2
2024-06-14 12:20:56.291,0.8399999999999999,-36.400000000000006,-1.6450000000000005,0.056608,0.030011999999999997,-1.016016,2
2024-06-14 12:20:56.296,6.16,-52.150000000000006,-3.3249999999999997,0.055632,0.02684,-1.032608,2
2024-06-14 12:20:56.301,5.495,-53.13,-7.07,0.056119999999999996,0.031964,-1.0313880000000002,2
2024-06-14 12:20:56.310,5.6,-52.71,-6.405,0.06539199999999999,0.032696,-1.026996,2
2024-06-14 12:20:56.314,7.595,-56.455,-3.2200000000000006,0.066856,0.018056,-1.0335839999999998,2
2024-06-14 12:20:56.319,7.665,-64.4,-2.835,0.070272,0.016592,-1.0426119999999999,2
2024-06-14 12:20:56.324,13.545,-60.129999999999995,-4.935,0.077836,0.007076,-1.0365119999999999,2
2024-06-14 12:20:56.329,12.004999999999999,-58.45,-5.390000000000001,0.092964,0.010248,-1.04066,2
2024-06-14 12:20:56.334,15.26,-58.135000000000005,-2.5549999999999997,0.072712,0.01342,-1.062864,2
2024-06-14 12:20:56.338,4.62,-60.199999999999996,-2.555,0.087352,-0.000976,-1.048712,2
2024-06-14 12:20:56.343,1.33,-59.745,-4.305,0.0793,0.00732,-1.1155680000000001,2
2024-06-14 12:20:56.348,-4.795,-57.54,-6.02,0.097844,0.005611999999999999,-1.04432,2
2024-06-14 12:20:56.353,-4.234999999999999,-55.894999999999996,-4.13,0.10345599999999999,0.019764,-1.0457839999999998,2
2024-06-14 12:20:56.358,-6.16,-53.97,-3.045,0.12248799999999999,0.013908,-1.0472479999999997,2
2024-06-14 12:20:56.362,-8.015,-53.55,-4.34,0.11834,0.017079999999999998,-1.036756,2
2024-06-14 12:20:56.367,-8.715,-51.17,-5.775,0.12688,0.017568,-1.0309,2
2024-06-14 12:20:56.372,-10.149999999999999,-49.629999999999995,-5.8100000000000005,0.12907599999999997,0.020007999999999998,-1.023336,2
2024-06-14 12:20:56.377,-10.43,-47.95,-4.97,0.133712,0.022691999999999997,-1.0311439999999998,2
2024-06-14 12:20:56.382,-10.57,-47.004999999999995,-4.9,0.134444,0.009271999999999999,-1.0291919999999999,2
2024-06-14 12:20:56.386,-12.18,-47.81,-6.265,0.13639600000000002,0.024644,-1.042856,2
2024-06-14 12:20:56.391,-14.559999999999999,-48.545,-6.859999999999999,0.147376,0.012688,-1.0128439999999999,2
2024-06-14 12:20:56.396,-16.134999999999998,-48.195,-6.545,0.150304,0.02318,-1.0335839999999998,2
2024-06-14 12:20:56.401,-15.995,-45.08,-6.02,0.146888,0.020739999999999998,-1.058716,2
2024-06-14 12:20:56.406,-15.925,-47.25,-6.615,0.13590799999999997,0.03172,-1.081652,2
2024-06-14 12:20:56.411,-16.03,-50.4,-7.175,0.14835199999999998,0.030255999999999998,-1.04554,2
2024-06-14 12:20:56.415,-14.84,-51.765,-6.79,0.152256,0.043432,-1.091412,2
2024-06-14 12:20:56.420,-14.07,-53.865,-6.86,0.1525,0.047335999999999996,-1.064816,2
2024-06-14 12:20:56.425,-12.46,-54.88,-7.5600000000000005,0.15176800000000001,0.05734,-1.103612,2
2024-06-14 12:20:56.430,-19.495,-61.39,-9.065000000000001,0.15054800000000002,0.071248,-1.2539159999999998,2
2024-06-14 12:20:56.435,-14.14,-68.565,-9.03,0.124928,0.041479999999999996,-1.171932,2
2024-06-14 12:20:56.439,-13.86,-71.995,-10.254999999999999,0.16104000000000002,0.07002799999999999,-1.1407,2
2024-06-14 12:20:56.444,-13.93,-75.775,-10.15,0.179828,0.031232000000000003,-1.143872,2
2024-06-14 12:20:56.449,-15.225000000000001,-76.89500000000001,-10.57,0.18422,0.040016,-1.2129240000000001,2
2024-06-14 12:20:56.454,-16.415,-82.53,-10.605,0.172264,0.032452,-1.259528,2
2024-06-14 12:20:56.459,-19.705,-90.195,-10.955,0.16958,0.049775999999999994,-1.2768519999999999,2
2024-06-14 12:20:56.463,-24.185000000000002,-101.04499999999999,-12.18,0.15933199999999997,0.10955599999999999,-1.5047479999999998,2
2024-06-14 12:20:56.468,-22.015,-108.43,-13.3,0.163236,0.06636800000000001,-1.311012,2
2024-06-14 12:20:56.473,-22.33,-115.045,-14.455,0.188124,0.097356,-1.34078,2
2024-06-14 12:20:56.478,-23.625,-122.64,-15.645,0.17714400000000002,0.070516,-1.3744519999999998,2
2024-06-14 12:20:56.483,-23.064999999999998,-131.005,-15.855,0.183,0.056364,-1.349564,2
2024-06-14 12:20:56.487,-23.66,-140.315,-15.96,0.190076,0.013663999999999999,-1.4176399999999998,2
2024-06-14 12:20:56.492,-24.745,-151.235,-16.1,0.194224,0.044896,-1.3949479999999999,2
2024-06-14 12:20:56.497,-28.91,-160.3,-16.73,0.22106399999999998,0.030011999999999997,-1.394948,2
2024-06-14 12:20:56.502,-31.464999999999996,-169.68,-17.009999999999998,0.18836799999999998,0.024399999999999998,-1.4586320000000002,2
2024-06-14 12:20:56.507,-34.614999999999995,-182.42000000000002,-17.465,0.20373999999999998,0.014151999999999998,-1.46156,2
2024-06-14 12:20:56.512,-36.82,-195.86,-17.745,0.19324799999999998,0.026352,-1.518656,2
2024-06-14 12:20:56.516,-40.004999999999995,-210.035,-18.515,0.198372,0.044408,-1.4764439999999999,2
2024-06-14 12:20:56.521,-41.019999999999996,-222.74,-19.11,0.193736,0.05124,-1.532076,2
2024-06-14 12:20:56.526,-41.72,-237.405,-20.02,0.18958799999999998,0.05489999999999999,-1.614792,2
2024-06-14 12:20:56.531,-44.905,-256.025,-20.79,0.19202799999999998,0.034648,-1.69092,2
2024-06-14 12:20:56.536,-50.54,-274.19,-21.665,0.194712,0.065392,-1.8195080000000001,3
2024-06-14 12:20:56.540,-53.235,-294.41999999999996,-22.82,0.1891,0.110532,-1.864892,3
2024-06-14 12:20:56.545,-55.825,-317.03,-24.605,0.177876,0.079056,-1.938336,3
2024-06-14 12:20:56.550,-52.185,-342.72,-26.215000000000003,0.172508,0.091256,-2.0500879999999997,3
2024-06-14 12:20:56.555,-53.69,-373.275,-28.525,0.144204,0.16299199999999997,-2.115724,3
2024-06-14 12:20:56.560,-58.135,-403.40999999999997,-31.71,0.16348000000000001,0.17519200000000001,-2.334592,3
2024-06-14 12:20:56.564,-60.620000000000005,-433.51,-33.88,0.217892,0.212524,-2.5878639999999997,3
2024-06-14 12:20:56.569,-60.515,-469.42,-36.05,0.25498,0.26961999999999997,-2.9228759999999996,3
2024-06-14 12:20:56.574,-60.2,-494.515,-36.504999999999995,0.284748,0.20691199999999998,-3.182248,3
2024-06-14 12:20:56.579,-58.1,-519.96,-33.53,0.399672,0.236924,-3.532388,3
2024-06-14 12:20:56.584,-53.129999999999995,-536.48,-33.355000000000004,0.34916400000000003,0.260836,-3.60022,3
2024-06-14 12:20:56.589,-49.665,-551.53,-34.3,0.402844,0.14713199999999999,-3.7637,3
2024-06-14 12:20:56.593,-40.39,-561.7149999999999,-30.625,0.487024,0.17324,-4.0460080000000005,3
2024-06-14 12:20:56.598,-44.485,-577.99,-30.975,0.29645999999999995,0.306708,-3.808108,3
2024-06-14 12:20:56.603,-40.215,-580.1600000000001,-35.0,0.155184,0.08125199999999999,-3.883992,3
2024-06-14 12:20:56.608,-11.690000000000001,-585.48,-33.739999999999995,0.277428,-0.052947999999999995,-4.037711999999999,3
2024-06-14 12:20:56.613,21.07,-602.21,-24.92,0.07539599999999999,0.204472,-3.8408040000000003,3
2024-06-14 12:20:56.617,29.259999999999998,-610.6800000000001,-21.07,-0.092476,0.6792959999999999,-3.4286879999999997,3
2024-06-14 12:20:56.622,9.975,-612.185,-28.28,-0.5072760000000001,0.8349679999999999,-3.00974,3
2024-06-14 12:20:56.627,-0.5950000000000002,-593.46,-37.03,-0.7668919999999999,0.744688,-2.7694,3
2024-06-14 12:20:56.632,-18.095,-564.9,-48.019999999999996,-1.253428,1.005524,-1.9934800000000001,3
2024-06-14 12:20:56.637,-36.365,-521.5350000000001,-51.975,-1.646024,1.1690040000000002,-2.095472,3
2024-06-14 12:20:56.641,-52.465,-506.97499999999997,-71.61,-1.613816,1.4718079999999998,-2.632516,3
2024-06-14 12:20:56.646,-98.805,-476.28,-97.72,-1.597712,1.421544,-2.5964039999999997,3
2024-06-14 12:20:56.651,-158.235,-433.82500000000005,-130.48000000000002,-1.783396,1.280756,-2.430728,3
2024-06-14 12:20:56.656,-213.01,-385.84000000000003,-179.79500000000002,-1.32858,1.114592,-2.077904,3
2024-06-14 12:20:56.661,-210.35,-383.845,-205.1,-0.695888,0.8720559999999999,-1.1101999999999999,3
2024-06-14 12:20:56.665,-176.08499999999998,-279.72,-210.595,-1.8844120000000002,0.314028,-1.411784,3
2024-06-14 12:20:56.670,-143.14999999999998,-126.35,-194.32,-2.772084,-0.350628,-1.256356,3
2024-06-14 12:20:56.675,-72.73,7.0,-149.485,-2.2404079999999995,-0.5377759999999999,-0.964532,3
2024-06-14 12:20:56.680,1.1899999999999995,103.63499999999999,-99.85499999999999,-1.784616,-0.501664,-1.3322399999999999,3
2024-06-14 12:20:56.685,53.865,185.535,-58.695,-1.774368,-0.49873599999999996,-1.452044,4
2024-06-14 12:20:56.690,91.525,246.155,-24.5,-1.6179640000000002,-0.255224,-1.351028,4
2024-06-14 12:20:56.694,119.56,284.83,-0.6300000000000001,-1.371524,-0.049044,-1.2975919999999999,4
2024-06-14 12:20:56.699,131.005,312.655,12.04,-1.25904,0.07783599999999999,-1.277828,4
2024-06-14 12:20:56.704,128.17000000000002,337.225,16.975,-1.218292,0.22350399999999998,-1.182424,4
2024-06-14 12:20:56.709,117.94999999999999,358.71500000000003,17.115000000000002,-1.119716,0.33672,-1.0960480000000001,4
2024-06-14 12:20:56.714,101.675,376.95,12.285,-1.021628,0.40504,-1.0777480000000002,4
2024-06-14 12:20:56.718,80.00999999999999,392.105,3.185,-0.972096,0.430416,-1.074332,4
2024-06-14 12:20:56.723,55.685,404.355,-8.19,-0.905484,0.41724000000000006,-1.0748199999999999,4
2024-06-14 12:20:56.728,31.85,411.95000000000005,-20.335,-0.811056,0.382592,-1.0692080000000002,4
2024-06-14 12:20:56.733,11.2,416.78,-32.480000000000004,-0.7517640000000001,0.310612,-1.05774,4
2024-06-14 12:20:56.738,-3.885,420.07000000000005,-43.19,-0.69662,0.221796,-1.0411480000000002,4
2024-06-14 12:20:56.742,-11.795,422.41499999999996,-52.185,-0.635132,0.125172,-1.057496,4
2024-06-14 12:20:56.747,-13.93,425.075,-59.045,-0.576328,0.017324000000000003,-1.0899480000000001,4
2024-06-14 12:20:56.752,-10.850000000000001,428.225,-63.735,-0.529968,-0.089792,-1.1236199999999998,4
2024-06-14 12:20:56.757,-3.045,431.76,-64.85499999999999,-0.499224,-0.18202400000000002,-1.156316,4
2024-06-14 12:20:56.762,8.575,435.225,-62.755,-0.48116800000000004,-0.247172,-1.2014559999999999,4
2024-06-14 12:20:56.767,21.91,439.495,-58.065,-0.475312,-0.26474,-1.2441559999999998,4
2024-06-14 12:20:56.771,35.42,443.94,-51.765,-0.46799199999999996,-0.250344,-1.279536,4
2024-06-14 12:20:56.776,46.760000000000005,448.735,-44.66,-0.46603999999999995,-0.190076,-1.332972,4
2024-06-14 12:20:56.781,54.845,453.67,-37.905,-0.454816,-0.09418399999999999,-1.3893360000000001,4
2024-06-14 12:20:56.786,58.765,458.29,-32.27,-0.429196,-0.0012200000000000006,-1.452532,4
2024-06-14 12:20:56.791,59.57,462.945,-27.125,-0.407724,0.093696,-1.484252,4
2024-06-14 12:20:56.795,56.385000000000005,466.725,-22.925,-0.397964,0.193736,-1.530612,4
2024-06-14 12:20:56.800,48.86,470.365,-19.634999999999998,-0.36819599999999997,0.275476,-1.568676,4
2024-06-14 12:20:56.805,38.815,473.16499999999996,-17.115000000000002,-0.322324,0.34452799999999995,-1.610156,4
2024-06-14 12:20:56.810,28.805,475.58000000000004,-14.524999999999999,-0.26961999999999997,0.38917999999999997,-1.6530999999999998,4
2024-06-14 12:20:56.815,17.22,476.735,-12.18,-0.204716,0.457988,-1.681648,4
2024-06-14 12:20:56.819,7.665000000000001,476.105,-9.870000000000001,-0.16421200000000002,0.49166,-1.7575319999999999,4
2024-06-14 12:20:56.824,-0.805,475.125,-7.49,-0.105652,0.5346040000000001,-1.816336,4
2024-06-14 12:20:56.829,-10.43,472.95500000000004,-5.145,-0.028792,0.593896,-1.908568,4
2024-06-14 12:20:56.834,-19.495,468.825,-2.205,0.063928,0.6112199999999999,-1.936628,4
2024-06-14 12:20:56.839,-29.224999999999998,465.08000000000004,1.82,0.05026399999999999,0.6771,-1.9973839999999998,4
2024-06-14 12:20:56.843,-39.795,462.385,5.984999999999999,0.093208,0.69784,-2.057652,4
2024-06-14 12:20:56.848,-51.66,458.36,10.85,0.11443600000000001,0.7354159999999998,-2.145004,4
2024-06-14 12:20:56.852,-64.64500000000001,454.51,16.415,0.12322,0.766404,-2.2367480000000004,4
2024-06-14 12:20:56.854,-78.36500000000001,450.695,22.365000000000002,0.117364,0.787632,-2.327516,4
2024-06-14 12:20:56.859,-93.24000000000001,447.86,27.93,0.108336,0.8083719999999999,-2.441464,4
2024-06-14 12:20:56.864,-108.85,445.935,33.46,0.13664,0.8108120000000001,-2.580544,4
2024-06-14 12:20:56.868,-122.67500000000001,445.06,39.724999999999994,0.247416,0.781532,-2.724992,4
2024-06-14 12:20:56.873,-131.88,444.67499999999995,47.53,0.412116,0.768844,-2.8660240000000003,4
2024-06-14 12:20:56.878,-137.06,443.695,56.489999999999995,0.5924320000000001,0.774212,-2.998272,4
2024-06-14 12:20:56.883,-140.07,441.525,66.325,0.7856799999999999,0.784948,-3.1048999999999998,4
2024-06-14 12:20:56.888,-141.89,438.795,77.28,0.9889319999999999,0.8276479999999999,-3.200548,4
2024-06-14 12:20:56.893,-143.07999999999998,434.77,88.515,1.17364,0.885964,-3.276676,4
2024-06-14 12:20:56.898,-146.16000000000003,429.835,98.56,1.37006,0.9555039999999999,-3.2957080000000003,4
2024-06-14 12:20:56.902,-152.005,424.55,106.61000000000001,1.5181679999999997,0.953796,-3.101972,4
2024-06-14 12:20:56.907,-194.32,415.16999999999996,110.565,1.4149559999999999,0.769576,-3.200304,4
2024-06-14 12:20:56.912,-265.09,407.645,111.685,1.7155639999999999,0.6258600000000001,-3.325476,4
2024-06-14 12:20:56.917,-312.655,398.755,115.255,2.085224,0.377224,-3.452356,4
2024-06-14 12:20:56.922,-325.99,384.82500000000005,122.815,2.43634,0.074908,-3.511892,4
2024-06-14 12:20:56.927,-310.485,373.555,158.305,2.6290999999999998,0.288408,-3.4538200000000003,4
2024-06-14 12:20:56.931,-266.35,356.33500000000004,147.875,3.07684,-0.5328959999999999,-3.242028,4
2024-06-14 12:20:56.936,-219.38,337.61,164.64,3.414048,-0.5897479999999999,-3.0712279999999996,4
2024-06-14 12:20:56.941,-175.0,314.15999999999997,176.61,3.761748,-0.5577840000000001,-2.85236,4
2024-06-14 12:20:56.946,-143.36,285.495,181.58,4.117744,-0.398696,-2.618364,4
2024-06-14 12:20:56.951,-124.95,252.84,176.015,4.469104,-0.168116,-2.384124,4
2024-06-14 12:20:56.956,-117.005,217.7,156.94,4.802896,0.048312,-2.199904,4
2024-06-14 12:20:56.961,-115.11500000000001,180.32,126.49,5.1086279999999995,0.176168,-2.0591159999999995,4
2024-06-14 12:20:56.965,-113.53999999999999,142.24,89.03999999999999,5.340672,0.164212,-1.941996,4
2024-06-14 12:20:56.970,-106.645,108.99000000000001,49.56,5.481704,0.015859999999999996,-1.84586,4
2024-06-14 12:20:56.975,-97.33500000000001,61.17999999999999,13.895,5.4992719999999995,-0.21032799999999996,-1.776808,4
2024-06-14 12:20:56.980,-76.58,31.5,-15.155000000000001,5.425339999999999,-0.5011760000000001,-1.74704,4
2024-06-14 12:20:56.985,-54.39,-5.425000000000001,-34.72,5.2826,-0.791048,-1.720688,4
2024-06-14 12:20:56.990,-27.125,-42.455,-44.379999999999995,5.048603999999999,-1.01016,-1.719468,4
2024-06-14 12:20:56.994,4.13,-77.98,-45.535,4.7472639999999995,-1.109956,-1.724592,4
2024-06-14 12:20:56.999,41.195,-115.57000000000001,-42.805,4.6606440000000005,-0.714676,-1.14192,4
