time,gyroscope_x,gyroscope_y,gyroscope_z,accelerometer_x,accelerometer_y,accelerometer_z,phase
2024-06-14 09:35:34.762,142.17000000000002,-432.005,36.33,0.9386680000000001,-0.47531199999999996,-6.168563999999999,1
2024-06-14 09:35:34.767,122.045,-285.03999999999996,24.5,-3.385744,0.0004879999999999997,0.803004,1
2024-06-14 09:35:34.772,197.505,-262.36,18.795,-3.984032,0.14566800000000002,0.46481999999999996,1
2024-06-14 09:35:34.777,225.365,-338.8,-4.13,-2.050576,-0.388692,-1.454972,1
2024-06-14 09:35:34.782,209.72,-360.115,-14.035,0.239852,-0.42602399999999996,-2.229672,1
2024-06-14 09:35:34.786,186.97,-349.05499999999995,-7.805,1.4447240000000001,0.258884,-1.708732,1
2024-06-14 09:35:34.791,154.665,-352.555,9.03,1.567456,0.45945199999999997,-1.2707519999999999,1
2024-06-14 09:35:34.796,94.08,-344.505,29.294999999999998,0.503372,0.155184,-1.89954,1
2024-06-14 09:35:34.801,37.905,-314.15999999999997,49.595,-0.342088,0.16836,-2.2396760000000002,1
2024-06-14 09:35:34.806,17.990000000000002,-296.065,58.065,-0.333304,-0.059292,-2.183556,1
2024-06-14 09:35:34.811,22.96,-291.79499999999996,48.614999999999995,0.069052,-0.39283999999999997,-2.168916,1
2024-06-14 09:35:34.815,26.564999999999998,-288.68,32.025000000000006,0.25058800000000003,-0.5367999999999999,-2.067412,1
2024-06-14 09:35:34.820,26.494999999999997,-274.225,16.345,0.1342,-0.350384,-2.10816,1
2024-06-14 09:35:34.825,27.020000000000003,-253.085,5.425,0.035868,-0.30768399999999996,-1.963956,1
2024-06-14 09:35:34.830,35.699999999999996,-218.995,-1.295,0.060756000000000004,-0.11419199999999999,-2.047648,1
2024-06-14 09:35:34.835,44.695,-169.47,-3.045,0.082472,0.096136,-1.789008,1
2024-06-14 09:35:34.840,41.335,-117.07499999999999,4.235,0.084424,0.26425199999999993,-1.47498,1
2024-06-14 09:35:34.844,24.814999999999998,-78.715,16.905,0.089792,0.191784,-1.364204,1
2024-06-14 09:35:34.849,15.12,-66.64,25.759999999999998,0.09540399999999999,0.22814,-1.238544,1
2024-06-14 09:35:34.854,13.965,-56.489999999999995,25.130000000000003,0.142984,-0.037332,-1.231468,1
2024-06-14 09:35:34.861,11.025,-43.575,19.145,-0.023912,-0.093452,-1.100196,2
2024-06-14 09:35:34.866,9.1,-34.230000000000004,11.655000000000001,-0.092476,-0.072468,-1.006988,2
2024-06-14 09:35:34.871,8.120000000000001,-25.619999999999997,7.175,-0.064904,0.018543999999999998,-1.001376,2
2024-06-14 09:35:34.875,6.545,-19.11,7.0,-0.010248,0.05612,-1.04188,2
2024-06-14 09:35:34.880,4.2,-13.684999999999999,8.645,0.003172,0.023667999999999998,-1.0548119999999999,2
2024-06-14 09:35:34.885,3.2199999999999998,-12.495000000000001,8.365,-0.022448,0.0009759999999999999,-1.053836,2
2024-06-14 09:35:34.890,2.1,-9.135,6.02,0.000976,0.0039039999999999986,-1.02114,2
2024-06-14 09:35:34.895,0.8400000000000001,-5.425,4.375,-0.04367599999999999,0.009516,-1.0182120000000001,2
2024-06-14 09:35:34.899,0.385,-5.355,3.15,-0.033915999999999995,0.014395999999999999,-1.0179679999999998,2
2024-06-14 09:35:34.904,-0.315,-5.25,2.835,-0.063196,0.026596,-1.003572,2
2024-06-14 09:35:34.909,-0.315,-5.25,1.995,-0.06417199999999999,0.020984000000000003,-1.000156,2
2024-06-14 09:35:34.914,-0.525,-5.845,1.225,-0.054167999999999994,0.011712,-1.00528,2
2024-06-14 09:35:34.919,-0.77,-6.72,0.77,-0.050508,0.017567999999999997,-1.012356,2
2024-06-14 09:35:34.923,-0.91,-7.91,0.49,-0.0549,0.025132,-1.0108920000000001,2
2024-06-14 09:35:34.928,-0.91,-9.205,-0.035,-0.059292,0.02684,-1.009428,2
2024-06-14 09:35:34.933,-0.735,-10.5,-0.245,-0.056852,0.030011999999999997,-1.005524,2
2024-06-14 09:35:34.938,-0.735,-10.92,-0.245,-0.054655999999999996,0.027572,-1.005524,2
2024-06-14 09:35:34.943,-0.7,-11.41,-0.595,-0.05856,0.030744,-0.999912,2
2024-06-14 09:35:34.947,-0.56,-12.39,-0.9099999999999999,-0.05856,0.030255999999999998,-1.00528,2
2024-06-14 09:35:34.952,-0.315,-13.02,-1.19,-0.059292,0.031476,-1.003816,2
2024-06-14 09:35:34.957,-0.105,-13.684999999999999,-1.295,-0.060024,0.032208,-1.00894,2
2024-06-14 09:35:34.962,0.35,-14.21,-1.435,-0.055144,0.034648,-1.007964,2
2024-06-14 09:35:34.967,0.665,-14.629999999999999,-1.645,-0.053192,0.03294,-1.0065,2
2024-06-14 09:35:34.972,1.015,-15.225,-1.785,-0.051239999999999994,0.035624,-1.001132,2
2024-06-14 09:35:34.976,1.575,-14.98,-1.8900000000000001,-0.048555999999999995,0.037576,-1.0035720000000001,2
2024-06-14 09:35:34.981,1.96,-14.805,-2.03,-0.046604,0.035379999999999995,-1.001132,2
2024-06-14 09:35:34.986,2.45,-14.385,-2.03,-0.04611599999999999,0.034892,-0.9969839999999999,2
2024-06-14 09:35:34.991,2.6950000000000003,-13.895,-2.205,-0.045871999999999996,0.035624,-0.9989359999999999,2
2024-06-14 09:35:34.996,2.975,-14.0,-2.2750000000000004,-0.047091999999999995,0.035624,-0.997228,2
2024-06-14 09:35:35.000,3.255,-13.125,-2.205,-0.042943999999999996,0.036599999999999994,-1.00284,2
2024-06-14 09:35:35.005,3.71,-12.915,-2.31,-0.041724,0.037332,-0.997716,2
2024-06-14 09:35:35.010,3.5,-11.55,-2.31,-0.040260000000000004,0.039528,-0.9913719999999999,2
2024-06-14 09:35:35.015,3.22,-11.094999999999999,-2.31,-0.04196799999999999,0.031476000000000004,-0.994788,2
2024-06-14 09:35:35.020,-2.065,-13.790000000000001,-3.255,-0.030987999999999995,0.036356,-0.9986919999999999,2
2024-06-14 09:35:35.024,2.8000000000000003,-13.02,-1.715,-0.035379999999999995,0.028059999999999995,-1.00162,2
2024-06-14 09:35:35.029,3.325,-11.760000000000002,-2.45,-0.035868,0.022448000000000003,-0.997228,2
2024-06-14 09:35:35.034,1.1900000000000002,-10.885,-3.4299999999999997,-0.036844,0.02318,-0.9977159999999999,2
2024-06-14 09:35:35.039,3.605,-10.079999999999998,-2.73,-0.030256,0.027327999999999998,-0.996008,2
2024-06-14 09:35:35.044,0.7,-9.31,-1.89,-0.031964,0.02196,-1.001376,2
2024-06-14 09:35:35.049,3.01,-8.33,-1.855,-0.025131999999999998,0.023424,-0.9999119999999999,2
2024-06-14 09:35:35.053,0.84,-7.210000000000001,-2.66,-0.025132,0.025863999999999998,-0.9921039999999999,2
2024-06-14 09:35:35.058,2.0999999999999996,-6.265,-2.59,-0.030255999999999998,0.024888,-0.9962519999999999,2
2024-06-14 09:35:35.063,1.05,-5.005,-2.2399999999999998,-0.03172,0.030744,-0.990884,2
2024-06-14 09:35:35.068,1.19,-3.7800000000000002,-2.3449999999999998,-0.033428,0.03172,-1.0126,2
2024-06-14 09:35:35.073,1.225,-3.325,-2.94,-0.02196,0.03172,-0.99674,2
2024-06-14 09:35:35.077,0.7350000000000001,-2.625,-3.395,-0.030499999999999996,0.031232,-0.99552,2
2024-06-14 09:35:35.082,0.98,-2.59,-3.43,-0.031231999999999996,0.028548,-0.9952759999999999,2
2024-06-14 09:35:35.087,0.595,-2.765,-3.255,-0.03416,0.02928,-0.9986919999999999,2
2024-06-14 09:35:35.092,1.12,-3.1849999999999996,-3.36,-0.032696,0.025376,-0.99674,2
2024-06-14 09:35:35.097,0.665,-3.64,-3.7800000000000002,-0.029768000000000003,0.029768,-0.994788,2
2024-06-14 09:35:35.101,0.91,-4.445,-3.885,-0.027816,0.027572,-1.0011320000000001,2
2024-06-14 09:35:35.106,0.8400000000000001,-5.390000000000001,-3.675,-0.032208,0.02684,-0.999912,2
2024-06-14 09:35:35.111,1.12,-6.4399999999999995,-3.71,-0.034404,0.028791999999999998,-1.007232,2
2024-06-14 09:35:35.116,1.33,-7.805,-4.025,-0.036112,0.031476,-1.004548,2
2024-06-14 09:35:35.121,1.645,-9.274999999999999,-4.305,-0.038552,0.035379999999999995,-1.005036,2
2024-06-14 09:35:35.125,1.855,-11.725,-4.585,-0.038552,0.040260000000000004,-1.013576,2
2024-06-14 09:35:35.130,2.4850000000000003,-14.14,-4.655,-0.035379999999999995,0.039772,-1.013576,2
2024-06-14 09:35:35.135,2.9050000000000002,-17.255,-5.215,-0.034648,0.035868,-1.019676,2
2024-06-14 09:35:35.140,3.8149999999999995,-21.665,-5.32,-0.031964,0.030987999999999995,-1.030168,2
2024-06-14 09:35:35.145,3.15,-22.61,-5.775,-0.031476000000000004,0.038307999999999995,-1.0238239999999998,2
2024-06-14 09:35:35.150,6.825,-27.02,-5.529999999999999,-0.033671999999999994,0.038552,-1.0360239999999998,2
2024-06-14 09:35:35.154,12.74,-30.450000000000003,-5.25,-0.024888,0.040260000000000004,-1.0360239999999998,2
2024-06-14 09:35:35.159,13.16,-33.74,-5.6,-0.022204,0.034892,-1.0433439999999998,2
2024-06-14 09:35:35.164,21.244999999999997,-15.575,-6.369999999999999,-0.017568,0.0305,-1.044076,2
2024-06-14 09:35:35.169,18.585,-42.56,-4.83,-0.019764,0.036112,-1.048712,2
2024-06-14 09:35:35.174,23.695,-47.565,-3.8499999999999996,-0.013663999999999999,0.03172,-1.0689639999999998,2
2024-06-14 09:35:35.178,26.740000000000002,-53.515,-4.13,-0.011467999999999999,0.034892,-1.074088,2
2024-06-14 09:35:35.183,32.235,-62.93,-3.5,-0.0068319999999999995,0.027816,-1.066036,2
2024-06-14 09:35:35.188,36.295,-78.295,-3.6049999999999995,-0.0075639999999999995,0.08296,-1.083848,3
2024-06-14 09:35:35.193,39.864999999999995,-93.38,-1.7850000000000001,-0.006832,-0.019275999999999995,-1.13826,3
2024-06-14 09:35:35.198,37.345,-104.65,-1.645,-0.010003999999999999,-0.013176,-1.2297600000000002,3
2024-06-14 09:35:35.202,22.33,-107.45,-2.94,-0.023424000000000004,-0.05538800000000001,-1.417152,3
2024-06-14 09:35:35.207,7.945,-105.91,-3.92,0.0053679999999999995,-0.024888,-1.346636,3
2024-06-14 09:35:35.212,1.54,-111.195,-3.6399999999999997,0.010735999999999999,-0.03294,-1.334436,3
2024-06-14 09:35:35.217,0.665,-116.62,-2.59,0.019764,-0.026108,-1.365912,3
2024-06-14 09:35:35.222,-1.0150000000000001,-122.465,-2.2399999999999998,0.028791999999999998,-0.024399999999999998,-1.39568,3
2024-06-14 09:35:35.227,-2.6950000000000003,-127.785,-1.715,0.021471999999999998,-0.040260000000000004,-1.4213,3
2024-06-14 09:35:35.231,-2.975,-132.16000000000003,0.105,0.038063999999999994,-0.08296,-1.457168,3
2024-06-14 09:35:35.236,-4.97,-133.945,1.75,0.047091999999999995,-0.041724,-1.4078799999999998,3
2024-06-14 09:35:35.241,-10.57,-135.73000000000002,2.275,0.0488,-0.060024,-1.44692,3
2024-06-14 09:35:35.246,-13.51,-142.415,3.885,0.045871999999999996,-0.0915,-1.4352079999999998,3
2024-06-14 09:35:35.251,-16.765,-153.195,5.32,0.038308,-0.061975999999999996,-1.416664,3
2024-06-14 09:35:35.255,-19.32,-155.785,6.23,0.054655999999999996,-0.094672,-1.4644879999999998,3
2024-06-14 09:35:35.260,-21.945,-163.66000000000003,7.84,0.054412,-0.062952,-1.453996,3
2024-06-14 09:35:35.265,-26.88,-169.365,8.05,0.047824,-0.064416,-1.50304,3
2024-06-14 09:35:35.270,-30.485,-178.85000000000002,8.26,0.040992,-0.04636,-1.5037719999999999,3
2024-06-14 09:35:35.275,-37.765,-192.39499999999998,7.5600000000000005,0.044896000000000005,0.014395999999999999,-1.530612,3
2024-06-14 09:35:35.279,-39.935,-205.485,5.880000000000001,0.044163999999999995,0.06856399999999999,-1.586244,3
2024-06-14 09:35:35.284,-40.04,-216.44,3.605,0.037087999999999996,0.06758800000000001,-1.568676,3
2024-06-14 09:35:35.289,-37.275,-231.35000000000002,1.575,0.017568,0.09540399999999999,-1.599176,3
2024-06-14 09:35:35.294,-36.82,-246.96,-0.805,0.012199999999999999,0.11175199999999999,-1.612596,3
2024-06-14 09:35:35.299,-36.435,-263.97,-3.7800000000000002,0.00488,0.15689199999999998,-1.621136,3
2024-06-14 09:35:35.303,-36.89,-279.44,-7.875,-0.010248,0.139324,-1.6140599999999998,3
2024-06-14 09:35:35.308,-41.754999999999995,-299.145,-11.305,-0.011468,0.050264,-1.796328,3
2024-06-14 09:35:35.313,-39.795,-324.87,-12.705,-0.015372,0.038064,-1.921012,3
2024-06-14 09:35:35.318,-37.905,-349.86,-15.120000000000001,-0.012931999999999999,0.124928,-1.9583439999999999,3
2024-06-14 09:35:35.323,-33.25,-374.64,-19.46,-0.05856,0.26352,-1.909788,3
2024-06-14 09:35:35.328,-27.265,-399.77,-26.425,-0.077836,0.38625200000000004,-1.894904,3
2024-06-14 09:35:35.332,-25.935000000000002,-420.07,-34.09,-0.040748,0.343796,-1.84708,3
2024-06-14 09:35:35.337,-23.799999999999997,-446.495,-37.66,0.047091999999999995,0.072956,-2.097424,3
2024-06-14 09:35:35.342,-21.805,-470.365,-34.09,0.170068,-0.21667199999999998,-2.4148680000000002,3
2024-06-14 09:35:35.347,-15.575,-490.28,-24.115000000000002,0.306464,-0.36112,-2.66448,3
2024-06-14 09:35:35.352,13.055,-508.13,-8.469999999999999,0.488,-0.279868,-2.899452,3
2024-06-14 09:35:35.356,-21.14,-501.375,-0.6299999999999999,0.560224,-0.09442799999999998,-3.183956,3
2024-06-14 09:35:35.361,-34.3,-509.005,2.9400000000000004,0.693692,0.12126799999999999,-3.1290560000000003,3
2024-06-14 09:35:35.366,-43.925,-508.06,4.305,0.70516,0.110044,-3.234952,3
2024-06-14 09:35:35.371,-49.28,-505.365,5.215,0.545096,0.19983599999999999,-3.244468,3
2024-06-14 09:35:35.376,-59.675,-497.0,0.2450000000000001,0.315248,0.260592,-3.092944,3
2024-06-14 09:35:35.380,-56.629999999999995,-495.635,-7.1049999999999995,0.15738,0.169824,-2.90482,3
2024-06-14 09:35:35.385,-50.575,-495.46000000000004,-14.42,0.0,0.049776,-2.81332,3
2024-06-14 09:35:35.390,-33.81,-493.395,-19.634999999999998,0.059048,-0.074664,-3.03414,3
2024-06-14 09:35:35.395,-3.7100000000000004,-487.025,-22.189999999999998,0.25473599999999996,-0.025864,-2.897256,3
2024-06-14 09:35:35.400,25.759999999999998,-466.40999999999997,-21.105,0.08637600000000001,0.211304,-3.184444,4
2024-06-14 09:35:35.402,36.785,-450.83500000000004,-21.7,-0.03196399999999999,0.30963599999999997,-2.745244,4
2024-06-14 09:35:35.405,61.565,-418.74,-24.884999999999998,-0.563884,0.512156,-2.64618,4
2024-06-14 09:35:35.410,73.36,-375.69,-26.53,-1.26392,0.607804,-2.293356,4
2024-06-14 09:35:35.415,65.94,-322.735,-47.040000000000006,-1.6443159999999999,0.266692,-1.8829479999999998,4
2024-06-14 09:35:35.420,47.775000000000006,-272.78999999999996,-43.33,-2.314828,0.770308,-1.4457,4
2024-06-14 09:35:35.425,7.000000000000001,-226.10000000000002,-80.465,-1.797548,0.683932,-1.196576,4
2024-06-14 09:35:35.430,-2.2050000000000005,-238.56,-94.885,-1.328824,0.927444,-0.04440799999999999,4
2024-06-14 09:35:35.434,6.23,-182.875,-97.965,-1.569164,0.44822799999999996,-1.7526519999999999,4
2024-06-14 09:35:35.439,-22.47,-81.86500000000001,-107.065,-1.7763200000000001,0.294508,-1.8390279999999999,4
2024-06-14 09:35:35.444,-36.435,-26.145,-113.855,-1.512556,0.14005599999999999,-1.450824,4
2024-06-14 09:35:35.449,-17.15,4.795,-108.78,-1.2988119999999999,-0.009028000000000001,-1.285148,4
2024-06-14 09:35:35.454,10.78,30.765,-97.58,-1.221952,-0.03782,-1.2907600000000001,4
2024-06-14 09:35:35.459,32.480000000000004,46.724999999999994,-86.87,-1.136552,-0.012199999999999999,-1.281,4
2024-06-14 09:35:35.463,45.745,53.620000000000005,-76.65,-0.99796,0.025863999999999998,-1.146556,4
2024-06-14 09:35:35.468,54.46,58.205,-65.59,-0.94672,0.051972,-1.019188,4
2024-06-14 09:35:35.473,62.475,64.61,-54.845,-0.933788,0.07319999999999999,-0.8879159999999999,4
2024-06-14 09:35:35.478,67.47999999999999,74.375,-45.989999999999995,-0.9320799999999999,0.10931199999999999,-0.783972,4
2024-06-14 09:35:35.483,69.16,87.85,-38.92,-0.9189039999999999,0.14884000000000003,-0.719068,4
2024-06-14 09:35:35.488,67.725,104.93,-32.69,-0.912804,0.169824,-0.682956,4
2024-06-14 09:35:35.493,64.33,124.25,-27.369999999999997,-0.9076799999999999,0.18202400000000002,-0.642452,4
2024-06-14 09:35:35.497,60.445,144.55,-23.03,-0.899872,0.176656,-0.612684,4
2024-06-14 09:35:35.502,57.05,164.745,-19.564999999999998,-0.8718119999999999,0.16226,-0.595116,4
2024-06-14 09:35:35.507,53.129999999999995,184.1,-16.555,-0.8474119999999999,0.142252,-0.582672,4
2024-06-14 09:35:35.512,50.225,201.91500000000002,-13.44,-0.810568,0.12029200000000001,-0.579988,4
2024-06-14 09:35:35.517,48.3,217.875,-10.325,-0.763476,0.101504,-0.5843799999999999,4
2024-06-14 09:35:35.522,47.32,232.47,-7.630000000000001,-0.734928,0.086864,-0.5936520000000001,4
2024-06-14 09:35:35.526,47.11,245.56,-5.32,-0.696132,0.08296,-0.58682,4
2024-06-14 09:35:35.531,46.97,257.53,-3.605,-0.665144,0.08881599999999999,-0.598776,4
2024-06-14 09:35:35.536,46.375,268.24,-2.4850000000000003,-0.632692,0.107848,-0.615612,4
2024-06-14 09:35:35.541,44.45,278.28499999999997,-2.415,-0.604632,0.126392,-0.645624,4
2024-06-14 09:35:35.546,41.16,288.43499999999995,-3.5,-0.578036,0.149816,-0.674416,4
2024-06-14 09:35:35.551,36.75,298.69,-5.880000000000001,-0.560712,0.162748,-0.7015,4
2024-06-14 09:35:35.556,31.955,309.53999999999996,-9.204999999999998,-0.550708,0.173728,-0.737368,4
2024-06-14 09:35:35.560,27.405,320.775,-13.405,-0.531676,0.17958400000000002,-0.774456,4
2024-06-14 09:35:35.565,23.38,332.115,-18.479999999999997,-0.511424,0.183732,-0.8225239999999999,4
2024-06-14 09:35:35.570,20.3,342.685,-24.325000000000003,-0.49044,0.191052,-0.87596,4
2024-06-14 09:35:35.575,17.675,352.905,-30.659999999999997,-0.457012,0.20251999999999998,-0.93086,4
2024-06-14 09:35:35.580,15.365,362.075,-37.66,-0.43188,0.22277199999999997,-0.9791719999999999,4
2024-06-14 09:35:35.585,12.32,370.29999999999995,-45.114999999999995,-0.39479200000000003,0.24936799999999998,-1.028216,4
2024-06-14 09:35:35.589,8.365,377.755,-52.955,-0.35916800000000004,0.276208,-1.077504,4
2024-06-14 09:35:35.594,2.94,384.405,-60.480000000000004,-0.32818,0.290848,-1.1272799999999998,4
2024-06-14 09:35:35.599,-3.8149999999999995,389.83,-67.69,-0.299632,0.304756,-1.183644,4
2024-06-14 09:35:35.604,-10.780000000000001,393.855,-74.025,-0.26571599999999995,0.304756,-1.245864,4
2024-06-14 09:35:35.609,-17.325,396.865,-79.135,-0.24204799999999999,0.303292,-1.315892,4
2024-06-14 09:35:35.614,-22.96,398.685,-83.265,-0.21667199999999998,0.305976,-1.398364,4
2024-06-14 09:35:35.619,-29.715,401.38,-86.625,-0.18836799999999998,0.309636,-1.474736,4
2024-06-14 09:35:35.623,-37.8,404.74,-89.425,-0.173728,0.319884,-1.5325639999999998,4
2024-06-14 09:35:35.628,-44.555,407.96000000000004,-90.545,-0.15006000000000003,0.311344,-1.596492,4
2024-06-14 09:35:35.633,-50.925,411.21500000000003,-90.405,-0.113704,0.309148,-1.674328,4
2024-06-14 09:35:35.638,-57.19,415.31,-89.81,-0.051484,0.32232399999999994,-1.728252,4
2024-06-14 09:35:35.643,-63.91,418.46,-89.14500000000001,-0.025131999999999998,0.33989199999999997,-1.8087719999999998,4
2024-06-14 09:35:35.648,-71.225,420.35,-88.935,-0.02074,0.37063599999999997,-1.917352,4
2024-06-14 09:35:35.652,-78.85499999999999,420.77,-88.58500000000001,-0.006588,0.378444,-2.018856,4
2024-06-14 09:35:35.657,-86.66,421.19,-86.695,0.027327999999999998,0.37551599999999996,-2.118652,4
2024-06-14 09:35:35.662,-94.67500000000001,420.98,-84.28,0.038796,0.39771999999999996,-2.196976,4
2024-06-14 09:35:35.667,-104.65,421.26,-83.65,0.036112000000000005,0.442616,-2.3209280000000003,4
2024-06-14 09:35:35.672,-119.14,422.625,-85.25999999999999,0.05612,0.4697,-2.45342,4
2024-06-14 09:35:35.677,-137.79500000000002,424.235,-88.62,0.079544,0.495808,-2.585668,4
2024-06-14 09:35:35.682,-158.76,426.265,-93.73,0.115656,0.510204,-2.7227959999999998,4
2024-06-14 09:35:35.686,-182.56,428.015,-100.03,0.185196,0.509228,-2.86578,4
2024-06-14 09:35:35.691,-207.865,429.59000000000003,-106.505,0.290604,0.46408799999999995,-3.0204760000000004,4
2024-06-14 09:35:35.696,-231.875,430.745,-111.09,0.4392,0.36502399999999996,-3.182004,4
2024-06-14 09:35:35.701,-250.39,431.97,-111.72,0.615856,0.201544,-3.332064,4
2024-06-14 09:35:35.706,-259.595,433.405,-106.575,0.806908,0.012932000000000003,-3.40502,4
2024-06-14 09:35:35.711,-258.96500000000003,432.005,-95.41,1.016992,-0.14762,-3.503108,4
2024-06-14 09:35:35.715,-251.86,427.56,-78.82,1.237568,-0.27693999999999996,-3.615592,4
2024-06-14 09:35:35.720,-240.20499999999998,420.21,-58.03,1.463756,-0.35404399999999997,-3.6541439999999996,4
2024-06-14 09:35:35.725,-226.555,409.67499999999995,-33.915,1.624552,-0.2745,-3.66854,4
2024-06-14 09:35:35.730,-212.24,391.58000000000004,5.949999999999999,2.0679,-0.624884,-3.77712,4
2024-06-14 09:35:35.735,-200.48000000000002,380.59000000000003,9.065,2.1176760000000003,-0.331352,-3.8071319999999997,4
2024-06-14 09:35:35.740,-197.89,359.485,27.23,2.3748519999999997,-0.25327199999999994,-3.6016839999999997,4
2024-06-14 09:35:35.745,-199.95499999999998,341.635,43.855000000000004,2.653012,-0.414556,-3.283996,4
2024-06-14 09:35:35.749,-239.12,316.4,59.465,2.698884,-0.581696,-3.324744,4
2024-06-14 09:35:35.754,-284.83000000000004,300.545,69.055,3.1000199999999998,-0.66002,-3.282532,4
2024-06-14 09:35:35.759,-292.70500000000004,277.69,80.32499999999999,3.4691919999999996,-0.9930800000000001,-3.0236479999999997,4
2024-06-14 09:35:35.764,-256.935,250.495,99.47,3.7412519999999994,-1.3990960000000001,-2.6549639999999997,4
2024-06-14 09:35:35.769,-184.065,218.64499999999998,125.72,3.8944840000000003,-1.570872,-2.100352,4
2024-06-14 09:35:35.774,-101.22,186.41,148.64499999999998,4.328316,-1.295884,-1.717272,4
2024-06-14 09:35:35.778,-52.465,169.29500000000002,152.285,5.073492,-0.75518,-1.640656,4
2024-06-14 09:35:35.783,-40.075,149.45,136.95499999999998,5.581012,-0.335256,-1.53598,4
2024-06-14 09:35:35.788,-51.345,125.44,113.995,6.072184,-0.208864,-1.3720119999999998,4
2024-06-14 09:35:35.793,-80.99000000000001,90.3,89.81,6.494304,-0.23302,-1.311988,4
2024-06-14 09:35:35.798,-108.815,39.515,66.85,6.54652,-0.46116,-1.3878720000000002,4
2024-06-14 09:35:35.803,-114.03,-22.400000000000002,49.595,6.287636,-0.883524,-1.42984,4
2024-06-14 09:35:35.808,-89.81,-89.88,41.545,5.7523,-1.311744,-1.416664,4
2024-06-14 09:35:35.812,-43.015,-154.35000000000002,44.31,5.0659279999999995,-1.595028,-1.525732,4
2024-06-14 09:35:35.817,12.635,-207.025,57.085,4.302208,-1.624796,-1.636508,4
2024-06-14 09:35:35.822,65.24,-245.0,75.39,3.640724,-1.425936,-1.82024,4
2024-06-14 09:35:35.827,261.205,-422.625,87.36,-3.6968439999999996,-0.774944,-5.727168000000001,4
