time,gyroscope_x,gyroscope_y,gyroscope_z,accelerometer_x,accelerometer_y,accelerometer_z,phase
2024-06-14 09:35:31.451,132.825,-330.82,-17.919999999999998,-1.15046,0.9474520000000001,-5.03372,1
2024-06-14 09:35:31.456,115.67500000000001,-199.64,1.6099999999999999,-2.690832,-0.698328,0.018056000000000003,1
2024-06-14 09:35:31.461,151.55,-214.58499999999998,-4.199999999999999,-2.751588,0.333548,0.027083999999999997,1
2024-06-14 09:35:31.466,174.615,-249.79500000000002,-7.42,-1.1607079999999999,0.055632,-1.25416,1
2024-06-14 09:35:31.471,171.465,-261.205,-4.970000000000001,0.14347200000000002,-0.0036600000000000005,-1.4457,1
2024-06-14 09:35:31.476,157.22,-274.155,1.89,0.852292,0.171288,-1.2246359999999998,1
2024-06-14 09:35:31.480,141.05,-286.09,10.36,0.911584,0.14884,-1.308328,1
2024-06-14 09:35:31.485,107.975,-277.97,21.35,0.296216,0.139568,-1.572092,1
2024-06-14 09:35:31.490,69.965,-255.92000000000002,35.385,-0.24985599999999997,0.172508,-1.7248359999999998,1
2024-06-14 09:35:31.495,41.58,-237.86,46.269999999999996,-0.34526,0.11882800000000002,-1.707268,1
2024-06-14 09:35:31.500,31.849999999999998,-227.22,50.54,-0.12614799999999998,0.005368000000000001,-1.641388,1
2024-06-14 09:35:31.505,38.045,-220.78,46.585,0.090036,-0.160796,-1.5425680000000002,1
2024-06-14 09:35:31.509,38.465,-215.635,37.135,0.128344,-0.284748,-1.669204,1
2024-06-14 09:35:31.514,38.535,-204.365,25.97,-0.035136,-0.305976,-1.536712,1
2024-06-14 09:35:31.519,33.635000000000005,-193.305,12.81,-0.089792,-0.374784,-1.661884,1
2024-06-14 09:35:31.524,28.42,-171.29,-0.42000000000000015,-0.056364,-0.35258,-1.571604,1
2024-06-14 09:35:31.529,27.685000000000002,-156.45,-11.9,0.005124,-0.16348,-1.4986480000000002,1
2024-06-14 09:35:31.534,29.575,-142.02999999999997,-17.64,0.012931999999999999,-0.028303999999999996,-1.5128,1
2024-06-14 09:35:31.538,24.255000000000003,-128.87,-15.225,-0.001464,0.10150400000000001,-1.393972,1
2024-06-14 09:35:31.543,23.485,-111.09,-5.635,-0.0068319999999999995,0.2135,-1.4110520000000002,1
2024-06-14 09:35:31.548,20.65,-89.88,4.970000000000001,0.0075639999999999995,0.204716,-1.311256,1
2024-06-14 09:35:31.553,19.634999999999998,-72.72999999999999,12.774999999999999,0.010736,0.113948,-1.248792,1
2024-06-14 09:35:31.558,18.585,-55.125,15.54,-0.0019519999999999997,0.010003999999999996,-1.196332,1
2024-06-14 09:35:31.563,15.785,-40.425,12.705,-0.036844,-0.05343600000000001,-1.16388,2
2024-06-14 09:35:31.570,12.495000000000001,-33.075,10.010000000000002,-0.018788,0.07905599999999999,-1.093852,2
2024-06-14 09:35:31.574,9.45,-26.46,10.43,0.005124000000000001,0.01464,-1.1009280000000001,2
2024-06-14 09:35:31.579,6.79,-22.365000000000002,11.165,-0.034159999999999996,0.001464,-1.06506,2
2024-06-14 09:35:31.584,6.475,-18.865000000000002,9.765,-0.062708,0.01098,-1.01626,2
2024-06-14 09:35:31.589,6.545,-14.21,8.12,-0.05368,0.012444,-1.02236,2
2024-06-14 09:35:31.594,5.915,-8.645,6.475,-0.040504,0.012688000000000001,-1.031632,2
2024-06-14 09:35:31.598,5.705,-4.9350000000000005,5.915,-0.041236,0.009516,-1.02358,2
2024-06-14 09:35:31.603,5.6,-3.5,5.32,-0.041236,0.035624,-1.027484,2
2024-06-14 09:35:31.608,4.445,0.84,5.285,-0.045628,0.022692000000000004,-1.0350479999999997,2
2024-06-14 09:35:31.613,3.7800000000000002,4.655,4.55,-0.06270799999999999,0.00048799999999999885,-1.031632,2
2024-06-14 09:35:31.618,3.395,5.32,3.29,-0.058072,-0.016592,-1.0250439999999998,2
2024-06-14 09:35:31.623,3.395,3.78,2.1,-0.059048,-0.006587999999999998,-1.017236,2
2024-06-14 09:35:31.627,3.01,2.66,1.54,-0.06514799999999998,0.00488,-1.0096720000000001,2
2024-06-14 09:35:31.632,2.8,1.925,1.155,-0.067832,0.00732,-1.006256,2
2024-06-14 09:35:31.637,2.59,1.33,0.56,-0.06368399999999999,0.002928,-1.0079639999999999,2
2024-06-14 09:35:31.642,2.45,0.42000000000000004,0.14,-0.068564,0.0068319999999999995,-1.005768,2
2024-06-14 09:35:31.647,2.135,-0.35,-0.175,-0.064904,0.007808,-1.0116239999999999,2
2024-06-14 09:35:31.651,1.8199999999999998,-1.05,-0.42,-0.064416,0.011467999999999999,-1.006988,2
2024-06-14 09:35:31.656,1.3650000000000002,-1.75,-0.56,-0.06905199999999999,0.011956000000000001,-1.0060120000000001,2
2024-06-14 09:35:31.661,0.77,-1.96,-0.63,-0.06783199999999999,0.011467999999999999,-1.00528,2
2024-06-14 09:35:31.666,0.315,-2.5549999999999997,-0.525,-0.066856,0.009271999999999999,-1.005768,2
2024-06-14 09:35:31.671,-0.28,-3.7800000000000002,-0.77,-0.069784,0.008052,-1.0055239999999999,2
2024-06-14 09:35:31.676,-0.7,-5.075,-0.8049999999999999,-0.07100400000000001,0.013663999999999999,-1.0004,2
2024-06-14 09:35:31.680,-1.155,-6.09,-0.8400000000000001,-0.075152,0.010248,-0.9989359999999999,2
2024-06-14 09:35:31.685,-1.4,-6.720000000000001,-0.9450000000000001,-0.070272,0.013176,-1.0004,2
2024-06-14 09:35:31.690,-1.47,-7.07,-0.98,-0.06661199999999999,0.014395999999999999,-1.0035720000000001,2
2024-06-14 09:35:31.695,-1.505,-7.105,-1.05,-0.066856,0.016347999999999998,-1.003816,2
2024-06-14 09:35:31.700,-1.54,-7.28,-1.0150000000000001,-0.07075999999999999,0.018543999999999998,-1.0047920000000001,2
2024-06-14 09:35:31.704,-1.47,-7.5600000000000005,-1.05,-0.06856399999999999,0.016836,-1.005524,2
2024-06-14 09:35:31.709,-1.225,-7.734999999999999,-1.225,-0.068076,0.019276,-1.00162,2
2024-06-14 09:35:31.714,-1.225,-7.875,-1.435,-0.068076,0.01952,-1.000156,2
2024-06-14 09:35:31.719,-1.05,-7.77,-1.4,-0.067588,0.016104,-1.001132,2
2024-06-14 09:35:31.724,-0.8400000000000001,-7.699999999999999,-1.435,-0.066856,0.014883999999999998,-1.005036,2
2024-06-14 09:35:31.729,-0.63,-7.77,-1.435,-0.06344,0.0183,-1.0035720000000001,2
2024-06-14 09:35:31.733,-0.14,-7.42,-1.365,-0.06709999999999999,0.020252,-1.002108,2
2024-06-14 09:35:31.738,0.10500000000000001,-7.035,-1.33,-0.061244,0.020007999999999998,-1.0006439999999999,2
2024-06-14 09:35:31.743,0.385,-6.79,-1.26,-0.06368399999999999,0.0244,-1.00162,2
2024-06-14 09:35:31.748,0.77,-6.51,-1.155,-0.06368399999999999,0.02318,-0.9982039999999999,2
2024-06-14 09:35:31.753,0.9450000000000001,-6.125,-1.26,-0.064416,0.021471999999999998,-0.998448,2
2024-06-14 09:35:31.757,0.98,-5.705,-1.33,-0.06295200000000001,0.017079999999999998,-0.9982039999999999,2
2024-06-14 09:35:31.762,1.05,-5.495,-1.225,-0.060756000000000004,0.02318,-0.9952759999999999,2
2024-06-14 09:35:31.767,0.91,-5.425000000000001,-1.33,-0.062708,0.016592,-0.996008,2
2024-06-14 09:35:31.772,0.84,-5.6,-1.435,-0.059536,0.010492,-0.998692,2
2024-06-14 09:35:31.777,0.63,-5.529999999999999,-1.5750000000000002,-0.060756000000000004,0.01342,-0.996008,2
2024-06-14 09:35:31.782,0.45499999999999996,-5.6,-1.6800000000000002,-0.058316,0.016347999999999998,-0.996984,2
2024-06-14 09:35:31.786,0.49,-5.39,-1.7149999999999999,-0.060023999999999994,0.010004,-0.998204,2
2024-06-14 09:35:31.791,0.28,-5.355,-1.68,-0.055144,0.012931999999999999,-0.99918,2
2024-06-14 09:35:31.796,0.14,-5.32,-1.645,-0.057828,0.01464,-0.9974719999999999,2
2024-06-14 09:35:31.801,0.21,-5.32,-1.645,-0.056608,0.01342,-1.002352,2
2024-06-14 09:35:31.806,0.175,-5.53,-1.6099999999999999,-0.061976,0.017079999999999998,-1.000888,2
2024-06-14 09:35:31.810,0.35,-5.529999999999999,-1.7149999999999999,-0.057095999999999994,0.016104,-0.99796,2
2024-06-14 09:35:31.815,0.315,-5.425000000000001,-1.75,-0.055388,0.019032,-0.9945439999999999,2
2024-06-14 09:35:31.820,0.35,-5.145,-1.82,-0.05660799999999999,0.019764,-0.997716,2
2024-06-14 09:35:31.825,0.315,-5.215,-1.89,-0.0549,0.019764000000000004,-0.9952759999999999,2
2024-06-14 09:35:31.830,0.27999999999999997,-5.425,-1.96,-0.051727999999999996,0.017567999999999997,-0.996496,2
2024-06-14 09:35:31.835,0.245,-5.635,-1.9949999999999999,-0.054412,0.015616,-0.9974719999999999,2
2024-06-14 09:35:31.839,0.175,-5.775,-2.1,-0.056119999999999996,0.017812,-0.9977159999999999,2
2024-06-14 09:35:31.844,0.10500000000000001,-6.09,-2.17,-0.053924,0.016592,-1.0030839999999999,2
2024-06-14 09:35:31.849,-0.175,-6.615,-2.2750000000000004,-0.054412,0.021716,-1.001132,2
2024-06-14 09:35:31.854,-0.385,-7.385,-2.66,-0.052216,0.016348,-1.002108,2
2024-06-14 09:35:31.859,-0.8400000000000001,-8.434999999999999,-2.975,-0.057096,0.01586,-1.003572,2
2024-06-14 09:35:31.863,-1.96,-10.325,-3.465,-0.05978,0.021228,-1.00528,2
2024-06-14 09:35:31.868,-1.54,-11.55,-3.815,-0.05660799999999999,0.019276,-1.000888,2
2024-06-14 09:35:31.873,-1.96,-12.95,-4.13,-0.052947999999999995,0.021228,-1.005768,2
2024-06-14 09:35:31.878,-2.24,-14.594999999999999,-4.48,-0.048799999999999996,0.014884000000000001,-1.002108,2
2024-06-14 09:35:31.883,-2.555,-15.61,-4.655,-0.048799999999999996,0.014884,-1.0018639999999999,2
2024-06-14 09:35:31.888,-0.8749999999999999,-15.959999999999997,-5.075,-0.04392,0.017812,-1.006012,3
2024-06-14 09:35:31.892,-5.145,-15.434999999999999,-5.46,-0.042943999999999996,0.011956000000000001,-1.000888,3
2024-06-14 09:35:31.897,-1.8199999999999998,-16.52,-4.27,-0.045871999999999996,0.015127999999999999,-1.001864,3
2024-06-14 09:35:31.902,-3.045,-17.71,-3.85,-0.043676,0.014152,-1.0057679999999998,3
2024-06-14 09:35:31.907,-2.45,-19.425,-4.27,-0.044408,0.020739999999999998,-1.0018639999999999,3
2024-06-14 09:35:31.912,-1.05,-20.125,-4.55,-0.050752,0.027816,-1.011136,3
2024-06-14 09:35:31.916,-1.575,-22.015,-4.27,-0.045384,0.033916,-1.01016,3
2024-06-14 09:35:31.921,0.9450000000000001,-24.78,-3.92,-0.049776,0.040260000000000004,-1.0189439999999998,3
2024-06-14 09:35:31.926,1.96,-26.775,-4.655,-0.053192,0.048311999999999994,-1.0250439999999998,3
2024-06-14 09:35:31.931,3.745,-34.125,-5.8100000000000005,-0.050752,0.05124,-1.0311439999999998,3
2024-06-14 09:35:31.936,5.88,-38.465,-6.09,-0.04026,0.045384,-1.045296,3
2024-06-14 09:35:31.941,2.66,-40.915,-7.21,-0.040504,0.047091999999999995,-1.0557880000000002,3
2024-06-14 09:35:31.945,15.120000000000001,-46.375,-5.949999999999999,-0.022448,0.049776,-1.078968,3
2024-06-14 09:35:31.950,24.29,-49.77,-5.355,-0.039772,0.04953200000000001,-1.0848240000000002,3
2024-06-14 09:35:31.955,30.169999999999998,-55.685,-5.845,-0.032208,0.053192,-1.097268,3
2024-06-14 09:35:31.960,38.675,-63.21,-5.5649999999999995,-0.02684,0.053436,-1.0909239999999998,3
2024-06-14 09:35:31.965,48.195,-74.9,-4.2,0.005124,0.070516,-1.066524,3
2024-06-14 09:35:31.970,48.754999999999995,-95.025,-4.13,-0.011467999999999999,0.014396,-1.123376,3
2024-06-14 09:35:31.974,47.81,-107.1,-3.5,-0.022935999999999998,-0.03538,-1.275144,3
2024-06-14 09:35:31.979,26.215,-109.97,-5.425,-0.05538799999999999,-0.062464,-1.5811199999999999,3
2024-06-14 09:35:31.984,5.67,-108.28999999999999,-6.965,-0.010248,-0.05782799999999999,-1.34932,3
2024-06-14 09:35:31.989,0.31500000000000006,-116.06,-5.95,-0.002684,-0.037087999999999996,-1.3685960000000001,3
2024-06-14 09:35:31.994,-2.835,-121.87,-5.04,0.016104,-0.049044000000000004,-1.371768,3
2024-06-14 09:35:31.998,-7.664999999999999,-126.91,-4.48,0.011224,-0.066612,-1.394216,3
2024-06-14 09:35:32.003,-9.135000000000002,-130.41,-2.9749999999999996,0.02074,-0.084424,-1.3990960000000001,3
2024-06-14 09:35:32.008,-12.705,-134.26,-1.47,0.01952,-0.08296,-1.4110519999999998,3
2024-06-14 09:35:32.013,-17.535,-139.265,-0.10500000000000004,0.032208,-0.10345599999999999,-1.42374,3
2024-06-14 09:35:32.018,-20.09,-145.565,1.855,0.024644,-0.100772,-1.4457,3
2024-06-14 09:35:32.023,-23.59,-152.67,3.325,0.021228,-0.07246799999999999,-1.44814,3
2024-06-14 09:35:32.027,-25.935000000000002,-161.07,4.585,0.030011999999999997,-0.062708,-1.495476,3
2024-06-14 09:35:32.032,-28.84,-168.91,4.515000000000001,0.021471999999999998,-0.028059999999999998,-1.49206,3
2024-06-14 09:35:32.037,-31.849999999999998,-175.28,4.41,0.023667999999999998,-0.047092,-1.52622,3
2024-06-14 09:35:32.042,-34.195,-183.47,4.48,0.022935999999999998,-0.025619999999999997,-1.52988,3
2024-06-14 09:35:32.047,-38.325,-194.67000000000002,3.71,0.027816,-0.009516,-1.54818,3
2024-06-14 09:35:32.051,-41.58,-207.41000000000003,3.045,0.020496,-0.00244,-1.54818,3
2024-06-14 09:35:32.056,-47.739999999999995,-221.02499999999998,1.33,0.016592000000000003,0.037332,-1.5464719999999998,3
2024-06-14 09:35:32.061,-47.915000000000006,-234.29,-0.385,0.003904,0.040748000000000006,-1.572336,3
2024-06-14 09:35:32.066,-51.135,-249.795,-1.715,-0.005124,0.04148,-1.6384599999999998,3
2024-06-14 09:35:32.071,-50.05,-265.93,-3.325,-0.0009759999999999994,-0.016592000000000003,-1.748748,3
2024-06-14 09:35:32.076,-47.74,-282.94,-3.745,-0.005368,0.014152000000000001,-1.785836,3
2024-06-14 09:35:32.080,-50.61,-303.45000000000005,-5.529999999999999,-0.007076,0.127124,-1.8246319999999998,3
2024-06-14 09:35:32.085,-44.870000000000005,-325.22,-10.5,-0.04514,0.25668799999999997,-1.773148,3
2024-06-14 09:35:32.090,-39.480000000000004,-346.255,-16.66,-0.047092,0.34184400000000004,-1.696044,3
2024-06-14 09:35:32.095,-36.61,-364.175,-24.85,-0.077104,0.357948,-1.6714,3
2024-06-14 09:35:32.100,-33.18,-382.935,-30.94,-0.039772,0.21057199999999998,-1.8116999999999999,3
2024-06-14 09:35:32.104,-32.69,-400.04999999999995,-33.985,0.01586,0.078568,-1.8483,3
2024-06-14 09:35:32.109,-31.465,-421.71500000000003,-33.32,0.12492799999999998,-0.077592,-2.074732,4
2024-06-14 09:35:32.114,-26.740000000000002,-444.43,-28.14,0.212768,-0.22082000000000002,-2.334836,4
2024-06-14 09:35:32.119,-23.869999999999997,-459.235,-19.6,0.302072,-0.24936799999999998,-2.5071000000000003,4
2024-06-14 09:35:32.124,-15.855,-469.49,-9.45,0.396256,-0.158112,-2.6798520000000003,4
2024-06-14 09:35:32.129,-19.285,-473.935,-2.87,0.406992,0.012932,-2.8079520000000002,4
2024-06-14 09:35:32.133,-15.925,-479.28999999999996,0.49,0.455792,0.21520799999999998,-2.711572,4
2024-06-14 09:35:32.138,-23.24,-476.14,-0.41999999999999993,0.63196,0.353556,-2.988512,4
2024-06-14 09:35:32.143,-37.59,-472.255,-3.4299999999999997,0.5367999999999999,0.385032,-2.7242599999999997,4
2024-06-14 09:35:32.148,-58.555,-465.15,-10.815,0.394304,0.407968,-2.81942,4
2024-06-14 09:35:32.153,-51.8,-459.62,-18.305,0.213988,0.272792,-2.727432,4
2024-06-14 09:35:32.157,-43.12,-454.19500000000005,-22.855,0.163236,0.126636,-2.557852,4
2024-06-14 09:35:32.162,-30.835,-455.45500000000004,-26.145,0.139568,0.09711199999999999,-2.5273520000000005,4
2024-06-14 09:35:32.167,-21.385,-448.21000000000004,-32.725,0.176656,0.155184,-2.439756,4
2024-06-14 09:35:32.172,-3.99,-444.67499999999995,-32.410000000000004,0.182756,0.186416,-2.866024,4
2024-06-14 09:35:32.177,5.145,-437.675,-31.85,0.08979200000000001,0.288896,-2.7074239999999996,4
2024-06-14 09:35:32.182,7.77,-414.33,-34.055,-0.289872,0.49263599999999996,-2.364116,4
2024-06-14 09:35:32.186,8.05,-383.6,-39.095,-0.7729919999999999,0.517768,-2.180872,4
2024-06-14 09:35:32.191,3.955,-346.78,-45.605000000000004,-1.261236,0.5333839999999999,-1.9351639999999999,4
2024-06-14 09:35:32.196,-8.084999999999999,-306.985,-62.614999999999995,-1.532564,0.314028,-1.722884,4
2024-06-14 09:35:32.201,-21.07,-271.355,-73.60499999999999,-2.073268,0.954528,-1.40666,4
2024-06-14 09:35:32.206,-36.82,-241.675,-89.70500000000001,-1.382016,0.38771599999999995,-1.240984,4
2024-06-14 09:35:32.210,-30.169999999999998,-255.185,-99.75,-1.1119080000000001,0.6124400000000001,-0.16006399999999998,4
2024-06-14 09:35:32.215,-15.26,-215.18,-102.375,-1.3000319999999999,0.294996,-1.748504,4
2024-06-14 09:35:32.220,-33.25,-116.75999999999999,-106.785,-1.488644,0.172264,-1.514752,4
2024-06-14 09:35:32.225,-42.245000000000005,-56.56,-108.185,-1.361276,0.06758800000000001,-1.3000319999999999,4
2024-06-14 09:35:32.230,-26.495,-16.45,-101.5,-1.20048,-0.100772,-1.1150799999999998,4
2024-06-14 09:35:32.235,0.14000000000000012,19.25,-90.02,-1.161196,-0.16738399999999998,-1.153388,4
2024-06-14 09:35:32.239,20.020000000000003,46.515,-78.855,-1.0860439999999998,-0.13785999999999998,-1.156804,4
2024-06-14 09:35:32.244,33.67,63.56,-67.235,-0.981124,-0.105164,-1.0767719999999998,4
2024-06-14 09:35:32.249,43.295,75.215,-54.95,-0.923296,-0.077592,-0.97234,4
2024-06-14 09:35:32.254,49.735,84.84,-43.33,-0.900604,-0.04514,-0.870348,4
2024-06-14 09:35:32.259,52.605000000000004,94.185,-33.6,-0.8740079999999999,0.0019520000000000006,-0.77226,4
2024-06-14 09:35:32.263,52.535,103.845,-25.235,-0.8447279999999999,0.048312,-0.697352,4
2024-06-14 09:35:32.268,49.175,114.555,-18.025,-0.8288679999999999,0.087596,-0.643428,4
2024-06-14 09:35:32.273,42.84,126.245,-12.425,-0.814716,0.11516799999999999,-0.605852,4
2024-06-14 09:35:32.278,35.35,138.70499999999998,-8.33,-0.796416,0.12492799999999998,-0.568764,4
2024-06-14 09:35:32.283,27.79,152.04,-5.46,-0.792756,0.120292,-0.549244,4
2024-06-14 09:35:32.288,21.07,166.39,-3.15,-0.778848,0.09516,-0.534848,4
2024-06-14 09:35:32.292,15.995000000000001,181.37,-1.4,-0.77104,0.062952,-0.533384,4
2024-06-14 09:35:32.297,13.195,196.84,-0.14,-0.7571319999999999,0.031476000000000004,-0.536068,4
2024-06-14 09:35:32.302,13.02,212.73,0.7,-0.7437119999999999,0.006832,-0.5477799999999999,4
2024-06-14 09:35:32.307,14.91,227.85,1.225,-0.717604,-0.01098,-0.56486,4
2024-06-14 09:35:32.312,18.095,242.305,1.365,-0.6934480000000001,-0.010492,-0.5880399999999999,4
2024-06-14 09:35:32.317,21.175,255.78,0.665,-0.660264,0.004392,-0.619028,4
2024-06-14 09:35:32.321,23.625,268.345,-1.015,-0.628544,0.027572000000000003,-0.6519680000000001,4
2024-06-14 09:35:32.326,24.884999999999998,279.96500000000003,-3.5,-0.59658,0.052704,-0.69296,4
2024-06-14 09:35:32.331,24.57,290.57,-6.93,-0.566568,0.084424,-0.7400519999999999,4
2024-06-14 09:35:32.336,22.82,301.35,-11.025,-0.5377759999999999,0.111996,-0.788364,4
2024-06-14 09:35:32.341,19.775,311.675,-15.68,-0.51362,0.129564,-0.84302,4
2024-06-14 09:35:32.345,17.15,322.28,-20.439999999999998,-0.4941,0.13810399999999998,-0.903532,4
2024-06-14 09:35:32.350,14.454999999999998,333.06,-25.375,-0.475556,0.13907999999999998,-0.957212,4
2024-06-14 09:35:32.355,11.725000000000001,344.155,-30.345,-0.466284,0.14688800000000002,-1.0121120000000001,4
2024-06-14 09:35:32.360,9.17,354.515,-35.42,-0.449692,0.158112,-1.060912,4
2024-06-14 09:35:32.365,6.79,364.28,-40.6,-0.428952,0.173728,-1.121424,4
2024-06-14 09:35:32.370,4.165,372.89,-45.815,-0.399916,0.191052,-1.1831559999999999,4
2024-06-14 09:35:32.374,0.9450000000000001,380.52,-51.59,-0.366732,0.217648,-1.238544,4
2024-06-14 09:35:32.379,-3.255,387.1,-57.68,-0.33306,0.242048,-1.288808,4
2024-06-14 09:35:32.384,-8.785,392.805,-63.91,-0.296704,0.27303599999999995,-1.359324,4
2024-06-14 09:35:32.389,-16.345,397.425,-70.21000000000001,-0.253028,0.290848,-1.414224,4
2024-06-14 09:35:32.394,-25.27,400.96000000000004,-75.88,-0.214476,0.291092,-1.489864,4
2024-06-14 09:35:32.398,-35.84,403.9,-80.465,-0.189344,0.288652,-1.550864,4
2024-06-14 09:35:32.403,-44.17,407.26,-83.58,-0.162748,0.27181599999999995,-1.6008839999999998,4
2024-06-14 09:35:32.408,-51.38,409.01,-85.68,-0.141276,0.24936799999999998,-1.690676,4
2024-06-14 09:35:32.413,-60.725,412.685,-86.975,-0.109068,0.23912,-1.7799800000000001,4
2024-06-14 09:35:32.418,-67.095,417.235,-86.975,-0.061732,0.22447999999999999,-1.7748559999999998,4
2024-06-14 09:35:32.423,-72.38,421.365,-86.87,-0.014152000000000001,0.224236,-1.851716,4
2024-06-14 09:35:32.427,-79.17,424.69,-87.465,0.012199999999999999,0.244,-1.952488,4
2024-06-14 09:35:32.432,-85.225,425.775,-88.095,0.051727999999999996,0.253272,-2.0635079999999997,4
2024-06-14 09:35:32.437,-90.44,426.09,-87.36,0.08295999999999999,0.221308,-2.119384,4
2024-06-14 09:35:32.442,-95.27000000000001,425.25,-84.98,0.107848,0.218136,-2.1608639999999997,4
2024-06-14 09:35:32.447,-101.00999999999999,422.65999999999997,-82.63499999999999,0.125904,0.24034,-2.276032,4
2024-06-14 09:35:32.451,-109.69,420.21000000000004,-81.06,0.15006000000000003,0.261324,-2.390956,4
2024-06-14 09:35:32.456,-122.11500000000001,419.195,-80.28999999999999,0.177144,0.25571199999999994,-2.467816,4
2024-06-14 09:35:32.461,-138.145,418.985,-80.325,0.207644,0.245952,-2.534916,4
2024-06-14 09:35:32.466,-156.66,419.755,-80.535,0.264496,0.20617999999999997,-2.6176320000000004,4
2024-06-14 09:35:32.471,-176.155,419.65,-79.83500000000001,0.359168,0.14615599999999998,-2.712792,4
2024-06-14 09:35:32.476,-193.515,419.195,-76.93,0.47140799999999994,0.050752,-2.827472,4
2024-06-14 09:35:32.480,-206.815,417.305,-70.63,0.6039,-0.066856,-2.92312,4
2024-06-14 09:35:32.485,-214.235,414.29499999999996,-60.34,0.7402960000000001,-0.19910399999999998,-2.999492,4
2024-06-14 09:35:32.490,-215.81,409.15,-46.269999999999996,0.8952359999999999,-0.314516,-3.076352,4
2024-06-14 09:35:32.495,-213.465,402.95500000000004,-28.875,1.056276,-0.41626399999999997,-3.142964,4
2024-06-14 09:35:32.500,-207.69,395.57,-8.89,1.22854,-0.5072760000000001,-3.180052,4
2024-06-14 09:35:32.504,-199.01,387.205,14.805,1.3283359999999997,-0.444324,-3.2127479999999995,4
2024-06-14 09:35:32.509,-185.85,375.025,51.415,1.4791280000000002,-0.35160399999999997,-3.3815959999999996,4
2024-06-14 09:35:32.514,-168.45499999999998,367.745,61.215,1.776808,-0.66124,-3.2378799999999996,4
2024-06-14 09:35:32.519,-151.095,349.72,84.97999999999999,1.9805479999999998,-0.6356200000000001,-3.1810279999999995,4
2024-06-14 09:35:32.524,-130.97,333.34000000000003,107.59,2.209908,-0.577792,-3.123688,4
2024-06-14 09:35:32.529,-111.125,314.615,127.435,2.463424,-0.48458399999999996,-2.9240959999999996,4
2024-06-14 09:35:32.533,-95.55,294.98,144.13,2.6671639999999996,-0.402112,-2.66326,4
2024-06-14 09:35:32.538,-91.875,272.65,155.015,2.817224,-0.293288,-2.5114919999999996,4
2024-06-14 09:35:32.543,-93.345,250.53,159.565,3.019012,-0.191784,-2.351916,4
2024-06-14 09:35:32.548,-90.78999999999999,226.17000000000002,161.595,3.2085999999999997,-0.21228000000000002,-2.1764799999999997,4
2024-06-14 09:35:32.553,-82.46000000000001,201.84500000000003,164.07999999999998,3.3752519999999997,-0.24790399999999999,-2.0220279999999997,4
2024-06-14 09:35:32.557,-66.85,177.415,167.475,3.5355600000000003,-0.26522799999999996,-1.81902,4
2024-06-14 09:35:32.562,-46.515,152.075,171.535,3.653656,-0.21984399999999998,-1.577216,4
2024-06-14 09:35:32.567,-40.425,131.95,171.43,4.076752,-0.06417199999999999,-1.52134,4
2024-06-14 09:35:32.572,-57.855000000000004,118.475,160.615,4.598912,0.13346799999999998,-1.4923039999999999,4
2024-06-14 09:35:32.577,-85.68,101.28999999999999,143.15,4.973208,0.127612,-1.3822599999999998,4
2024-06-14 09:35:32.582,-113.855,76.22999999999999,126.84,5.260152,-0.02684,-1.31272,4
2024-06-14 09:35:32.586,-135.83499999999998,37.345,111.755,5.356776,-0.194224,-1.337852,4
2024-06-14 09:35:32.591,-142.625,-13.195,97.895,5.229652,-0.40504,-1.433256,4
2024-06-14 09:35:32.596,-127.12,-70.14,87.255,4.951736,-0.648308,-1.5252439999999998,4
2024-06-14 09:35:32.601,-93.03,-127.26,81.305,4.541328,-0.8193520000000001,-1.5572080000000001,4
2024-06-14 09:35:32.606,-49.175,-177.205,81.16499999999999,4.035271999999999,-0.885232,-1.5645279999999997,4
2024-06-14 09:35:32.610,-3.9199999999999995,-216.44,85.96,3.540196,-0.773236,-1.584536,0
2024-06-14 09:35:32.615,64.015,-393.085,51.870000000000005,-2.62666,2.032764,-5.813544,0
