time,gyroscope_x,gyroscope_y,gyroscope_z,accelerometer_x,accelerometer_y,accelerometer_z,phase
2024-06-14 08:37:34.527,202.265,-292.705,-28.035,3.428444,-0.006343999999999999,-1.071404,1
2024-06-14 08:37:34.532,216.195,-264.775,-21.56,0.9706319999999999,-0.11101999999999998,-1.311744,1
2024-06-14 08:37:34.537,157.57,-278.005,-11.97,0.196176,-0.01586,-1.420812,1
2024-06-14 08:37:34.542,98.14,-266.245,2.38,-0.654652,0.08784,-1.8099919999999998,1
2024-06-14 08:37:34.546,57.19,-245.14,21.035,-0.586576,0.318176,-1.8246319999999998,1
2024-06-14 08:37:34.551,61.355000000000004,-242.97000000000003,35.7,-0.453352,0.050752,-2.0517959999999995,1
2024-06-14 08:37:34.556,54.495,-252.245,36.959999999999994,-0.012200000000000003,-0.129808,-2.138172,1
2024-06-14 08:37:34.561,42.629999999999995,-257.18,33.355000000000004,0.240584,-0.32134799999999997,-2.220644,1
2024-06-14 08:37:34.566,23.66,-245.49,29.75,0.1586,-0.5502199999999999,-2.508076,1
2024-06-14 08:37:34.571,6.02,-198.415,17.535,0.157136,-0.706136,-2.3960799999999995,1
2024-06-14 08:37:34.575,-10.395,-155.15499999999997,-3.815,0.14518,-0.48995199999999994,-2.3843680000000003,1
2024-06-14 08:37:34.580,-12.145,-120.53999999999999,-20.79,0.207156,-0.275232,-2.000556,1
2024-06-14 08:37:34.585,-19.285,-76.09,-29.925,0.242048,-0.101504,-1.879532,1
2024-06-14 08:37:34.590,-15.295000000000002,-60.795,-26.04,0.23058,0.12126799999999999,-1.763388,1
2024-06-14 08:37:34.595,-14.035,-48.545,-13.475,0.136152,0.288896,-1.484496,1
2024-06-14 08:37:34.599,-5.25,-49.7,-0.7350000000000001,0.113948,0.325008,-1.411052,1
2024-06-14 08:37:34.604,4.48,-52.43,4.76,0.106872,0.181292,-1.309548,1
2024-06-14 08:37:34.609,10.92,-51.94,4.795,0.0305,0.031232,-1.158024,1
2024-06-14 08:37:34.614,13.335,-47.425,2.31,-0.05002,-0.017079999999999998,-1.0187,2
2024-06-14 08:37:34.619,13.649999999999999,-38.989999999999995,-0.8049999999999999,-0.014395999999999999,-0.027084,-1.010892,2
2024-06-14 08:37:34.624,13.754999999999999,-31.85,-1.47,-0.011224000000000001,0.0305,-1.00894,2
2024-06-14 08:37:34.628,15.015,-26.705,-0.49,0.009515999999999998,0.066612,-1.026508,2
2024-06-14 08:37:34.633,16.59,-25.095,0.875,0.032208,0.034648,-1.0760399999999999,2
2024-06-14 08:37:34.638,16.134999999999998,-26.25,1.9249999999999998,0.003904,0.017568,-1.075552,2
2024-06-14 08:37:34.643,15.085,-28.245,1.435,-0.045628,-0.00048800000000000004,-1.0787239999999998,2
2024-06-14 08:37:34.648,13.754999999999999,-30.17,0.31500000000000006,-0.054412,0.000732,-1.085312,2
2024-06-14 08:37:34.653,12.145,-32.30500000000001,-0.8049999999999999,-0.048311999999999994,-0.0075639999999999995,-1.0762839999999998,2
2024-06-14 08:37:34.657,10.255,-34.825,-0.8049999999999999,-0.05734,-0.007808000000000001,-1.0814080000000001,2
2024-06-14 08:37:34.662,8.365,-40.285,-0.665,-0.068564,-0.0031719999999999995,-1.0809199999999999,2
2024-06-14 08:37:34.667,7.21,-46.375,-1.155,-0.063928,-0.000732,-1.086776,2
2024-06-14 08:37:34.672,5.46,-51.66,-1.8900000000000001,-0.060023999999999994,-0.014395999999999999,-1.071404,2
2024-06-14 08:37:34.677,2.9749999999999996,-53.83,-1.855,-0.05978,-0.025376000000000003,-1.052616,2
2024-06-14 08:37:34.682,-0.525,-56.21,-1.6099999999999999,-0.034159999999999996,-0.042943999999999996,-1.069696,2
2024-06-14 08:37:34.686,-4.375,-56.91,-1.155,-0.025376000000000003,-0.05002,-1.077992,2
2024-06-14 08:37:34.691,-8.54,-58.555,-0.9450000000000001,-0.037332000000000004,-0.033428,-1.068964,2
2024-06-14 08:37:34.696,-11.165,-60.2,-1.12,-0.05660799999999999,-0.01586,-1.073356,2
2024-06-14 08:37:34.701,-12.774999999999999,-61.985,-1.645,-0.060024,0.0014639999999999996,-1.062132,2
2024-06-14 08:37:34.706,-14.245000000000001,-64.225,-2.31,-0.041968000000000005,-0.00244,-1.0518839999999998,2
2024-06-14 08:37:34.711,-15.435,-63.84,-2.625,0.002196,-0.010979999999999998,-1.045296,2
2024-06-14 08:37:34.715,-17.395000000000003,-63.769999999999996,-2.6950000000000003,0.008539999999999999,-0.012931999999999999,-1.0450519999999999,2
2024-06-14 08:37:34.720,-18.655,-62.86,-2.45,0.008784000000000002,-0.017079999999999998,-1.042612,2
2024-06-14 08:37:34.725,-19.985,-63.07,-1.8900000000000001,-0.00048800000000000004,-0.022692,-1.04798,2
2024-06-14 08:37:34.730,-20.895,-61.25,-1.5750000000000002,-0.00488,-0.015127999999999999,-1.0531039999999998,2
2024-06-14 08:37:34.735,-16.03,-60.34,-0.77,-0.0021959999999999996,0.010491999999999998,-1.05408,2
2024-06-14 08:37:34.740,-16.485,-61.6,-1.505,0.0053679999999999995,0.029768,-1.044076,2
2024-06-14 08:37:34.744,-17.395,-66.185,-2.2399999999999998,0.017812,0.060024,-1.0287039999999998,2
2024-06-14 08:37:34.749,-12.67,-67.48,-3.1849999999999996,0.018788,0.088816,-1.033828,2
2024-06-14 08:37:34.754,-2.1699999999999995,-75.88,-3.2199999999999998,0.028547999999999997,0.08784,-1.0274839999999998,2
2024-06-14 08:37:34.759,-5.635,-68.215,-4.0600000000000005,0.041968,0.097356,-1.007964,2
2024-06-14 08:37:34.764,-4.27,-62.230000000000004,-4.795,0.056608000000000006,0.081984,-1.004304,2
2024-06-14 08:37:34.768,-1.9249999999999998,-71.435,-4.41,0.074176,0.034892,-1.013576,2
2024-06-14 08:37:34.773,2.415,-71.505,-3.29,0.06709999999999999,0.051484,-1.02968,2
2024-06-14 08:37:34.778,2.4499999999999997,-68.425,-2.87,0.069052,0.026352,-1.041392,2
2024-06-14 08:37:34.783,0.31499999999999995,-62.965,-2.135,0.07124799999999999,0.009516,-1.033828,2
2024-06-14 08:37:34.788,-3.535,-65.73,-1.295,0.07564000000000001,-0.011224,-1.070916,2
2024-06-14 08:37:34.793,-5.949999999999999,-33.915,-0.38500000000000006,0.097112,-0.05978,-1.1128839999999998,2
2024-06-14 08:37:34.797,-17.43,-64.68,1.12,0.0793,-0.022691999999999997,-1.122156,2
2024-06-14 08:37:34.802,-23.695,-63.0,1.19,0.08491199999999999,-0.012444,-1.099952,2
2024-06-14 08:37:34.807,-21.490000000000002,-65.94,2.8,0.08662,0.0002440000000000003,-1.091168,2
2024-06-14 08:37:34.812,-25.375,-66.85,2.87,0.08784,0.03952800000000001,-1.0772599999999999,2
2024-06-14 08:37:34.817,-26.915,-70.21000000000001,1.995,0.08613200000000001,0.040748000000000006,-1.06018,2
2024-06-14 08:37:34.822,-33.879999999999995,-70.41999999999999,0.91,0.09198799999999999,0.056608,-1.092144,2
2024-06-14 08:37:34.826,-27.79,-66.36,1.155,0.10858,0.042212,-1.0748199999999999,2
2024-06-14 08:37:34.831,-26.880000000000003,-65.065,1.225,0.117852,0.056608,-1.0274839999999998,2
2024-06-14 08:37:34.836,-26.775,-65.38,0.98,0.12224399999999999,0.058072,-0.997472,2
2024-06-14 08:37:34.841,-30.939999999999998,-65.66,0.06999999999999998,0.134444,0.041724,-0.98454,2
2024-06-14 08:37:34.846,-30.38,-64.05,-0.315,0.14518,0.048311999999999994,-0.994056,2
2024-06-14 08:37:34.851,-28.384999999999998,-58.415,-0.06999999999999998,0.15176800000000001,0.04758,-0.978684,2
2024-06-14 08:37:34.855,-26.424999999999997,-54.985,0.35,0.157868,0.057095999999999994,-0.9750239999999999,2
2024-06-14 08:37:34.860,-25.060000000000002,-53.129999999999995,0.24500000000000002,0.16006399999999998,0.054655999999999996,-0.976488,2
2024-06-14 08:37:34.865,-23.345,-51.24,0.385,0.169092,0.060267999999999995,-0.971364,3
2024-06-14 08:37:34.870,-21.42,-49.07,0.49,0.17836400000000002,0.078568,-0.96502,3
2024-06-14 08:37:34.875,-19.564999999999998,-46.620000000000005,0.35,0.180316,0.08515600000000001,-0.963556,3
2024-06-14 08:37:34.880,-17.57,-44.03,0.245,0.179584,0.081008,-0.955992,3
2024-06-14 08:37:34.884,-15.61,-42.07,0.07,0.178852,0.078812,-0.955992,3
2024-06-14 08:37:34.889,-13.754999999999999,-40.705,-0.10500000000000001,0.177632,0.080764,-0.959164,3
2024-06-14 08:37:34.894,-11.935,-39.585,-0.315,0.18056,0.086376,-0.958188,3
2024-06-14 08:37:34.899,-10.045,-38.71,-0.28,0.18666,0.088084,-0.966484,3
2024-06-14 08:37:34.904,-8.54,-38.01,-0.63,0.186172,0.091256,-0.9706319999999999,3
2024-06-14 08:37:34.908,-7.35,-37.730000000000004,-1.155,0.188612,0.09516,-0.9725839999999999,3
2024-06-14 08:37:34.913,-6.335,-37.205,-1.295,0.191784,0.088084,-0.9730719999999999,3
2024-06-14 08:37:34.918,-5.495,-36.75,-1.68,0.20007999999999998,0.089548,-0.983076,3
2024-06-14 08:37:34.923,-4.9350000000000005,-36.155,-1.855,0.20496,0.083936,-0.9835639999999999,3
2024-06-14 08:37:34.928,-4.445,-35.84,-1.96,0.20862,0.08052,-0.9950319999999999,3
2024-06-14 08:37:34.933,-4.13,-35.595,-2.135,0.2135,0.07197999999999999,-0.996984,3
2024-06-14 08:37:34.937,-3.885,-35.665000000000006,-1.9949999999999999,0.21472000000000002,0.071492,-1.0018639999999999,3
2024-06-14 08:37:34.942,-3.955,-35.595,-2.03,0.21594000000000002,0.079544,-1.0035720000000001,3
2024-06-14 08:37:34.947,-3.71,-35.49,-2.065,0.218136,0.07344400000000001,-1.005036,3
2024-06-14 08:37:34.952,-3.5,-35.175,-2.065,0.219356,0.073688,-1.0047920000000001,3
2024-06-14 08:37:34.957,-3.6399999999999997,-35.0,-2.0300000000000002,0.224968,0.06612399999999999,-1.014796,3
2024-06-14 08:37:34.962,-3.64,-35.14,-1.75,0.227408,0.06222,-1.02236,3
2024-06-14 08:37:34.966,-4.165,-35.595,-1.295,0.23326399999999997,0.06709999999999999,-1.033828,3
2024-06-14 08:37:34.971,-4.55,-36.224999999999994,-1.19,0.23472800000000002,0.06588,-1.0401719999999999,3
2024-06-14 08:37:34.976,-5.494999999999999,-36.715,-1.12,0.233752,0.071492,-1.041392,3
2024-06-14 08:37:34.980,-6.4399999999999995,-38.43,-0.98,0.227408,0.069784,-1.062376,3
2024-06-14 08:37:34.985,-7.63,-40.285,-0.77,0.231068,0.069296,-1.086044,3
2024-06-14 08:37:34.990,-8.61,-42.385,-0.77,0.22887199999999996,0.066612,-1.104344,3
2024-06-14 08:37:34.994,-9.975,-45.115,-0.8400000000000001,0.23399599999999998,0.064416,-1.120692,3
2024-06-14 08:37:34.999,-11.165,-47.879999999999995,-0.665,0.23033599999999999,0.06734399999999999,-1.13216,3
2024-06-14 08:37:35.004,-12.495000000000001,-50.715,-0.595,0.236192,0.07173600000000001,-1.14192,3
2024-06-14 08:37:35.009,-13.405000000000001,-54.39,-0.525,0.23497200000000001,0.066124,-1.155096,3
2024-06-14 08:37:35.014,-14.98,-57.575,-0.315,0.24302400000000002,0.057828000000000004,-1.164368,3
2024-06-14 08:37:35.019,-16.59,-61.215,-0.10500000000000001,0.24497600000000003,0.064416,-1.170712,3
2024-06-14 08:37:35.023,-17.85,-64.67999999999999,0.07,0.251808,0.06539199999999999,-1.1831559999999999,3
2024-06-14 08:37:35.028,-19.39,-68.425,0.14,0.254004,0.075152,-1.197064,3
2024-06-14 08:37:35.033,-20.72,-72.41499999999999,0.035,0.25254,0.08418,-1.2141440000000001,3
2024-06-14 08:37:35.038,-20.93,-77.56,-0.14,0.24668400000000001,0.093696,-1.229516,3
2024-06-14 08:37:35.043,-20.79,-83.055,-0.49,0.250344,0.108336,-1.25294,3
2024-06-14 08:37:35.048,-20.72,-88.69,-1.12,0.2501,0.13395600000000002,-1.2565999999999997,3
2024-06-14 08:37:35.052,-21.490000000000002,-94.605,-2.45,0.26205599999999996,0.162992,-1.2695319999999999,3
2024-06-14 08:37:35.057,-21.875,-100.905,-4.095000000000001,0.262788,0.17324,-1.284172,3
2024-06-14 08:37:35.062,-21.735,-107.38,-5.74,0.258884,0.165676,-1.30052,3
2024-06-14 08:37:35.067,-20.229999999999997,-114.695,-7.245,0.261568,0.16128399999999998,-1.304668,3
2024-06-14 08:37:35.072,-18.619999999999997,-122.57,-8.434999999999999,0.26352,0.161772,-1.3146719999999998,3
2024-06-14 08:37:35.077,-17.85,-130.445,-9.765,0.258884,0.147132,-1.315648,3
2024-06-14 08:37:35.081,-15.785,-138.39,-10.605,0.270352,0.13224799999999998,-1.3295560000000002,3
2024-06-14 08:37:35.086,-14.315,-146.57999999999998,-11.2,0.270352,0.142984,-1.338828,3
2024-06-14 08:37:35.091,-15.855,-154.91,-12.74,0.27937999999999996,0.155428,-1.3542,3
2024-06-14 08:37:35.096,-16.1,-163.87,-13.754999999999999,0.279624,0.12273200000000001,-1.385676,3
2024-06-14 08:37:35.101,-14.875,-173.67000000000002,-14.245000000000001,0.27449999999999997,0.142984,-1.407392,3
2024-06-14 08:37:35.106,-15.96,-183.225,-15.89,0.270352,0.193736,-1.427644,3
2024-06-14 08:37:35.111,-18.515,-192.99,-18.305,0.279624,0.1891,-1.4457,3
2024-06-14 08:37:35.115,-19.18,-204.225,-20.439999999999998,0.282064,0.185196,-1.4740039999999999,3
2024-06-14 08:37:35.120,-20.369999999999997,-216.01999999999998,-22.365000000000002,0.27669599999999994,0.18422,-1.49328,3
2024-06-14 08:37:35.125,-22.05,-228.83,-24.57,0.281088,0.18958799999999998,-1.5154839999999998,3
2024-06-14 08:37:35.130,-25.725,-241.78,-26.705,0.283528,0.174704,-1.588928,3
2024-06-14 08:37:35.135,-28.84,-254.58999999999997,-28.35,0.288896,0.14762000000000003,-1.64822,3
2024-06-14 08:37:35.140,-26.950000000000003,-272.72,-29.05,0.306464,0.18836799999999998,-1.6723759999999999,3
2024-06-14 08:37:35.144,-27.160000000000004,-285.6,-31.115,0.321592,0.199104,-1.7489919999999999,3
2024-06-14 08:37:35.149,-34.23,-300.15999999999997,-31.990000000000002,0.332328,0.152256,-1.891,3
2024-06-14 08:37:35.154,-32.62,-315.105,-32.41,0.29255600000000004,0.180316,-1.946632,3
2024-06-14 08:37:35.159,-33.425,-330.435,-33.67,0.30646399999999996,0.221796,-2.0191,3
2024-06-14 08:37:35.164,-34.3,-345.24,-35.595,0.327936,0.18836799999999998,-2.1484199999999998,3
2024-06-14 08:37:35.169,-29.54,-360.64,-35.35,0.36356,0.18422,-2.185752,3
2024-06-14 08:37:35.173,-16.555,-374.78,-33.985,0.395768,0.20129999999999998,-2.201368,3
2024-06-14 08:37:35.178,-28.07,-384.125,-35.945,0.426512,0.21838,-2.478064,3
2024-06-14 08:37:35.183,-25.725,-396.40999999999997,-35.455,0.406504,0.305976,-2.521496,3
2024-06-14 08:37:35.188,-27.125,-400.855,-38.36,0.43456399999999995,0.40137999999999996,-2.6622839999999997,3
2024-06-14 08:37:35.193,-25.095,-407.78499999999997,-44.205,0.367464,0.470676,-2.640324,3
2024-06-14 08:37:35.198,-17.36,-412.82500000000005,-49.315,0.316956,0.458232,-2.688148,3
2024-06-14 08:37:35.202,-10.36,-415.73,-58.275,0.306708,0.517524,-2.69742,3
2024-06-14 08:37:35.207,7.49,-422.31,-66.08,0.355996,0.6402559999999999,-2.650816,3
2024-06-14 08:37:35.212,14.735,-434.49,-70.385,0.586332,0.902312,-2.4224319999999997,3
2024-06-14 08:37:35.217,8.504999999999999,-458.32500000000005,-72.87,0.505324,1.0911680000000001,-2.1642799999999998,4
2024-06-14 08:37:35.222,-9.695,-467.67,-88.55,0.5392399999999999,1.2587959999999998,-2.058872,4
2024-06-14 08:37:35.227,-13.93,-460.03999999999996,-97.65,0.284748,1.269288,-2.110112,4
2024-06-14 08:37:35.231,-46.795,-455.14,-111.125,0.042212,1.398608,-2.1569599999999998,4
2024-06-14 08:37:35.236,-81.935,-445.27,-126.77,-0.2257,1.4195919999999997,-2.101328,4
2024-06-14 08:37:35.241,-117.04,-432.95000000000005,-140.805,-0.452132,1.315648,-1.99592,4
2024-06-14 08:37:35.246,-146.57999999999998,-416.045,-156.03,-0.511424,1.2517200000000002,-1.9851839999999998,4
2024-06-14 08:37:35.251,-169.435,-401.45,-174.79000000000002,-0.83082,1.1977959999999999,-1.920036,4
2024-06-14 08:37:35.256,-184.205,-379.19,-197.26,-1.0431,1.033828,-1.6875040000000001,4
2024-06-14 08:37:35.260,-185.85,-346.745,-217.14,-1.118008,0.8435079999999999,-1.480836,4
2024-06-14 08:37:35.265,-178.185,-307.825,-233.135,-0.87474,0.525088,-1.282464,4
2024-06-14 08:37:35.270,-157.22,-280.105,-220.36,-0.175924,0.566568,-0.7966599999999999,4
2024-06-14 08:37:35.275,-119.175,-208.67000000000002,-183.47,-0.5685199999999999,0.031232000000000003,-1.1338679999999999,4
2024-06-14 08:37:35.280,-97.50999999999999,-104.195,-140.875,-1.539884,-0.43187999999999993,-0.835456,4
2024-06-14 08:37:35.285,-69.44,-10.815000000000001,-91.07,-1.945412,-0.6117079999999999,-0.374784,4
2024-06-14 08:37:35.289,-24.534999999999997,66.5,-39.025000000000006,-1.6260160000000001,-0.5009319999999999,-0.360144,4
2024-06-14 08:37:35.294,31.22,132.265,4.9350000000000005,-1.1702240000000002,-0.327448,-0.6148799999999999,4
2024-06-14 08:37:35.299,81.34,185.43,36.995,-0.9860040000000001,-0.228628,-0.8200839999999999,4
2024-06-14 08:37:35.304,118.195,225.015,56.455,-0.96014,-0.066612,-0.8830359999999999,4
2024-06-14 08:37:35.309,143.85,254.415,62.754999999999995,-0.909388,0.192272,-0.8708359999999999,4
2024-06-14 08:37:35.314,158.89999999999998,277.05999999999995,58.275,-0.818376,0.428708,-0.888892,4
2024-06-14 08:37:35.319,159.075,295.015,45.85,-0.711016,0.566568,-0.940376,4
2024-06-14 08:37:35.323,143.325,309.12,28.35,-0.606828,0.66368,-0.9799039999999999,4
2024-06-14 08:37:35.328,117.18,319.235,7.91,-0.523868,0.7390760000000001,-0.9969839999999999,4
2024-06-14 08:37:35.333,86.73,325.43,-13.544999999999998,-0.47043199999999996,0.759084,-0.994056,4
2024-06-14 08:37:35.338,56.665,328.895,-34.02,-0.429928,0.68808,-0.97478,4
2024-06-14 08:37:35.343,29.82,330.435,-51.519999999999996,-0.398452,0.575108,-0.9420839999999999,4
2024-06-14 08:37:35.348,9.275,331.31,-64.75,-0.393084,0.44042000000000003,-0.8930400000000001,4
2024-06-14 08:37:35.352,-3.535,333.795,-72.94,-0.389424,0.30378,-0.858636,4
2024-06-14 08:37:35.357,-8.155000000000001,337.155,-76.3,-0.367464,0.17812,-0.847168,4
2024-06-14 08:37:35.362,-5.25,340.62,-75.285,-0.33232799999999996,0.074908,-0.870104,4
2024-06-14 08:37:35.367,2.6599999999999997,343.385,-70.98,-0.30353600000000003,0.006100000000000001,-0.89792,4
2024-06-14 08:37:35.372,13.684999999999999,346.53499999999997,-63.94500000000001,-0.2867,-0.020007999999999998,-0.921588,4
2024-06-14 08:37:35.377,24.185000000000002,350.105,-55.58,-0.265472,-0.008539999999999999,-0.934764,4
2024-06-14 08:37:35.381,31.884999999999998,353.91999999999996,-46.864999999999995,-0.25961599999999996,0.033184,-0.9525760000000001,4
2024-06-14 08:37:35.386,35.455,357.0,-39.025000000000006,-0.252784,0.10467599999999999,-0.9791719999999999,4
2024-06-14 08:37:35.391,34.615,358.82,-32.13,-0.23863199999999998,0.174948,-1.005768,4
2024-06-14 08:37:35.396,29.155,360.46500000000003,-26.11,-0.224968,0.223748,-1.031632,4
2024-06-14 08:37:35.401,19.495,361.62,-20.755000000000003,-0.223992,0.25839599999999996,-1.0535919999999999,4
2024-06-14 08:37:35.406,8.225,364.07000000000005,-15.61,-0.218136,0.252052,-1.0796999999999999,4
2024-06-14 08:37:35.410,-4.165,367.255,-10.254999999999999,-0.24204799999999999,0.244732,-1.114592,4
2024-06-14 08:37:35.415,-14.525,370.895,-4.55,-0.23692400000000002,0.202032,-1.146068,4
2024-06-14 08:37:35.420,-22.82,374.95500000000004,1.855,-0.227408,0.168848,-1.191452,4
2024-06-14 08:37:35.425,-28.525,378.17499999999995,8.505,-0.204716,0.155916,-1.244156,4
2024-06-14 08:37:35.430,-32.34,379.71500000000003,14.735,-0.16836,0.15250000000000002,-1.310036,4
2024-06-14 08:37:35.435,-35.735,379.4,20.229999999999997,-0.12444,0.162992,-1.38714,4
2024-06-14 08:37:35.439,-39.760000000000005,377.125,24.71,-0.082228,0.181292,-1.4525320000000002,4
2024-06-14 08:37:35.444,-44.8,373.625,28.105,-0.044896000000000005,0.202764,-1.49694,4
2024-06-14 08:37:35.449,-51.03,369.39,30.17,-0.030011999999999997,0.221308,-1.5545239999999998,4
2024-06-14 08:37:35.454,-58.24,364.84000000000003,31.325,-0.0034159999999999998,0.23912,-1.614792,4
2024-06-14 08:37:35.459,-65.59,360.43,32.06,0.018543999999999998,0.225456,-1.6667640000000001,4
2024-06-14 08:37:35.464,-72.38,356.23,33.285,0.035136,0.210572,-1.7155639999999999,4
2024-06-14 08:37:35.468,-77.455,352.16999999999996,34.614999999999995,0.048068,0.18178,-1.7733919999999999,4
2024-06-14 08:37:35.473,-80.85,348.66999999999996,36.68,0.06636799999999998,0.14615599999999998,-1.823168,4
2024-06-14 08:37:35.478,-82.46000000000001,345.87,39.795,0.08588799999999999,0.116632,-1.875872,4
2024-06-14 08:37:35.483,-83.22999999999999,343.98,44.31,0.104188,0.101016,-1.921256,4
2024-06-14 08:37:35.488,-83.895,343.28,49.875,0.129076,0.083204,-1.96176,4
2024-06-14 08:37:35.493,-84.875,343.56,56.56,0.15616000000000002,0.063196,-1.9998239999999998,4
2024-06-14 08:37:35.497,-85.53999999999999,344.015,64.33,0.19397999999999999,0.06368399999999999,-2.040816,4
2024-06-14 08:37:35.502,-87.60499999999999,343.875,71.53999999999999,0.23619199999999999,0.081984,-2.087176,4
2024-06-14 08:37:35.507,-94.045,343.03499999999997,75.74000000000001,0.286456,0.09418399999999999,-2.124752,4
2024-06-14 08:37:35.512,-100.66,342.02,76.78999999999999,0.32866799999999996,0.069784,-2.149884,4
2024-06-14 08:37:35.517,-104.16,340.76,75.88,0.371612,0.016104,-2.1874599999999997,4
2024-06-14 08:37:35.522,-102.62,338.695,74.375,0.41724,-0.037087999999999996,-2.2203999999999997,4
2024-06-14 08:37:35.529,-97.02000000000001,335.93,72.485,0.45261999999999997,-0.07539599999999999,-2.243336,4
2024-06-14 08:37:35.533,-88.655,333.655,69.93,0.475312,-0.09028,-2.2630999999999997,4
2024-06-14 08:37:35.538,-79.38,331.83500000000004,66.78,0.49629599999999996,-0.077104,-2.277984,4
2024-06-14 08:37:35.543,-70.56,330.19,63.42,0.544608,-0.044163999999999995,-2.2984799999999996,4
2024-06-14 08:37:35.548,-63.629999999999995,328.78999999999996,60.095,0.6107319999999999,0.004392,-2.3119,4
2024-06-14 08:37:35.553,-58.555,327.66999999999996,56.945,0.69906,0.067832,-2.327516,4
2024-06-14 08:37:35.557,-54.67,326.16499999999996,54.075,0.801296,0.132004,-2.3419119999999998,4
2024-06-14 08:37:35.562,-51.485,323.89,51.205,0.907924,0.197884,-2.34728,4
2024-06-14 08:37:35.567,-49.315,320.42499999999995,48.16,1.017724,0.277184,-2.3382519999999998,4
2024-06-14 08:37:35.572,-49.35,315.455,44.555,1.126304,0.363316,-2.3160480000000003,4
2024-06-14 08:37:35.577,-53.13,309.155,39.864999999999995,1.247572,0.457012,-2.292868,4
2024-06-14 08:37:35.582,-60.935,300.825,33.915000000000006,1.38104,0.52948,-2.26554,4
2024-06-14 08:37:35.586,-72.03,291.83,26.95,1.52378,0.5587599999999999,-2.2252799999999997,4
2024-06-14 08:37:35.591,-84.42,281.82,19.74,1.684332,0.543388,-2.1935599999999997,4
2024-06-14 08:37:35.596,-96.145,270.69,13.405000000000001,1.8463479999999999,0.49483200000000005,-2.136952,4
2024-06-14 08:37:35.601,-105.97999999999999,258.23,7.945,2.01788,0.39894,-2.073024,4
2024-06-14 08:37:35.606,-114.905,243.845,3.6399999999999997,2.199904,0.270352,-2.001532,4
2024-06-14 08:37:35.610,-123.83,227.04500000000002,0.9450000000000001,2.420724,0.09686800000000001,-1.9249159999999998,4
2024-06-14 08:37:35.615,-132.405,208.005,0.84,2.656672,-0.11687600000000001,-1.844884,4
2024-06-14 08:37:35.620,-138.6,186.235,4.2,2.915312,-0.372832,-1.754604,4
2024-06-14 08:37:35.625,-141.575,162.78500000000003,11.48,3.184688,-0.6622159999999999,-1.671888,4
2024-06-14 08:37:35.630,-140.035,138.81,22.4,3.4579679999999997,-0.9640439999999999,-1.607716,4
2024-06-14 08:37:35.635,-131.18,113.85499999999999,36.785,3.6783,-1.247084,-1.565504,4
2024-06-14 08:37:35.639,-112.7,88.235,52.605000000000004,3.805668,-1.4757120000000001,-1.5301239999999998,4
2024-06-14 08:37:35.644,-82.845,62.510000000000005,67.48,3.804204,-1.602104,-1.467416,4
2024-06-14 08:37:35.649,-44.835,38.150000000000006,78.53999999999999,3.687328,-1.578436,-1.4156879999999998,4
2024-06-14 08:37:35.654,-5.355,16.135,83.475,3.497496,-1.3929960000000001,-1.369084,4
2024-06-14 08:37:35.659,28.175,-2.485,81.655,3.2347079999999995,-1.103856,-1.3127199999999999,4
2024-06-14 08:37:35.663,51.870000000000005,-17.22,74.935,2.95118,-0.781044,-1.243668,4
2024-06-14 08:37:35.668,65.59,-28.035,65.87,2.666676,-0.516304,-1.17608,4
2024-06-14 08:37:35.673,72.065,-36.504999999999995,56.875,2.411452,-0.337452,-1.124108,4
2024-06-14 08:37:35.678,103.10999999999999,-95.095,55.93,3.224216,-0.171532,-1.793644,4
