time,gyroscope_x,gyroscope_y,gyroscope_z,accelerometer_x,accelerometer_y,accelerometer_z,phase
2024-06-14 11:16:58.589,-260.26,-405.33500000000004,-9.8,5.231604,3.665856,-6.205407999999999,1
2024-06-14 11:16:58.594,-231.0,-341.495,-61.459999999999994,1.400072,0.13297999999999996,-0.45457200000000003,1
2024-06-14 11:16:58.599,-253.365,-304.43,-62.05500000000001,-0.767624,-0.12907600000000002,0.193248,1
2024-06-14 11:16:58.603,-183.505,-292.66999999999996,-70.525,0.33428,-0.283284,-1.563796,1
2024-06-14 11:16:58.608,-77.945,-262.675,-94.745,-1.041148,0.000732,-1.372744,1
2024-06-14 11:16:58.613,-2.0300000000000002,-273.245,-120.47,-0.613172,-0.0009759999999999999,-1.4559479999999998,1
2024-06-14 11:16:58.618,37.555,-287.105,-132.01999999999998,-0.260348,0.127856,-1.567212,1
2024-06-14 11:16:58.623,45.08,-289.16999999999996,-128.41500000000002,0.13200399999999998,0.33720799999999995,-1.60918,1
2024-06-14 11:16:58.628,49.28,-287.175,-115.605,0.39894,0.510448,-1.6286999999999998,1
2024-06-14 11:16:58.632,45.22,-295.12,-95.97,0.377712,0.645624,-1.86538,1
2024-06-14 11:16:58.637,46.480000000000004,-301.90999999999997,-66.36,0.22326,0.915244,-2.387296,1
2024-06-14 11:16:58.642,36.96,-302.05,-31.009999999999998,0.141764,0.883768,-2.9894879999999997,1
2024-06-14 11:16:58.647,32.795,-254.065,4.865,0.129808,0.531432,-2.876516,1
2024-06-14 11:16:58.652,21.42,-170.73000000000002,25.130000000000003,0.18178,0.03172,-2.254072,1
2024-06-14 11:16:58.657,9.905000000000001,-94.815,21.91,0.138348,-0.2623,-1.9234520000000002,1
2024-06-14 11:16:58.661,5.32,-45.955,6.335,0.126636,-0.332816,-1.4091,1
2024-06-14 11:16:58.666,6.300000000000001,-23.38,-12.985000000000001,0.127856,-0.225456,-1.266116,1
2024-06-14 11:16:58.671,6.545,-11.305,-21.735,0.018788,-0.040992,-1.135576,1
2024-06-14 11:16:58.676,2.94,-9.835,-15.225000000000001,-0.084668,0.05734,-1.052616,1
2024-06-14 11:16:58.681,1.085,-6.79,-5.775,-0.093208,0.078568,-1.01382,1
2024-06-14 11:16:58.685,1.085,-4.97,0.595,-0.03782,0.020739999999999995,-1.0335839999999998,1
2024-06-14 11:16:58.690,1.225,-5.285,0.805,-0.040504,-0.043432,-1.04432,1
2024-06-14 11:16:58.695,1.54,-5.53,-2.625,-0.025619999999999997,-0.048799999999999996,-1.04432,2
2024-06-14 11:16:58.700,1.19,-4.585,-4.27,-0.068076,-0.017324,-1.020408,2
2024-06-14 11:16:58.705,0.21000000000000002,-2.24,-2.345,-0.088328,-0.01952,-1.025288,2
2024-06-14 11:16:58.710,-1.12,-1.54,1.05,-0.06758800000000001,-0.029524,-1.0460279999999997,2
2024-06-14 11:16:58.714,-1.435,-1.155,1.085,-0.067588,-0.026352,-1.0492,2
2024-06-14 11:16:58.719,-0.7350000000000001,-2.065,0.21,-0.083692,-0.030255999999999998,-1.0396839999999998,2
2024-06-14 11:16:58.724,-0.28,-2.8,0.35,-0.088816,-0.01342,-1.0372439999999998,2
2024-06-14 11:16:58.729,0.42,-2.9749999999999996,0.63,-0.08662,-0.004148,-1.02602,2
2024-06-14 11:16:58.734,1.225,-3.08,0.63,-0.08637600000000001,-0.01952,-1.022116,2
2024-06-14 11:16:58.739,1.54,-3.115,0.42,-0.08637600000000001,-0.025132,-1.0169920000000001,2
2024-06-14 11:16:58.743,1.7149999999999999,-3.115,0.315,-0.090768,-0.025131999999999998,-1.01748,2
2024-06-14 11:16:58.748,1.7850000000000001,-4.27,0.45499999999999996,-0.094916,-0.025132,-1.013088,2
2024-06-14 11:16:58.753,1.75,-6.37,0.5599999999999999,-0.098088,-0.02806,-1.02358,2
2024-06-14 11:16:58.758,1.54,-8.504999999999999,0.77,-0.09759999999999999,-0.025863999999999998,-1.027972,2
2024-06-14 11:16:58.763,1.435,-9.94,0.77,-0.095648,-0.02318,-1.0248,2
2024-06-14 11:16:58.768,1.435,-11.375,0.8049999999999999,-0.095648,-0.018543999999999998,-1.020652,2
2024-06-14 11:16:58.772,1.61,-12.565,0.8049999999999999,-0.08979200000000001,-0.019032,-1.016504,2
2024-06-14 11:16:58.777,1.75,-12.600000000000001,0.84,-0.090524,-0.017079999999999998,-1.0201639999999998,2
2024-06-14 11:16:58.782,1.855,-13.265,0.9450000000000001,-0.096136,-0.016104,-1.023336,2
2024-06-14 11:16:58.787,1.8199999999999998,-14.14,0.98,-0.09394,-0.020496,-1.022848,2
2024-06-14 11:16:58.792,1.96,-14.91,1.155,-0.0915,-0.02196,-1.02236,2
2024-06-14 11:16:58.797,2.0300000000000002,-15.75,1.19,-0.089304,-0.02196,-1.020652,2
2024-06-14 11:16:58.801,2.17,-16.380000000000003,1.19,-0.084424,-0.015616000000000001,-1.016748,2
2024-06-14 11:16:58.806,2.0999999999999996,-17.255000000000003,1.225,-0.088816,-0.021716,-1.018456,2
2024-06-14 11:16:58.811,2.065,-17.744999999999997,1.155,-0.084912,-0.020496,-1.018456,2
2024-06-14 11:16:58.816,1.6099999999999999,0.5250000000000004,1.155,-0.08003199999999999,-0.022935999999999998,-1.0169920000000001,2
2024-06-14 11:16:58.821,1.96,-17.57,1.155,-0.082716,-0.026108,-1.01626,2
2024-06-14 11:16:58.825,1.6099999999999999,-18.865000000000002,1.12,-0.084668,-0.022448000000000003,-1.016016,2
2024-06-14 11:16:58.830,0.665,-17.044999999999998,1.1199999999999999,-0.079544,-0.020252,-1.015284,2
2024-06-14 11:16:58.835,1.295,-17.92,1.085,-0.076128,-0.021227999999999997,-1.009916,2
2024-06-14 11:16:58.840,0.63,-20.3,1.19,-0.080276,-0.023668,-1.0126,2
2024-06-14 11:16:58.845,-0.665,-19.075,1.155,-0.076128,-0.024155999999999997,-1.013088,2
2024-06-14 11:16:58.850,0.875,-21.35,1.295,-0.07490799999999999,-0.023912,-1.00894,2
2024-06-14 11:16:58.854,-0.38500000000000006,-20.09,1.505,-0.07344400000000001,-0.026595999999999998,-1.012112,2
2024-06-14 11:16:58.859,0.03500000000000003,-22.435,1.68,-0.063684,-0.02562,-1.006988,2
2024-06-14 11:16:58.864,0.245,-21.245,1.645,-0.082716,-0.024155999999999997,-1.0096720000000001,2
2024-06-14 11:16:58.869,-0.875,-19.04,1.7149999999999999,-0.066612,-0.026352,-1.008696,2
2024-06-14 11:16:58.874,-1.0150000000000001,-19.215,1.8900000000000001,-0.05831599999999999,-0.017079999999999998,-1.010648,2
2024-06-14 11:16:58.879,-1.085,-18.655,2.1,-0.07002799999999999,-0.028303999999999996,-1.0065,2
2024-06-14 11:16:58.883,-1.085,-18.200000000000003,2.17,-0.04514,-0.032208,-1.00406,2
2024-06-14 11:16:58.888,-1.365,-16.905,2.135,-0.05977999999999999,-0.021716,-1.005036,2
2024-06-14 11:16:58.893,-2.1,-11.795,2.135,-0.047824,-0.020496,-1.0047920000000001,2
2024-06-14 11:16:58.898,-1.225,-15.435,2.275,-0.040260000000000004,-0.018544,-1.002352,2
2024-06-14 11:16:58.903,-1.155,-14.525,2.2750000000000004,-0.058316,-0.018788,-1.006256,2
2024-06-14 11:16:58.908,-0.98,-14.035,2.17,-0.047091999999999995,-0.020496,-1.0079639999999999,2
2024-06-14 11:16:58.912,-0.98,-13.825,2.17,-0.053436,-0.019276,-1.0082080000000002,2
2024-06-14 11:16:58.917,-0.63,-13.02,2.135,-0.049288,-0.017568,-1.006988,2
2024-06-14 11:16:58.922,-0.525,-12.46,1.9249999999999998,-0.047824000000000005,-0.011712,-1.005036,2
2024-06-14 11:16:58.927,-0.27999999999999997,-12.11,1.96,-0.053436,-0.018788,-1.006744,2
2024-06-14 11:16:58.932,-0.035,-11.515,1.855,-0.044652,-0.017812,-1.010404,2
2024-06-14 11:16:58.937,0.385,-14.139999999999999,1.785,-0.043676000000000006,-0.014883999999999998,-1.0091839999999999,2
2024-06-14 11:16:58.941,0.31500000000000006,-11.094999999999999,1.8199999999999998,-0.04514,-0.016348,-1.00894,2
2024-06-14 11:16:58.946,-1.82,-36.4,1.855,-0.044652,-0.020496,-1.0079639999999999,2
2024-06-14 11:16:58.951,-1.085,-11.165,1.6800000000000002,-0.040504,-0.017812,-1.0079639999999999,2
2024-06-14 11:16:58.956,1.8900000000000001,-12.11,1.8900000000000001,-0.045628,-0.020496,-1.01504,2
2024-06-14 11:16:58.961,0.03500000000000003,-12.425,2.1,-0.041235999999999995,-0.020496,-1.0108920000000001,2
2024-06-14 11:16:58.966,0.49,-13.23,2.065,-0.04196799999999999,-0.02318,-1.0133320000000001,2
2024-06-14 11:16:58.970,1.435,-14.175,2.17,-0.037332,-0.023912,-1.014308,2
2024-06-14 11:16:58.975,0.14,-15.715,2.31,-0.040992,-0.029036,-1.0182120000000001,2
2024-06-14 11:16:58.980,1.0150000000000001,-16.835,2.52,-0.04196799999999999,-0.024888,-1.018944,2
2024-06-14 11:16:58.985,0.35,-19.775,2.8,-0.040504,-0.02684,-1.018456,2
2024-06-14 11:16:58.990,-0.10499999999999998,-21.560000000000002,2.975,-0.041968000000000005,-0.024888,-1.0238239999999998,2
2024-06-14 11:16:58.994,0.315,-22.994999999999997,3.045,-0.040748,-0.020984,-1.022116,2
2024-06-14 11:16:58.999,-0.665,-25.06,2.9050000000000002,-0.033671999999999994,-0.024399999999999998,-1.01992,2
2024-06-14 11:16:59.004,-1.855,-26.775,2.625,-0.03416,-0.022935999999999998,-1.0311439999999998,2
2024-06-14 11:16:59.009,-4.095000000000001,-29.295,2.345,-0.032696,-0.027816,-1.035536,2
2024-06-14 11:16:59.014,-7.63,-34.370000000000005,1.82,-0.036844,-0.020739999999999998,-1.050908,2
2024-06-14 11:16:59.019,-11.094999999999999,-40.11,1.3650000000000002,-0.030011999999999997,-0.01708,-1.052128,2
2024-06-14 11:16:59.023,-14.280000000000001,-46.480000000000004,0.63,-0.029524,-0.017568,-1.0692080000000002,2
2024-06-14 11:16:59.028,-18.13,-48.86,0.17500000000000002,-0.02074,-0.022935999999999998,-1.0679880000000002,2
2024-06-14 11:16:59.033,-15.4,-53.269999999999996,0.27999999999999997,-0.011468,-0.010735999999999999,-1.074088,2
2024-06-14 11:16:59.038,-13.545,-58.345,-0.175,-0.02074,-0.004392,-1.06506,2
2024-06-14 11:16:59.043,-7.245,-63.875,0.06999999999999999,-0.014883999999999998,-0.00976,-1.077016,2
2024-06-14 11:16:59.048,-3.185,-66.60499999999999,-0.07,0.001952,-0.005123999999999998,-1.102636,2
2024-06-14 11:16:59.052,3.57,-70.91,-0.245,0.003416,-0.00366,-1.110444,2
2024-06-14 11:16:59.057,9.24,-85.19,-1.0150000000000001,0.005856,0.004148000000000001,-1.14802,2
2024-06-14 11:16:59.062,11.9,-79.03,-1.7850000000000001,0.01952,0.001464,-1.2178039999999999,2
2024-06-14 11:16:59.067,14.77,-72.66,-1.7149999999999999,0.000976,0.000976,-1.271484,2
2024-06-14 11:16:59.072,21.28,-74.305,-1.05,0.0017079999999999997,0.013419999999999998,-1.321016,2
2024-06-14 11:16:59.077,26.25,-74.47999999999999,-0.45499999999999996,0.014395999999999999,0.020739999999999998,-1.338584,3
2024-06-14 11:16:59.081,30.905,-76.125,-0.665,0.009272,-0.01586,-1.403,3
2024-06-14 11:16:59.086,35.28,-77.21000000000001,-0.525,0.014395999999999999,0.0053679999999999995,-1.445456,3
2024-06-14 11:16:59.091,38.185,-83.405,-0.77,0.010004,0.008296,-1.461316,3
2024-06-14 11:16:59.096,40.879999999999995,-91.735,-0.9450000000000001,0.0060999999999999995,0.0183,-1.474736,3
2024-06-14 11:16:59.101,47.739999999999995,-102.515,-0.245,0.00488,0.022203999999999998,-1.4654639999999999,3
2024-06-14 11:16:59.106,52.85,-120.19,1.505,0.027816,-0.057584,-1.722884,3
2024-06-14 11:16:59.110,49.945,-121.45,-0.56,0.00244,-0.004147999999999999,-1.592588,3
2024-06-14 11:16:59.115,48.3,-134.47,-0.175,-0.004148000000000001,-0.032452,-1.608692,3
2024-06-14 11:16:59.120,49.35,-146.47500000000002,-0.315,-0.018056,-0.019276,-1.643096,3
2024-06-14 11:16:59.125,49.035,-161.42000000000002,-0.21000000000000002,-0.030255999999999998,-0.053192,-1.6504159999999999,3
2024-06-14 11:16:59.130,48.195,-177.625,0.245,-0.032696,-0.06368399999999999,-1.6716440000000001,3
2024-06-14 11:16:59.134,47.565,-194.88,0.7,-0.03781999999999999,-0.06539199999999999,-1.664812,3
2024-06-14 11:16:59.139,47.25,-212.625,1.47,-0.048799999999999996,-0.093696,-1.6728640000000001,3
2024-06-14 11:16:59.144,48.894999999999996,-230.685,2.485,-0.053436,-0.05734,-1.719224,3
2024-06-14 11:16:59.149,49.105000000000004,-250.88,2.59,-0.060511999999999996,-0.035136,-1.74582,3
2024-06-14 11:16:59.154,51.065,-271.6,3.01,-0.07319999999999999,-0.039284,-1.8099919999999998,3
2024-06-14 11:16:59.159,54.25,-293.51,3.255,-0.081252,-0.031964,-1.8768479999999998,3
2024-06-14 11:16:59.163,57.085,-316.155,3.6399999999999997,-0.090524,-0.06978400000000001,-1.9315039999999999,3
2024-06-14 11:16:59.168,56.980000000000004,-340.095,4.654999999999999,-0.1159,-0.134688,-1.96542,3
2024-06-14 11:16:59.173,55.825,-364.945,6.545,-0.13785999999999998,-0.188612,-2.045208,3
2024-06-14 11:16:59.178,55.405,-391.23,9.135,-0.11150800000000001,-0.165188,-2.12036,3
2024-06-14 11:16:59.183,52.185,-415.695,10.219999999999999,-0.105164,-0.15884399999999999,-2.3302,3
2024-06-14 11:16:59.188,49.665,-439.845,11.62,-0.055144000000000006,-0.24034,-2.465864,3
2024-06-14 11:16:59.192,52.045,-457.975,13.440000000000001,0.034892,-0.18056,-2.684732,3
2024-06-14 11:16:59.197,53.34,-474.95,12.81,0.144692,-0.083448,-2.969236,3
2024-06-14 11:16:59.202,57.05,-492.135,11.305,0.140544,0.011712,-3.056344,3
2024-06-14 11:16:59.207,53.2,-506.135,7.595,0.13883600000000001,0.11468,-3.1585799999999997,3
2024-06-14 11:16:59.212,54.285,-515.13,0.595,0.268888,-0.028791999999999998,-3.3379199999999996,3
2024-06-14 11:16:59.217,56.769999999999996,-520.31,-0.5249999999999999,0.343308,-0.19007600000000002,-3.344996,3
2024-06-14 11:16:59.221,56.875,-526.6800000000001,3.255,0.243756,-0.17543599999999998,-3.2993679999999994,3
2024-06-14 11:16:59.226,47.985,-532.77,4.27,0.273524,0.015127999999999999,-3.244224,3
2024-06-14 11:16:59.231,31.71,-535.885,5.04,0.269132,0.04026,-3.118564,3
2024-06-14 11:16:59.236,9.17,-528.71,6.195,0.226432,0.073932,-2.975336,3
2024-06-14 11:16:59.241,-11.76,-508.865,-3.325,0.14396,0.010003999999999996,-3.05488,3
2024-06-14 11:16:59.246,-5.845,-485.31,-7.5600000000000005,-0.188612,-0.291824,-3.090748,3
2024-06-14 11:16:59.250,1.6099999999999999,-461.09000000000003,-7.140000000000001,-0.6414759999999999,-0.481412,-3.103436,4
2024-06-14 11:16:59.255,16.73,-433.93,-3.605,-1.220732,-0.5084960000000001,-2.928244,4
2024-06-14 11:16:59.260,35.035,-402.81500000000005,1.855,-1.87026,-0.536312,-2.480992,4
2024-06-14 11:16:59.265,51.065,-377.05499999999995,11.864999999999998,-2.457568,-0.618296,-2.033252,4
2024-06-14 11:16:59.270,65.17,-362.95,32.655,-2.664968,-0.6375719999999999,-1.7419159999999998,4
2024-06-14 11:16:59.275,69.265,-377.125,70.28,-1.9903080000000002,-0.617076,-1.262212,4
2024-06-14 11:16:59.279,52.955,-412.09000000000003,90.50999999999999,-1.330044,-0.6646559999999999,-0.533872,4
2024-06-14 11:16:59.284,54.004999999999995,-298.79499999999996,98.63,-1.675792,-0.41845999999999994,-0.7407839999999999,4
2024-06-14 11:16:59.289,76.755,-195.65,112.69999999999999,-2.221132,-0.378932,-1.1175199999999998,4
2024-06-14 11:16:59.294,83.61500000000001,-101.01,121.94,-2.025932,-0.14615599999999998,-1.1223999999999998,4
2024-06-14 11:16:59.299,65.975,-11.620000000000001,116.48,-1.886364,0.15176800000000001,-1.095072,4
2024-06-14 11:16:59.303,36.33,58.905,103.11,-1.88978,0.30866000000000005,-1.199748,4
2024-06-14 11:16:59.308,1.3650000000000002,108.15,88.55000000000001,-1.7831519999999998,0.363072,-1.180472,4
2024-06-14 11:16:59.313,-32.165,139.23000000000002,73.465,-1.639436,0.309636,-1.089704,4
2024-06-14 11:16:59.318,-58.625,155.61,60.41,-1.523536,0.202764,-1.0006439999999999,4
2024-06-14 11:16:59.323,-74.58500000000001,163.87,51.065,-1.421056,0.09174399999999999,-0.8976759999999999,4
2024-06-14 11:16:59.328,-81.34,168.03500000000003,44.765,-1.322968,-0.019520000000000003,-0.781044,4
2024-06-14 11:16:59.332,-80.535,172.34,40.565,-1.2246359999999998,-0.10126,-0.6768559999999999,4
2024-06-14 11:16:59.337,-73.255,178.99,38.114999999999995,-1.139236,-0.154696,-0.6051199999999999,4
2024-06-14 11:16:59.342,-61.53,188.685,36.855000000000004,-1.07116,-0.18348799999999998,-0.576084,4
2024-06-14 11:16:59.347,-48.93,200.515,36.26,-1.0108920000000001,-0.17812,-0.563396,4
2024-06-14 11:16:59.352,-37.625,213.92000000000002,35.84,-0.968924,-0.152744,-0.5697399999999999,4
2024-06-14 11:16:59.357,-29.575,227.99,35.175,-0.93086,-0.10858,-0.591456,4
2024-06-14 11:16:59.361,-25.165,241.885,34.16,-0.89182,-0.057095999999999994,-0.6246400000000001,4
2024-06-14 11:16:59.366,-23.905,254.765,32.864999999999995,-0.855464,-0.012443999999999998,-0.659044,4
2024-06-14 11:16:59.371,-25.619999999999997,266.525,31.36,-0.821548,0.014884,-0.69418,4
2024-06-14 11:16:59.376,-28.28,277.095,30.064999999999998,-0.783484,0.030988,-0.731756,4
2024-06-14 11:16:59.381,-30.869999999999997,286.895,29.4,-0.7473719999999999,0.030011999999999997,-0.7668919999999999,4
2024-06-14 11:16:59.386,-31.92,295.925,29.259999999999998,-0.716628,0.016836,-0.8103239999999999,4
2024-06-14 11:16:59.390,-30.869999999999997,304.71,30.03,-0.6861280000000001,0.001952,-0.844484,4
2024-06-14 11:16:59.395,-28.175,313.53,31.43,-0.66856,-0.013176,-0.875228,4
2024-06-14 11:16:59.400,-23.905,322.63,33.705,-0.6453800000000001,-0.025863999999999998,-0.907924,4
2024-06-14 11:16:59.405,-18.515,331.41499999999996,36.47,-0.621224,-0.031232,-0.948184,4
2024-06-14 11:16:59.410,-12.774999999999999,340.235,39.445,-0.601704,-0.028548,-1.001132,4
2024-06-14 11:16:59.415,-7.035,348.25,42.595,-0.56852,-0.023912,-1.0689639999999998,4
2024-06-14 11:16:59.419,-1.89,355.845,45.64,-0.544608,-0.009028,-1.126548,4
2024-06-14 11:16:59.424,1.855,363.475,48.16,-0.52338,0.027572,-1.1577799999999998,4
2024-06-14 11:16:59.429,4.095,371.07,50.295,-0.505324,0.057583999999999996,-1.203164,4
2024-06-14 11:16:59.434,4.83,378.42,51.730000000000004,-0.47214,0.08271600000000001,-1.261236,4
2024-06-14 11:16:59.439,5.285,384.92999999999995,52.71,-0.43798,0.10467599999999999,-1.330288,4
2024-06-14 11:16:59.445,5.985,390.355,53.13,-0.396988,0.11687600000000001,-1.406172,4
2024-06-14 11:16:59.449,7.105,395.01,53.235,-0.35624,0.12078,-1.4886439999999999,4
2024-06-14 11:16:59.454,8.26,398.86,52.92,-0.311588,0.12932,-1.5664799999999999,4
2024-06-14 11:16:59.459,9.345,402.71000000000004,51.94,-0.269864,0.13712799999999997,-1.6218679999999999,4
2024-06-14 11:16:59.464,10.885,406.035,50.82,-0.24668400000000001,0.127612,-1.69092,4
2024-06-14 11:16:59.469,13.65,408.8,50.015,-0.221308,0.11882799999999999,-1.7563119999999999,4
2024-06-14 11:16:59.473,17.22,411.21500000000003,49.7,-0.18275599999999997,0.10126,-1.8270719999999998,4
2024-06-14 11:16:59.478,22.085,412.405,49.49,-0.12444,0.08418,-1.9061279999999998,4
2024-06-14 11:16:59.483,28.0,411.915,49.56,-0.064416,0.07075999999999999,-1.9795719999999999,4
2024-06-14 11:16:59.488,35.07,408.905,49.595,0.0053679999999999995,0.050996,-2.0530159999999995,4
2024-06-14 11:16:59.493,43.26,403.095,49.665000000000006,0.086376,0.0305,-2.1262160000000003,4
2024-06-14 11:16:59.498,52.325,393.505,48.825,0.18080400000000002,0.022936,-2.2106399999999997,4
2024-06-14 11:16:59.502,62.05500000000001,380.45,46.269999999999996,0.284992,0.028791999999999998,-2.293356,4
2024-06-14 11:16:59.507,71.785,365.505,41.72,0.385764,0.040016,-2.4002280000000003,4
2024-06-14 11:16:59.512,79.80000000000001,350.595,34.685,0.471408,0.078324,-2.53882,4
2024-06-14 11:16:59.517,85.995,340.05999999999995,24.955,0.521428,0.11785199999999998,-2.6578920000000004,4
2024-06-14 11:16:59.522,88.095,335.125,12.530000000000001,0.5524159999999999,0.156648,-2.7379239999999996,4
2024-06-14 11:16:59.526,84.805,334.66999999999996,-3.115,0.5912120000000001,0.189588,-2.794288,4
2024-06-14 11:16:59.531,77.98,335.545,-21.805,0.669536,0.189588,-2.87066,4
2024-06-14 11:16:59.536,69.895,336.21000000000004,-41.93,0.761036,0.17592400000000002,-2.9419079999999997,4
2024-06-14 11:16:59.541,63.385000000000005,336.735,-62.545,0.853756,0.13298,-2.98778,4
2024-06-14 11:16:59.546,57.96,337.19,-82.03999999999999,0.9579439999999999,0.056608,-3.005104,4
2024-06-14 11:16:59.551,53.269999999999996,338.20500000000004,-99.505,1.0787239999999998,-0.023180000000000003,-3.026332,4
2024-06-14 11:16:59.555,49.525,340.40999999999997,-114.38,1.2444,-0.11980400000000001,-3.037068,4
2024-06-14 11:16:59.560,47.215,344.26,-126.45500000000001,1.436184,-0.22960399999999997,-3.025356,4
2024-06-14 11:16:59.565,45.290000000000006,350.14,-135.555,1.6347999999999998,-0.341356,-2.977044,4
2024-06-14 11:16:59.570,41.195,358.19,-141.365,1.85562,-0.431148,-2.8823719999999997,4
2024-06-14 11:16:59.575,32.41,365.855,-143.95499999999998,2.07034,-0.5231359999999999,-2.7464639999999996,4
2024-06-14 11:16:59.579,19.810000000000002,370.895,-142.625,2.292868,-0.62952,-2.598356,4
2024-06-14 11:16:59.584,8.155000000000001,370.685,-136.745,2.519056,-0.743224,-2.434388,4
2024-06-14 11:16:59.589,1.505,364.105,-126.175,2.7447559999999998,-0.851804,-2.2745680000000004,4
2024-06-14 11:16:59.594,1.68,351.08500000000004,-111.78999999999999,2.98534,-0.92842,-2.10206,4
2024-06-14 11:16:59.599,6.789999999999999,332.115,-94.22,3.25252,-0.9767319999999999,-1.90808,4
2024-06-14 11:16:59.604,16.765,308.735,-74.62,3.575332,-0.983564,-1.7106839999999999,4
2024-06-14 11:16:59.608,33.67,283.08000000000004,-54.144999999999996,3.9408440000000002,-0.9372039999999999,-1.5508640000000002,4
2024-06-14 11:16:59.613,55.72,254.345,-34.58,4.343932,-0.8396039999999999,-1.43228,4
2024-06-14 11:16:59.618,77.49,222.075,-17.045,4.711396000000001,-0.68564,-1.3244319999999998,4
2024-06-14 11:16:59.623,90.89500000000001,184.765,-2.3449999999999998,4.96418,-0.506544,-1.246108,4
2024-06-14 11:16:59.628,89.35499999999999,140.28,9.205,5.03616,-0.329156,-1.210728,4
2024-06-14 11:16:59.632,70.56,89.32,18.025,4.892688,-0.1769,-1.174128,4
2024-06-14 11:16:59.637,39.515,35.105,25.06,4.5689,-0.09564800000000001,-1.126304,4
2024-06-14 11:16:59.642,5.425,-17.255,31.64,4.136044,-0.124684,-1.0943399999999999,4
2024-06-14 11:16:59.647,-21.7,-63.525,38.605000000000004,3.6919639999999996,-0.23253199999999996,-1.128012,4
2024-06-14 11:16:59.652,-36.015,-99.19,46.725,3.268624,-0.399916,-1.2173159999999998,4
2024-06-14 11:16:59.657,-38.22,-122.465,56.42,2.8701719999999997,-0.576572,-1.280024,4
2024-06-14 11:16:59.661,-31.884999999999998,-133.63,67.86500000000001,2.520276,-0.7017439999999999,-1.31516,4
2024-06-14 11:16:59.666,-41.405,-113.155,68.565,2.425116,2.312632,-0.6161,4
