time,gyroscope_x,gyroscope_y,gyroscope_z,accelerometer_x,accelerometer_y,accelerometer_z,phase
2024-06-14 11:16:58.094,116.13,-257.81,-3.1500000000000004,4.210464,-2.021052,-5.063244,1
2024-06-14 11:16:58.099,159.18,-230.335,1.7500000000000002,3.24154,-1.125572,-0.2867,1
2024-06-14 11:16:58.104,248.99,-301.84000000000003,8.225,3.2120159999999998,-0.417728,-0.496784,1
2024-06-14 11:16:58.109,287.07,-341.46000000000004,6.335,3.395504,-0.363804,-0.5699839999999999,1
2024-06-14 11:16:58.113,321.92999999999995,-339.885,0.10499999999999998,2.5624879999999997,-0.42846399999999996,-1.78608,1
2024-06-14 11:16:58.118,312.585,-338.41499999999996,7.805,0.23302,-0.502396,-1.1114199999999999,1
2024-06-14 11:16:58.123,205.38,-368.025,16.975,-0.414312,-0.113216,-2.4116959999999996,1
2024-06-14 11:16:58.128,64.4,-307.685,39.515,-0.391864,0.14639999999999997,-1.90442,1
2024-06-14 11:16:58.133,1.8900000000000006,-299.11,63.7,-0.441396,0.11833999999999999,-1.917108,1
2024-06-14 11:16:58.138,-20.509999999999998,-295.995,73.00999999999999,0.071004,-0.184464,-2.130364,1
2024-06-14 11:16:58.142,-27.93,-282.765,66.85000000000001,0.297192,-0.446276,-2.233088,1
2024-06-14 11:16:58.147,-19.11,-267.4,53.095,0.309148,-0.623176,-2.379488,1
2024-06-14 11:16:58.152,-22.19,-248.04500000000002,33.144999999999996,0.1769,-0.619272,-2.589328,1
2024-06-14 11:16:58.157,-14.350000000000001,-213.39499999999998,10.57,0.10760399999999999,-0.533872,-2.6169,1
2024-06-14 11:16:58.162,-1.015,-157.01,-8.89,0.12444,-0.32744799999999996,-2.047892,1
2024-06-14 11:16:58.167,-1.26,-122.36,-19.04,0.17543599999999998,-0.10589599999999999,-1.810724,1
2024-06-14 11:16:58.172,-3.5700000000000003,-82.88,-17.43,0.09003599999999999,0.093208,-1.5020639999999998,1
2024-06-14 11:16:58.176,-4.48,-56.665,-7.105,0.012932000000000004,0.166408,-1.3346799999999999,1
2024-06-14 11:16:58.181,-6.23,-44.135000000000005,5.739999999999999,-0.075152,0.160308,-1.175348,1
2024-06-14 11:16:58.186,-10.01,-34.93,14.21,-0.095404,0.065392,-1.030168,1
2024-06-14 11:16:58.191,-13.510000000000002,-24.884999999999998,16.275,-0.079056,-0.066856,-1.019676,1
2024-06-14 11:16:58.196,-16.17,-15.61,9.24,-0.097112,-0.114192,-0.988688,1
2024-06-14 11:16:58.201,-16.73,-10.885,0.245,-0.08296,-0.084912,-1.04798,1
2024-06-14 11:16:58.205,-10.36,-6.824999999999999,-2.9050000000000002,-0.057096,-0.014396,-1.048224,1
2024-06-14 11:16:58.210,-9.59,-6.895,-2.03,-0.0060999999999999995,0.027083999999999997,-1.058472,1
2024-06-14 11:16:58.215,-8.82,-5.53,1.435,0.020984,0.047824,-1.059448,1
2024-06-14 11:16:58.220,-6.335,-4.970000000000001,3.745,-0.009516,0.029035999999999996,-1.0431,2
2024-06-14 11:16:58.225,-4.445,-3.395,3.2199999999999998,-0.050019999999999995,-0.006832,-1.0274839999999998,2
2024-06-14 11:16:58.230,-3.08,-2.275,1.54,-0.069052,-0.028304000000000003,-1.0169920000000001,2
2024-06-14 11:16:58.235,-1.855,-1.75,-2.9050000000000002,-0.07808,-0.028791999999999998,-1.032852,2
2024-06-14 11:16:58.239,-0.63,-2.38,-4.41,-0.044407999999999996,-0.021959999999999997,-1.034804,2
2024-06-14 11:16:58.244,-0.875,-2.94,-2.975,-0.07685999999999998,0.007808,-1.026508,2
2024-06-14 11:16:58.249,-1.33,-4.48,-1.9249999999999998,-0.096868,0.002196,-1.0206520000000001,2
2024-06-14 11:16:58.254,-1.225,-6.93,-2.59,-0.09174399999999999,-0.021227999999999997,-1.026752,2
2024-06-14 11:16:58.259,-1.54,-9.100000000000001,-3.185,-0.08686400000000001,-0.018788,-1.0226039999999998,2
2024-06-14 11:16:58.264,-2.135,-10.78,-3.1500000000000004,-0.083448,-0.005612,-1.0157720000000001,2
2024-06-14 11:16:58.268,-2.45,-12.215,-3.115,-0.08271599999999998,0.0014639999999999998,-1.01504,2
2024-06-14 11:16:58.273,-2.59,-13.545,-3.01,-0.0793,-0.01464,-1.014796,2
2024-06-14 11:16:58.278,-3.01,-15.75,-3.115,-0.08784,-0.00732,-1.017968,2
2024-06-14 11:16:58.283,-3.3600000000000003,-18.025,-3.255,-0.088572,-0.006588,-1.01992,2
2024-06-14 11:16:58.288,-3.395,-19.775,-3.43,-0.08418,-0.0060999999999999995,-1.024556,2
2024-06-14 11:16:58.293,-3.325,-20.93,-3.29,-0.077348,-0.002928,-1.0279719999999999,2
2024-06-14 11:16:58.298,-3.2199999999999998,-21.35,-3.5,-0.069784,-0.0017079999999999999,-1.0255319999999999,2
2024-06-14 11:16:58.302,-3.29,-21.77,-3.57,-0.078812,-0.006344000000000001,-1.024556,2
2024-06-14 11:16:58.307,-3.395,-23.345,-3.535,-0.0732,-0.011956000000000001,-1.02846,2
2024-06-14 11:16:58.312,-3.71,-24.64,-3.605,-0.071004,-0.009271999999999999,-1.02724,2
2024-06-14 11:16:58.317,-3.675,-27.615000000000002,-2.975,-0.070272,-0.009028,-1.03212,2
2024-06-14 11:16:58.322,-4.165,-27.86,-3.36,-0.065148,-0.01098,-1.02846,2
2024-06-14 11:16:58.327,-4.305,-30.450000000000003,-3.115,-0.06466,-0.009028,-1.02968,2
2024-06-14 11:16:58.331,-4.13,-31.849999999999998,-2.835,-0.060512,-0.008296000000000001,-1.029436,2
2024-06-14 11:16:58.336,-2.31,-32.585,-2.31,-0.059292,-0.004392,-1.02846,2
2024-06-14 11:16:58.341,-1.435,-34.72,-2.065,-0.057339999999999995,-0.00366,-1.033828,2
2024-06-14 11:16:58.346,-0.9450000000000001,-36.400000000000006,-2.065,-0.058803999999999995,0.0,-1.031876,2
2024-06-14 11:16:58.351,-0.21,-38.22,-1.855,-0.052947999999999995,-0.0024400000000000003,-1.0279719999999999,2
2024-06-14 11:16:58.356,0.175,-41.3,-1.7149999999999999,-0.043432,0.0029279999999999996,-1.036512,2
2024-06-14 11:16:58.361,1.295,-42.875,-1.54,-0.04026,-0.0019519999999999997,-1.030656,2
2024-06-14 11:16:58.365,0.7350000000000001,-50.61,-1.61,-0.041236,0.000488,-1.03212,2
2024-06-14 11:16:58.370,1.3650000000000002,-46.41,-1.3649999999999998,-0.033672,0.005612,-1.024556,2
2024-06-14 11:16:58.375,2.065,-47.6,-1.155,-0.027083999999999997,0.004392,-1.0213839999999998,2
2024-06-14 11:16:58.380,7.279999999999999,-24.01,-1.085,-0.02562,0.005856,-1.0360239999999998,2
2024-06-14 11:16:58.385,4.62,-44.17,-1.54,-0.014883999999999998,0.00244,-1.01992,2
2024-06-14 11:16:58.390,10.5,-25.445,-1.995,-0.018543999999999998,0.007807999999999999,-1.0213839999999998,2
2024-06-14 11:16:58.394,4.13,-32.83,-0.24500000000000005,-0.012199999999999999,0.0017079999999999999,-1.016016,2
2024-06-14 11:16:58.399,1.645,-39.445,-0.595,-0.009271999999999999,0.0007319999999999996,-1.01504,2
2024-06-14 11:16:58.404,-0.385,-40.845,-0.77,0.00048800000000000004,0.0046359999999999995,-1.016016,2
2024-06-14 11:16:58.409,2.59,-27.265,-2.065,-0.0014639999999999996,0.000732,-0.994056,2
2024-06-14 11:16:58.414,-0.35,-39.69,-1.33,0.0053679999999999995,0.0060999999999999995,-1.01992,2
2024-06-14 11:16:58.419,-0.9099999999999999,-39.339999999999996,-0.595,0.017079999999999998,0.002196,-0.99674,2
2024-06-14 11:16:58.424,-1.4,-37.555,-0.56,0.019032,0.008052,-1.020408,2
2024-06-14 11:16:58.428,0.455,-34.65,-0.48999999999999994,-0.0014639999999999998,-0.004392,-1.03822,2
2024-06-14 11:16:58.433,0.595,-33.11,-0.665,0.015127999999999999,-0.003172,-0.9977159999999999,2
2024-06-14 11:16:58.438,0.45499999999999996,-30.905,-0.735,0.020984,-0.0021960000000000005,-1.0004,2
2024-06-14 11:16:58.443,1.26,-28.21,-0.56,0.020008,-0.0026839999999999998,-1.003816,2
2024-06-14 11:16:58.448,2.975,-25.515,-0.77,0.026352,0.00024399999999999986,-1.037732,2
2024-06-14 11:16:58.453,10.465,-20.825,-0.42,0.025376000000000003,0.00122,-1.031388,2
2024-06-14 11:16:58.457,15.785,-18.34,0.805,0.01464,0.008052,-1.007964,2
2024-06-14 11:16:58.462,7.21,-22.96,0.0,0.028791999999999998,-0.007563999999999999,-0.9943,2
2024-06-14 11:16:58.467,3.535,-22.68,-0.385,0.031231999999999996,0.0026839999999999998,-1.0047920000000001,2
2024-06-14 11:16:58.472,3.43,-21.314999999999998,-0.7,0.03781999999999999,-0.008784,-1.015528,2
2024-06-14 11:16:58.477,4.375,-20.020000000000003,-0.735,0.036599999999999994,-0.004148,-1.0182120000000001,2
2024-06-14 11:16:58.482,2.6950000000000003,-16.625,-0.63,0.026840000000000003,-0.008296,-1.008696,2
2024-06-14 11:16:58.492,1.75,-16.59,-0.525,0.037087999999999996,-0.008784,-1.018456,2
2024-06-14 11:16:58.496,1.4,-16.450000000000003,-0.665,0.033672,-0.002928,-1.0177239999999999,2
2024-06-14 11:16:58.501,1.6800000000000002,-15.89,-0.7350000000000001,0.0366,-0.00366,-1.021384,2
2024-06-14 11:16:58.506,0.98,-14.49,-0.63,0.039527999999999994,-0.0034159999999999993,-1.035292,2
2024-06-14 11:16:58.511,1.33,-14.665,-0.665,0.035136,0.0034159999999999998,-1.0030839999999999,2
2024-06-14 11:16:58.516,2.24,-14.56,-0.8049999999999999,0.037087999999999996,0.010003999999999999,-1.0128439999999999,2
2024-06-14 11:16:58.520,3.36,-15.75,-1.225,0.043188000000000004,0.0068319999999999995,-1.03578,2
2024-06-14 11:16:58.525,4.2,-16.450000000000003,-1.47,0.029036,0.012688,-1.0545680000000002,2
2024-06-14 11:16:58.530,4.725,-17.78,-1.645,0.0427,0.007808,-1.034072,2
2024-06-14 11:16:58.535,4.9350000000000005,-18.865000000000002,-2.1,0.039284,0.0012200000000000002,-1.0457839999999998,2
2024-06-14 11:16:58.540,5.11,-21.21,-2.45,0.038064,0.010492,-1.028216,2
2024-06-14 11:16:58.544,4.9,-21.735,-3.08,0.042212,0.002196,-1.051396,2
2024-06-14 11:16:58.549,4.34,-23.03,-3.1500000000000004,0.052704,-0.020496,-1.059448,2
2024-06-14 11:16:58.554,3.5,-23.939999999999998,-3.01,0.057828000000000004,-0.010492,-1.040904,2
2024-06-14 11:16:58.559,1.7149999999999999,-23.625,-2.94,0.052947999999999995,-0.019763999999999997,-1.026996,2
2024-06-14 11:16:58.564,0.175,-24.64,-2.485,0.054655999999999996,-0.019276,-1.070672,2
2024-06-14 11:16:58.568,-2.275,-25.025,-2.275,0.060268,-0.03782,-1.03822,2
2024-06-14 11:16:58.573,-4.34,-24.815,-1.75,0.05953599999999999,-0.02928,-1.061156,2
2024-06-14 11:16:58.578,-6.789999999999999,-26.215,-1.225,0.060268,-0.034648,-1.102392,2
2024-06-14 11:16:58.583,-8.89,-28.42,-0.7,0.055388,-0.034892,-1.1582679999999999,2
2024-06-14 11:16:58.588,-11.83,-30.555,-0.315,0.058072,-0.01464,-1.16754,2
2024-06-14 11:16:58.592,-13.93,-34.055,0.14,0.0549,-0.028792000000000005,-1.204628,2
2024-06-14 11:16:58.597,-16.555,-37.870000000000005,0.315,0.048799999999999996,-0.020984,-1.2444,2
2024-06-14 11:16:58.602,-18.619999999999997,-43.504999999999995,0.35,0.053436,-0.024156,-1.2719719999999999,2
2024-06-14 11:16:58.607,-21.525,-49.035,0.315,0.053436,-0.01708,-1.2651400000000002,2
2024-06-14 11:16:58.612,-23.52,-54.95,0.35,0.051972000000000004,-0.021716,-1.3149159999999998,2
2024-06-14 11:16:58.616,-25.619999999999997,-61.18,0.385,0.054412,-0.014152,-1.32248,2
2024-06-14 11:16:58.621,-27.3,-67.69,0.525,0.05612,-0.0305,-1.318088,3
2024-06-14 11:16:58.626,-29.575000000000003,-75.46000000000001,0.77,0.05734,-0.035136,-1.3839679999999999,3
2024-06-14 11:16:58.631,-31.57,-83.44,1.505,0.050263999999999996,-0.054412,-1.392264,3
2024-06-14 11:16:58.636,-35.035,-91.77000000000001,1.75,0.05368,-0.038796,-1.444724,3
2024-06-14 11:16:58.640,-37.275000000000006,-101.43,2.17,0.048556,-0.039528,-1.46644,3
2024-06-14 11:16:58.645,-39.2,-112.21000000000001,2.38,0.048799999999999996,-0.01342,-1.4715639999999999,3
2024-06-14 11:16:58.650,-42.315,-123.095,1.995,0.042212,-0.006588,-1.494256,3
2024-06-14 11:16:58.655,-43.19,-135.765,1.7149999999999999,0.035624,0.008296,-1.5220719999999999,3
2024-06-14 11:16:58.660,-43.644999999999996,-149.20499999999998,1.365,0.033916,0.018544,-1.5459839999999998,3
2024-06-14 11:16:58.664,-44.415,-163.31,0.49,0.028304,0.042943999999999996,-1.562332,3
2024-06-14 11:16:58.669,-44.94,-178.115,-0.7,0.020008,0.051484,-1.5889280000000001,3
2024-06-14 11:16:58.674,-45.64,-194.355,-1.96,0.019764,0.042212,-1.6372399999999998,3
2024-06-14 11:16:58.679,-46.375,-211.54,-2.9050000000000002,0.014395999999999999,0.03294,-1.696532,3
2024-06-14 11:16:58.684,-46.445,-229.95,-3.8149999999999995,-0.009271999999999999,0.05978,-1.7775400000000001,3
2024-06-14 11:16:58.688,-44.415,-250.005,-5.635,-0.024888,0.132248,-1.844884,3
2024-06-14 11:16:58.693,-40.285,-270.795,-8.68,-0.040015999999999996,0.218136,-1.904664,3
2024-06-14 11:16:58.698,-35.035,-292.075,-13.02,-0.048556,0.25839599999999996,-1.97396,3
2024-06-14 11:16:58.703,-28.91,-314.3,-17.744999999999997,-0.049044000000000004,0.30012000000000005,-2.0801,3
2024-06-14 11:16:58.708,-25.025,-337.33,-22.82,-0.069052,0.262056,-2.14232,3
2024-06-14 11:16:58.712,-18.305,-363.02,-26.25,-0.102724,0.204228,-2.207468,3
2024-06-14 11:16:58.717,-12.46,-389.58500000000004,-28.91,-0.10980000000000001,0.20813199999999998,-2.259196,3
2024-06-14 11:16:58.722,-11.41,-415.45,-31.08,-0.11833999999999999,0.171288,-2.322636,3
2024-06-14 11:16:58.727,-15.12,-440.54499999999996,-32.2,-0.09833199999999999,0.10394399999999998,-2.401936,3
2024-06-14 11:16:58.732,-20.055,-464.975,-30.450000000000003,-0.032452,0.023424,-2.5707839999999997,3
2024-06-14 11:16:58.736,-27.439999999999998,-488.11,-28.07,0.06344,0.018544,-2.7581759999999997,3
2024-06-14 11:16:58.741,-42.21,-508.235,-25.655,0.156892,0.068076,-2.972896,3
2024-06-14 11:16:58.746,-63.875,-525.875,-24.745,0.23204400000000003,0.06466,-3.186884,3
2024-06-14 11:16:58.751,-76.89500000000001,-538.4749999999999,-21.28,0.32696000000000003,-0.010248,-3.3679319999999997,3
2024-06-14 11:16:58.756,-87.535,-539.0350000000001,-20.405,0.29401999999999995,0.06612399999999999,-3.409412,3
2024-06-14 11:16:58.760,-82.46000000000001,-545.65,-24.990000000000002,0.15054800000000002,-0.012931999999999999,-3.3142519999999998,3
2024-06-14 11:16:58.765,-62.23,-551.04,-26.564999999999998,0.146888,-0.051972000000000004,-3.077084,3
2024-06-14 11:16:58.770,-43.400000000000006,-555.31,-24.675,0.116632,0.12419599999999999,-2.9782640000000002,4
2024-06-14 11:16:58.775,-34.86,-551.11,-33.075,0.08662,0.288896,-2.7886759999999997,4
2024-06-14 11:16:58.780,-15.995000000000001,-540.575,-36.19,-0.009760000000000003,0.213988,-2.7618359999999997,4
2024-06-14 11:16:58.784,-3.955,-521.4649999999999,-34.58,-0.137616,0.22106399999999998,-2.78526,4
2024-06-14 11:16:58.789,0.0,-494.97,-34.475,-0.405528,0.351604,-2.689856,4
2024-06-14 11:16:58.794,4.654999999999999,-476.945,-33.495000000000005,-0.912804,0.418216,-2.818688,4
2024-06-14 11:16:58.799,-7.455,-463.645,-36.295,-1.4217879999999998,0.58072,-2.991684,4
2024-06-14 11:16:58.804,-39.2,-450.94,-44.38,-2.0110479999999997,0.727608,-2.8062439999999995,4
2024-06-14 11:16:58.808,-87.28999999999999,-442.47,-65.31,-2.596892,0.9608720000000001,-2.375828,4
2024-06-14 11:16:58.813,-121.8,-391.825,-91.0,-2.874808,0.65148,-1.299544,4
2024-06-14 11:16:58.818,-146.965,-386.61,-130.97,-2.3704599999999996,0.6148800000000001,-0.01732399999999998,4
2024-06-14 11:16:58.823,-126.73499999999999,-396.16499999999996,-147.805,-1.4535080000000002,1.03578,0.17787599999999998,4
2024-06-14 11:16:58.828,-119.77,-276.85,-157.5,-1.022116,0.649284,-1.0206520000000001,4
2024-06-14 11:16:58.832,-145.70499999999998,-163.135,-165.2,-1.659932,0.35087199999999996,-1.88612,4
2024-06-14 11:16:58.837,-145.18,-61.775000000000006,-158.06,-1.920036,-0.20691199999999998,-1.180228,4
2024-06-14 11:16:58.842,-104.02000000000001,41.3,-131.915,-1.9041759999999999,-0.580964,-0.713212,4
2024-06-14 11:16:58.847,-35.175,126.14,-97.02,-1.8136519999999998,-0.692472,-0.91866,4
2024-06-14 11:16:58.852,33.39,187.11,-63.525,-1.578436,-0.6475759999999999,-1.1155680000000001,4
2024-06-14 11:16:58.856,88.445,227.01,-35.315,-1.38104,-0.484584,-1.174128,4
2024-06-14 11:16:58.861,124.35499999999999,250.495,-15.225,-1.244644,-0.28426,-1.128012,4
2024-06-14 11:16:58.866,143.255,262.745,-3.01,-1.1577799999999998,-0.09272,-1.044564,4
2024-06-14 11:16:58.871,147.84,270.55,2.415,-1.063108,0.082716,-0.934032,4
2024-06-14 11:16:58.876,138.53,275.415,3.045,-0.9567239999999999,0.220332,-0.836432,4
2024-06-14 11:16:58.880,119.245,280.105,0.98,-0.850096,0.314516,-0.747128,4
2024-06-14 11:16:58.885,94.57,285.17999999999995,-2.345,-0.76128,0.354044,-0.709308,4
2024-06-14 11:16:58.890,68.425,291.655,-6.51,-0.6954,0.359412,-0.691984,4
2024-06-14 11:16:58.895,43.785,299.32000000000005,-10.780000000000001,-0.652456,0.32134799999999997,-0.6939359999999999,4
2024-06-14 11:16:58.900,22.89,308.42,-14.7,-0.6165879999999999,0.253028,-0.7019880000000001,4
2024-06-14 11:16:58.904,7.735,318.185,-17.71,-0.5941399999999999,0.16836,-0.7224839999999999,4
2024-06-14 11:16:58.909,-0.24499999999999994,328.125,-19.740000000000002,-0.567788,0.077592,-0.7564,4
2024-06-14 11:16:58.914,-1.505,337.82,-20.685,-0.5550999999999999,-0.003415999999999997,-0.797636,4
2024-06-14 11:16:58.919,2.4850000000000003,347.58500000000004,-20.615000000000002,-0.549244,-0.068564,-0.835456,4
2024-06-14 11:16:58.924,9.275,357.28,-19.845,-0.552172,-0.105652,-0.879132,4
2024-06-14 11:16:58.928,16.73,366.975,-18.865000000000002,-0.546804,-0.11882799999999999,-0.931592,4
2024-06-14 11:16:58.933,23.205,376.03999999999996,-18.130000000000003,-0.5465599999999999,-0.107848,-0.987224,4
2024-06-14 11:16:58.938,27.475,386.67999999999995,-17.815,-0.5455840000000001,-0.081984,-1.022116,4
2024-06-14 11:16:58.943,28.91,395.43,-18.48,-0.522648,-0.039772,-1.0738439999999998,4
2024-06-14 11:16:58.948,26.845,402.01,-20.475,-0.494832,0.02196,-1.1497279999999999,4
2024-06-14 11:16:58.952,21.490000000000002,407.015,-23.905,-0.4758,0.062952,-1.187548,4
2024-06-14 11:16:58.957,14.385,411.985,-27.65,-0.480436,0.070028,-1.153632,4
2024-06-14 11:16:58.962,6.755,417.83000000000004,-31.744999999999997,-0.47702,0.075152,-1.133624,4
2024-06-14 11:16:58.967,-0.45500000000000007,423.01,-35.56,-0.454816,0.089304,-1.19194,4
2024-06-14 11:16:58.972,-8.085,425.985,-39.2,-0.399428,0.09345200000000001,-1.2871,4
2024-06-14 11:16:58.976,-16.240000000000002,426.96500000000003,-42.42,-0.33428,0.08906,-1.3644479999999999,4
2024-06-14 11:16:58.981,-23.66,426.44000000000005,-44.835,-0.281576,0.077836,-1.4044640000000002,4
2024-06-14 11:16:58.986,-29.785,424.13,-46.165000000000006,-0.22082000000000002,0.069296,-1.45058,4
2024-06-14 11:16:58.991,-35.035,420.7,-46.44499999999999,-0.12932,0.072224,-1.5045039999999998,4
2024-06-14 11:16:58.996,-41.265,414.225,-46.27,-0.038307999999999995,0.077104,-1.571116,4
2024-06-14 11:16:59.000,-48.405,405.33500000000004,-45.605000000000004,0.04806799999999999,0.08417999999999999,-1.6255279999999999,4
2024-06-14 11:16:59.005,-56.595,395.99,-43.785,0.13419999999999999,0.077348,-1.674084,4
2024-06-14 11:16:59.010,-64.505,387.24,-40.459999999999994,0.217648,0.067344,-1.7119039999999999,4
2024-06-14 11:16:59.015,-71.225,379.57500000000005,-35.735,0.26718,0.054900000000000004,-1.7697319999999999,4
2024-06-14 11:16:59.020,-75.845,371.49,-30.345,0.297192,0.053924,-1.860256,4
2024-06-14 11:16:59.024,-79.24000000000001,362.39,-24.78,0.33354799999999996,0.034648,-1.931748,4
2024-06-14 11:16:59.029,-80.39500000000001,351.225,-18.795,0.363316,0.03904,-1.99348,4
2024-06-14 11:16:59.034,-79.485,339.045,-13.125,0.3599,0.081008,-2.084492,4
2024-06-14 11:16:59.036,-80.85,327.215,-8.4,0.38308,0.13273600000000002,-2.201124,4
2024-06-14 11:16:59.041,-86.52,318.46500000000003,-3.85,0.408944,0.16909200000000002,-2.304336,4
2024-06-14 11:16:59.046,-95.13,315.28,1.295,0.425536,0.201788,-2.3980319999999997,4
2024-06-14 11:16:59.050,-103.81,319.69,7.279999999999999,0.447252,0.196176,-2.470744,4
2024-06-14 11:16:59.055,-109.025,328.72,15.19,0.49141599999999996,0.176656,-2.5439439999999998,4
2024-06-14 11:16:59.060,-110.285,337.155,24.85,0.5882839999999999,0.161772,-2.6354439999999997,4
2024-06-14 11:16:59.065,-108.00999999999999,340.76,35.875,0.7017439999999999,0.151036,-2.7267,4
2024-06-14 11:16:59.070,-103.32,339.955,47.32,0.809592,0.141032,-2.767448,4
2024-06-14 11:16:59.075,-96.88,338.65999999999997,59.254999999999995,0.901336,0.13224799999999998,-2.752564,4
2024-06-14 11:16:59.079,-89.425,339.325,71.295,0.97234,0.12078,-2.72182,4
2024-06-14 11:16:59.084,-82.39,342.86,83.755,1.028216,0.119316,-2.691076,4
2024-06-14 11:16:59.089,-77.035,348.355,96.35499999999999,1.1082480000000001,0.113704,-2.670336,4
2024-06-14 11:16:59.094,-74.06,353.5,109.375,1.2041399999999998,0.102968,-2.6535,4
2024-06-14 11:16:59.099,-73.15,356.195,121.8,1.320528,0.096868,-2.643008,4
2024-06-14 11:16:59.104,-75.215,355.67,133.175,1.4610720000000001,0.08832799999999999,-2.639836,4
2024-06-14 11:16:59.108,-78.365,352.065,143.07999999999998,1.61772,0.055632,-2.60836,4
2024-06-14 11:16:59.113,-79.73,345.52,150.92000000000002,1.7860800000000001,0.027083999999999997,-2.556388,4
2024-06-14 11:16:59.118,-77.0,335.685,156.20499999999998,1.949072,0.006832,-2.4814799999999995,4
2024-06-14 11:16:59.123,-69.33500000000001,324.135,158.305,2.10694,0.0183,-2.396324,4
2024-06-14 11:16:59.128,-55.230000000000004,311.395,155.47000000000003,2.314584,0.11980400000000001,-2.3270280000000003,4
2024-06-14 11:16:59.132,-38.045,299.21500000000003,147.175,2.66082,0.233264,-2.2142999999999997,4
2024-06-14 11:16:59.137,-22.68,286.37,134.47,3.0134,0.433344,-2.0476479999999997,4
2024-06-14 11:16:59.142,-8.085,270.55,116.27000000000001,3.40136,0.656604,-1.867332,4
2024-06-14 11:16:59.147,-1.9249999999999998,250.075,92.75,3.8364119999999997,0.867908,-1.6767679999999998,4
2024-06-14 11:16:59.152,-9.38,224.42000000000002,64.96000000000001,4.251455999999999,1.007232,-1.5096279999999997,4
2024-06-14 11:16:59.157,-27.825000000000003,192.185,36.015,4.613308,1.024068,-1.404464,4
2024-06-14 11:16:59.161,-50.925,152.215,8.75,4.797039999999999,0.8966999999999999,-1.350784,4
2024-06-14 11:16:59.166,-70.245,104.61500000000001,-13.685,4.757756,0.6487959999999999,-1.3078400000000001,4
2024-06-14 11:16:59.171,-77.98,51.379999999999995,-29.61,4.5305919999999995,0.34526,-1.2502559999999998,4
2024-06-14 11:16:59.176,-73.04499999999999,-1.1550000000000002,-38.745000000000005,4.17606,0.06490399999999999,-1.202432,4
2024-06-14 11:16:59.181,-56.945,-47.74,-40.32,3.720268,-0.063684,-1.1831559999999999,4
2024-06-14 11:16:59.186,-34.685,-84.21000000000001,-30.905,3.3679319999999997,-0.355508,-1.19926,4
2024-06-14 11:16:59.190,-8.155,-109.69,-35.175,2.93654,-0.254248,-1.184132,4
2024-06-14 11:16:59.195,26.740000000000002,-157.70999999999998,-24.08,3.401848,-1.601616,-1.50304,4
