time,gyroscope_x,gyroscope_y,gyroscope_z,accelerometer_x,accelerometer_y,accelerometer_z,phase
2024-06-14 11:41:09.920,-391.44,-311.36,57.54,6.3239920000000005,0.649528,-1.1326479999999999,1
2024-06-14 11:41:09.925,-250.46,-320.25,33.18,3.033896,1.2624559999999998,-2.72548,1
2024-06-14 11:41:09.929,-147.35,-299.18,2.45,0.043432000000000005,-0.098576,-1.050176,1
2024-06-14 11:41:09.934,-107.87,-346.43,-33.6,0.5387519999999999,-0.46603999999999995,-1.663592,1
2024-06-14 11:41:09.939,-55.44,-379.33,-62.58,-0.381616,-0.41333600000000004,-1.9920159999999998,1
2024-06-14 11:41:09.944,-5.74,-394.03,-72.38,-0.506056,-0.00732,-2.277008,1
2024-06-14 11:41:09.949,-25.13,-381.71,-71.89,-0.8012959999999999,0.013663999999999999,-3.4945679999999997,1
2024-06-14 11:41:09.954,-85.75,-325.43,-58.31,0.534848,0.9677039999999999,-3.780048,1
2024-06-14 11:41:09.958,-76.09,-249.69,-31.99,0.6910080000000001,0.5621759999999999,-2.887496,1
2024-06-14 11:41:09.963,-73.92,-211.68,-10.22,0.331352,0.299144,-2.1745279999999996,1
2024-06-14 11:41:09.968,-79.52,-168.28,-9.52,0.48556,-0.242536,-2.59616,1
2024-06-14 11:41:09.973,-47.95,-91.35,-13.93,0.510448,0.29621600000000003,-2.4458559999999996,1
2024-06-14 11:41:09.978,-14.98,-32.69,-15.05,0.41724,0.18056,-1.431792,1
2024-06-14 11:41:09.983,4.06,-17.71,-24.01,0.02928,0.0,-1.297104,1
2024-06-14 11:41:09.987,5.74,-20.65,-25.83,0.106872,-0.018056000000000003,-1.3693279999999999,1
2024-06-14 11:41:09.992,-0.49,-28.21,-21.63,-0.005368,-0.121024,-1.275632,1
2024-06-14 11:41:09.997,-7.84,-36.19,-18.97,-0.034648,-0.011712,-1.145336,1
2024-06-14 11:41:10.002,-8.47,-33.6,-18.13,-0.030744,0.074176,-1.011624,2
2024-06-14 11:41:10.007,-5.95,-19.18,-17.36,-0.003904,0.07466400000000001,-0.932568,2
2024-06-14 11:41:10.012,-7.98,-9.38,-14.91,0.028791999999999998,-0.027816,-0.9579439999999999,2
2024-06-14 11:41:10.016,-11.83,-2.66,-11.27,0.094184,-0.009272,-1.03456,2
2024-06-14 11:41:10.021,-18.48,4.27,-9.52,0.103456,-0.032695999999999996,-1.086288,2
2024-06-14 11:41:10.026,-24.15,8.12,-7.42,0.096624,-0.025864,-1.1180080000000001,2
2024-06-14 11:41:10.031,-25.2,9.73,-5.74,0.022448,0.023424,-1.0931199999999999,2
2024-06-14 11:41:10.036,-22.75,10.85,-5.39,-0.045384,0.057095999999999994,-1.09068,2
2024-06-14 11:41:10.041,-19.25,9.31,-5.25,-0.050263999999999996,0.058072,-1.135576,2
2024-06-14 11:41:10.045,-15.4,6.23,-4.62,-0.04392,0.051728,-1.186328,2
2024-06-14 11:41:10.050,-10.92,1.54,-4.34,-0.04392,0.072712,-1.187792,2
2024-06-14 11:41:10.055,-4.97,-3.01,-4.27,-0.053192,0.081984,-1.1541199999999998,2
2024-06-14 11:41:10.060,0.91,-6.3,-4.2,-0.060512,0.064416,-1.1228879999999999,2
2024-06-14 11:41:10.065,4.83,-10.29,-3.78,-0.066856,0.041479999999999996,-1.101904,2
2024-06-14 11:41:10.070,7.21,-17.5,-3.43,-0.08295999999999999,0.018544,-1.0970239999999998,2
2024-06-14 11:41:10.074,8.05,-23.17,-3.08,-0.081496,0.00488,-1.101904,2
2024-06-14 11:41:10.079,7.91,-25.55,-2.66,-0.060512,0.018544,-1.0872639999999998,2
2024-06-14 11:41:10.084,9.31,-26.74,-2.38,-0.044408,0.049288,-1.0857999999999999,2
2024-06-14 11:41:10.089,12.39,-28.7,-2.73,-0.033184,0.062952,-1.089704,2
2024-06-14 11:41:10.094,16.17,-30.03,-3.22,-0.044896,0.05368,-1.0887280000000001,2
2024-06-14 11:41:10.099,18.62,-31.57,-3.22,-0.064416,0.023912,-1.1053199999999999,2
2024-06-14 11:41:10.103,19.25,-33.74,-2.59,-0.07564,-0.01464,-1.1180080000000001,2
2024-06-14 11:41:10.108,18.06,-35.42,-1.75,-0.06831999999999999,-0.021472,-1.1126399999999999,2
2024-06-14 11:41:10.113,16.24,-36.68,-1.19,-0.049775999999999994,-0.014152,-1.096536,2
2024-06-14 11:41:10.118,15.19,-37.38,-0.91,-0.035624,0.005368,-1.077016,2
2024-06-14 11:41:10.123,15.19,-36.61,-0.91,-0.020984,0.016104,-1.0614,2
2024-06-14 11:41:10.128,16.03,-35.98,-1.12,-0.016104,0.021472,-1.057008,2
2024-06-14 11:41:10.132,16.94,-35.84,-1.19,-0.020496,0.017079999999999998,-1.065304,2
2024-06-14 11:41:10.137,17.22,-35.77,-1.26,-0.020007999999999998,0.0,-1.0735999999999999,2
2024-06-14 11:41:10.142,16.66,-36.4,-1.19,-0.018056000000000003,-0.011712,-1.0711600000000001,2
2024-06-14 11:41:10.147,14.14,-37.52,-1.19,-0.02196,-0.021472,-1.0760399999999999,2
2024-06-14 11:41:10.152,6.51,-32.34,-1.54,-0.022936,-0.00732,-1.068232,2
2024-06-14 11:41:10.157,8.54,-45.92,-1.26,-0.025864,-0.022936,-1.0677439999999998,2
2024-06-14 11:41:10.161,8.68,-47.81,-1.47,-0.020007999999999998,-0.03172,-1.0657919999999999,2
2024-06-14 11:41:10.166,3.78,-47.67,-0.84,-0.020496,-0.042455999999999994,-1.059448,2
2024-06-14 11:41:10.171,2.24,-49.0,-0.14,-0.014152,-0.050263999999999996,-1.057008,2
2024-06-14 11:41:10.176,2.8,-45.85,1.4,-0.0068319999999999995,-0.03904,-1.067256,2
2024-06-14 11:41:10.181,2.17,-46.48,2.31,0.0,-0.045872,-1.050176,2
2024-06-14 11:41:10.186,1.12,-47.32,2.31,0.006344,-0.037576,-1.0384639999999998,2
2024-06-14 11:41:10.190,-0.77,-50.4,2.52,-0.000488,-0.027327999999999998,-1.049688,2
2024-06-14 11:41:10.195,-1.33,-49.28,2.8,0.014152,-0.00732,-1.042368,2
2024-06-14 11:41:10.200,-3.5,-48.23,2.8,0.021472,-0.0068319999999999995,-1.0379759999999998,2
2024-06-14 11:41:10.205,-4.97,-48.09,2.73,0.027327999999999998,-0.007808,-1.0477359999999998,2
2024-06-14 11:41:10.210,-4.13,-46.2,2.8,0.025864,-0.010248,-1.045296,2
2024-06-14 11:41:10.215,-4.97,-45.85,2.45,0.030744,0.000488,-1.055056,2
2024-06-14 11:41:10.219,-5.53,-42.42,2.52,0.0366,-0.007808,-1.050176,2
2024-06-14 11:41:10.224,-6.3,-43.19,2.59,0.046848,-0.013663999999999999,-1.037,2
2024-06-14 11:41:10.229,-6.72,-44.38,3.29,0.04392,-0.006344,-1.062376,2
2024-06-14 11:41:10.234,-10.5,-45.43,2.87,0.035135999999999994,0.017079999999999998,-1.1145919999999998,2
2024-06-14 11:41:10.239,-15.26,-48.37,2.24,0.033184,-0.04392,-1.076528,2
2024-06-14 11:41:10.244,-16.73,-46.83,3.08,0.048312,-0.015616,-1.072624,2
2024-06-14 11:41:10.248,-18.13,-47.67,3.92,0.054655999999999996,-0.031232,-1.071648,2
2024-06-14 11:41:10.253,-20.09,-48.51,4.76,0.063928,-0.023912,-1.0687200000000001,2
2024-06-14 11:41:10.258,-18.9,-46.83,5.67,0.076616,-0.011224,-1.066768,2
2024-06-14 11:41:10.263,-16.38,-46.06,6.58,0.078568,-0.01464,-1.066768,2
2024-06-14 11:41:10.268,-13.86,-45.15,7.49,0.078568,-0.013663999999999999,-1.06384,2
2024-06-14 11:41:10.273,-14.7,-44.73,8.26,0.07466400000000001,-0.001952,-1.0711600000000001,2
2024-06-14 11:41:10.277,-18.69,-44.94,7.91,0.08052,0.031232,-1.069696,2
2024-06-14 11:41:10.282,-19.67,-45.5,7.91,0.084424,-0.00244,-1.070184,2
2024-06-14 11:41:10.287,-18.83,-45.99,8.26,0.09711199999999999,0.01464,-1.08092,2
2024-06-14 11:41:10.292,-18.27,-47.39,8.12,0.096136,0.020984,-1.094584,2
2024-06-14 11:41:10.297,-16.87,-49.07,8.47,0.093208,-0.010736,-1.128744,2
2024-06-14 11:41:10.302,-15.4,-51.73,9.17,0.088816,0.0,-1.141432,2
2024-06-14 11:41:10.306,-18.9,-54.53,9.17,0.088328,0.017079999999999998,-1.140944,2
2024-06-14 11:41:10.311,-19.39,-59.5,8.96,0.101504,-0.00244,-1.191208,2
2024-06-14 11:41:10.316,-18.06,-61.11,10.29,0.094184,-0.056608,-1.2048720000000002,2
2024-06-14 11:41:10.321,-17.64,-63.42,11.34,0.112728,0.01464,-1.17852,2
2024-06-14 11:41:10.326,-17.43,-68.18,11.48,0.12444,-0.000976,-1.1794959999999999,2
2024-06-14 11:41:10.331,-16.66,-72.1,11.69,0.12736799999999998,0.064416,-1.148752,2
2024-06-14 11:41:10.335,-15.19,-72.66,10.78,0.13322399999999998,0.01464,-1.170224,2
2024-06-14 11:41:10.340,-13.79,-74.06,11.13,0.125416,0.08247199999999999,-1.136552,2
2024-06-14 11:41:10.345,-11.9,-74.9,9.52,0.124928,0.167872,-1.1848640000000001,2
2024-06-14 11:41:10.350,-9.66,-77.77,7.21,0.14200800000000002,0.10492,-1.2014559999999999,2
2024-06-14 11:41:10.355,-7.21,-78.82,5.81,0.155184,0.147376,-1.150704,2
2024-06-14 11:41:10.360,-1.89,-78.75,3.5,0.158112,0.17324,-1.19072,2
2024-06-14 11:41:10.364,1.4,-78.96,1.05,0.163968,0.147376,-1.226832,2
2024-06-14 11:41:10.369,6.65,-79.24,-0.77,0.165432,0.157136,-1.275632,2
2024-06-14 11:41:10.374,11.2,-80.85,-2.73,0.153232,0.166896,-1.325896,2
2024-06-14 11:41:10.379,15.19,-83.65,-4.69,0.162992,0.14396,-1.452288,2
2024-06-14 11:41:10.384,19.11,-90.16,-5.95,0.162016,0.079544,-1.451312,2
2024-06-14 11:41:10.389,23.31,-95.62,-6.37,0.165432,0.061488,-1.48108,2
2024-06-14 11:41:10.393,23.52,-104.3,-6.93,0.161528,0.047335999999999996,-1.5025519999999999,2
2024-06-14 11:41:10.398,25.34,-115.78,-7.28,0.157136,0.064416,-1.52012,2
2024-06-14 11:41:10.403,29.61,-122.85,-7.7,0.16104,0.069296,-1.5001120000000001,3
2024-06-14 11:41:10.408,33.46,-128.17,-7.7,0.166408,0.074176,-1.46888,3
2024-06-14 11:41:10.413,35.7,-138.11,-8.33,0.168848,0.083448,-1.5162159999999998,3
2024-06-14 11:41:10.418,31.08,-152.74,-9.8,0.149816,0.076616,-1.60796,3
2024-06-14 11:41:10.422,36.96,-158.48,-9.66,0.155672,0.022936,-1.631384,3
2024-06-14 11:41:10.427,36.19,-173.81,-9.1,0.155184,0.018544,-1.673352,3
2024-06-14 11:41:10.432,36.75,-188.65,-8.96,0.13810399999999998,0.012199999999999999,-1.749968,3
2024-06-14 11:41:10.437,33.81,-206.15,-8.33,0.116144,-0.012199999999999999,-1.881728,3
2024-06-14 11:41:10.442,32.55,-216.86,-7.21,0.104432,-0.033671999999999994,-1.821216,3
2024-06-14 11:41:10.447,22.12,-239.47,-5.67,0.108336,-0.08491199999999999,-2.207224,3
2024-06-14 11:41:10.451,28.42,-251.65,-3.08,0.05856,-0.183,-1.991528,3
2024-06-14 11:41:10.456,27.51,-282.38,-0.07,0.061975999999999996,-0.142984,-2.050576,3
2024-06-14 11:41:10.461,24.92,-304.36,2.73,0.051728,-0.16006399999999998,-2.187704,3
2024-06-14 11:41:10.466,24.29,-320.88,6.44,0.041479999999999996,-0.208864,-2.102304,3
2024-06-14 11:41:10.471,22.05,-348.04,10.78,0.048799999999999996,-0.17616800000000002,-2.257,3
2024-06-14 11:41:10.476,21.98,-363.72,12.95,0.008783999999999998,-0.06344,-2.5039279999999997,3
2024-06-14 11:41:10.480,18.55,-385.56,13.65,-0.012688,-0.10003999999999999,-2.7532959999999997,3
2024-06-14 11:41:10.485,13.23,-415.52,16.31,0.001464,-0.213744,-2.9392240000000003,3
2024-06-14 11:41:10.490,6.79,-426.23,21.77,-0.060024,-0.28206400000000004,-3.307664,3
2024-06-14 11:41:10.495,5.18,-446.18,24.43,-0.122976,-0.38600799999999996,-3.1036799999999998,3
2024-06-14 11:41:10.500,13.72,-479.64,26.04,-0.053192,-0.6417200000000001,-3.179808,3
2024-06-14 11:41:10.507,33.25,-508.34,39.2,-0.095648,-0.920856,-3.400384,3
2024-06-14 11:41:10.511,42.63,-536.41,52.36,0.032208,-0.618296,-3.448208,3
2024-06-14 11:41:10.516,50.05,-558.74,56.35,0.020496,-0.464576,-3.436496,3
2024-06-14 11:41:10.521,62.86,-576.8,60.55,0.001464,-0.599752,-3.319864,3
2024-06-14 11:41:10.526,86.8,-591.5,70.42,0.170312,-0.5978,-3.6414560000000002,4
2024-06-14 11:41:10.531,111.09,-598.64,73.15,0.5246000000000001,-0.460184,-4.273416,4
2024-06-14 11:41:10.535,139.51,-600.74,77.21,0.20984,-0.7324879999999999,-4.934656,4
2024-06-14 11:41:10.540,147.7,-601.51,91.21,0.518744,-0.99796,-4.9756480000000005,4
2024-06-14 11:41:10.545,136.22,-594.65,106.96,0.033671999999999994,-1.006256,-4.537912,4
2024-06-14 11:41:10.550,140.28,-565.11,130.48,-0.8988959999999999,-1.079944,-3.688792,4
2024-06-14 11:41:10.555,147.42,-522.83,153.09,-1.668472,-1.03212,-3.2857039999999995,4
2024-06-14 11:41:10.560,156.24,-486.71,173.6,-1.8451279999999999,-0.9530639999999999,-2.746464,4
2024-06-14 11:41:10.564,128.8,-466.2,183.47,-2.033008,-0.9667279999999999,-2.279936,4
2024-06-14 11:41:10.569,62.09,-473.06,178.29,-1.5737999999999999,-0.8413120000000001,-2.10816,4
2024-06-14 11:41:10.574,-36.47,-539.63,154.0,-0.735904,-0.211304,-1.0589600000000001,4
2024-06-14 11:41:10.579,-89.81,-500.57,113.61,-1.1082480000000001,0.08686400000000001,-1.2229279999999998,4
2024-06-14 11:41:10.584,-84.7,-371.49,77.98,-1.7167839999999999,-0.101504,-0.34745600000000004,4
2024-06-14 11:41:10.589,-67.13,-232.68,41.86,-2.253584,-0.462624,-0.549976,4
2024-06-14 11:41:10.593,-64.4,-109.62,-0.84,-2.2252799999999997,-0.5968239999999999,-0.8447279999999999,4
2024-06-14 11:41:10.598,-70.21,-16.1,-41.72,-1.7685119999999999,-0.43724799999999997,-0.988688,4
2024-06-14 11:41:10.603,-79.66,58.73,-75.6,-1.513776,-0.27425599999999994,-1.142896,4
2024-06-14 11:41:10.608,-92.26,116.13,-102.69,-1.3995840000000002,-0.21716,-1.340048,4
2024-06-14 11:41:10.613,-107.17,150.64,-124.53,-1.323456,-0.09516,-1.249768,4
2024-06-14 11:41:10.617,-124.53,168.91,-142.87,-1.202432,-0.105408,-1.2243920000000001,4
2024-06-14 11:41:10.622,-150.5,174.93,-156.66,-1.190232,-0.20788800000000002,-1.1102,4
2024-06-14 11:41:10.627,-165.06,174.79,-162.47,-1.1712,-0.283528,-1.040904,4
2024-06-14 11:41:10.632,-166.46,178.5,-163.31,-1.09068,-0.328912,-0.896944,4
2024-06-14 11:41:10.637,-163.17,185.57,-162.89,-1.031632,-0.40894400000000003,-0.72956,4
2024-06-14 11:41:10.642,-156.8,194.81,-160.93,-1.011136,-0.5343600000000001,-0.6280560000000001,4
2024-06-14 11:41:10.646,-146.23,205.24,-155.75,-0.9706319999999999,-0.638304,-0.574864,4
2024-06-14 11:41:10.651,-131.95,217.42,-147.07,-0.920856,-0.696864,-0.535824,4
2024-06-14 11:41:10.656,-115.08,230.65,-135.38,-0.87108,-0.7178479999999999,-0.52216,4
2024-06-14 11:41:10.661,-96.18,244.72,-121.66,-0.820328,-0.735416,-0.5280159999999999,4
2024-06-14 11:41:10.666,-76.93,258.37,-106.19,-0.7734800000000001,-0.750544,-0.539728,4
2024-06-14 11:41:10.671,-59.57,271.32,-89.25,-0.715896,-0.738832,-0.550464,4
2024-06-14 11:41:10.675,-44.66,283.29,-71.47,-0.665632,-0.70028,-0.579256,4
2024-06-14 11:41:10.680,-32.27,294.35,-53.55,-0.6095119999999999,-0.642208,-0.621712,4
2024-06-14 11:41:10.685,-22.19,304.85,-36.19,-0.5485119999999999,-0.580232,-0.67588,4
2024-06-14 11:41:10.690,-13.3,315.49,-19.6,-0.48556,-0.5192319999999999,-0.715408,4
2024-06-14 11:41:10.695,-5.95,325.15,-4.62,-0.44895999999999997,-0.44895999999999997,-0.760304,4
2024-06-14 11:41:10.699,0.63,334.25,8.33,-0.424072,-0.384544,-0.8174,4
2024-06-14 11:41:10.704,5.81,343.35,19.46,-0.379664,-0.31476,-0.870592,4
2024-06-14 11:41:10.709,9.94,352.52,28.77,-0.351848,-0.24790399999999999,-0.926712,4
2024-06-14 11:41:10.714,12.88,361.55,36.05,-0.330864,-0.187392,-0.983808,4
2024-06-14 11:41:10.719,15.19,368.76,41.44,-0.310856,-0.14444800000000002,-1.04432,4
2024-06-14 11:41:10.724,17.36,376.04,45.43,-0.288408,-0.122488,-1.0931199999999999,4
2024-06-14 11:41:10.728,20.09,383.11,48.37,-0.275232,-0.091744,-1.133624,4
2024-06-14 11:41:10.733,22.68,390.53,49.91,-0.26839999999999997,-0.060024,-1.169248,4
2024-06-14 11:41:10.738,24.64,397.11,50.05,-0.255224,-0.01952,-1.210728,4
2024-06-14 11:41:10.743,25.41,402.57,49.0,-0.231312,0.025864,-1.25904,4
2024-06-14 11:41:10.748,27.16,407.12,46.97,-0.20496,0.011224,-1.340536,4
2024-06-14 11:41:10.753,26.81,408.59,44.03,-0.157624,0.00732,-1.43472,4
2024-06-14 11:41:10.757,25.2,409.08,40.18,-0.115656,0.018056000000000003,-1.446432,4
2024-06-14 11:41:10.762,24.5,407.75,35.56,-0.07466400000000001,0.042455999999999994,-1.575264,4
2024-06-14 11:41:10.767,24.78,406.56,30.17,-0.054655999999999996,0.023424,-1.6011279999999999,4
2024-06-14 11:41:10.772,25.41,404.88,24.43,-0.030256,0.006344,-1.65432,4
2024-06-14 11:41:10.777,26.04,403.69,18.55,-0.015128,-0.019032,-1.706536,4
2024-06-14 11:41:10.781,27.09,403.55,12.39,-0.003904,-0.045872,-1.74704,4
2024-06-14 11:41:10.786,28.84,404.32,5.74,0.006344,-0.06978399999999998,-1.802672,4
2024-06-14 11:41:10.791,31.43,405.86,-0.77,0.010248,-0.098576,-1.875872,4
2024-06-14 11:41:10.796,33.95,407.33,-7.42,0.024887999999999997,-0.121024,-1.944192,4
2024-06-14 11:41:10.801,36.54,409.22,-14.07,0.030744,-0.1464,-2.017392,4
2024-06-14 11:41:10.806,39.55,410.34,-20.58,0.040015999999999996,-0.177144,-2.112552,4
2024-06-14 11:41:10.810,42.77,411.32,-26.53,0.057095999999999994,-0.213256,-2.2325999999999997,4
2024-06-14 11:41:10.815,45.57,410.97,-32.06,0.09516,-0.25473599999999996,-2.359968,4
2024-06-14 11:41:10.820,48.23,409.99,-37.38,0.159576,-0.27913599999999994,-2.492704,4
2024-06-14 11:41:10.825,51.24,408.1,-43.05,0.244976,-0.320616,-2.634712,4
2024-06-14 11:41:10.830,55.93,405.23,-48.93,0.34892,-0.370392,-2.7640320000000003,4
2024-06-14 11:41:10.835,61.53,401.73,-55.23,0.452864,-0.40259999999999996,-2.8792,4
2024-06-14 11:41:10.839,68.25,397.88,-61.95,0.549488,-0.40894400000000003,-2.98412,4
2024-06-14 11:41:10.844,75.6,394.52,-69.3,0.6368400000000001,-0.40503999999999996,-3.113928,4
2024-06-14 11:41:10.849,81.69,391.3,-77.07,0.760792,-0.385032,-3.255936,4
2024-06-14 11:41:10.854,85.47,389.34,-85.19,0.925248,-0.34550400000000003,-3.39648,4
2024-06-14 11:41:10.859,85.82,387.94,-94.01,1.109224,-0.296704,-3.5360479999999996,4
2024-06-14 11:41:10.863,83.3,387.73,-103.39,1.331752,-0.25912799999999997,-3.6370639999999996,4
2024-06-14 11:41:10.868,77.56,390.67,-112.7,1.606984,-0.23033599999999999,-3.698064,4
2024-06-14 11:41:10.873,66.99,395.22,-121.31,1.9139359999999999,-0.213256,-3.743448,4
2024-06-14 11:41:10.878,52.57,401.66,-127.75,2.226256,-0.218136,-3.703432,4
2024-06-14 11:41:10.883,39.76,408.52,-130.69,2.572248,-0.22838399999999998,-3.602904,4
2024-06-14 11:41:10.888,32.06,414.96,-129.15,2.938248,-0.27132799999999996,-3.425272,4
2024-06-14 11:41:10.892,29.89,418.25,-123.62,3.36476,-0.312808,-3.2437359999999997,4
2024-06-14 11:41:10.897,30.66,415.31,-114.03,3.93084,-0.41724,-2.994368,4
2024-06-14 11:41:10.902,34.02,403.06,-97.65,4.629168,-0.535824,-2.64984,4
2024-06-14 11:41:10.907,49.63,382.9,-73.22,5.3870320000000005,-0.5680320000000001,-2.13256,4
2024-06-14 11:41:10.912,73.71,356.16,-39.55,6.227856,-0.657336,-1.574288,4
2024-06-14 11:41:10.917,89.11,321.09,7.63,7.078927999999999,-0.7817759999999999,-1.182424,4
2024-06-14 11:41:10.921,92.89,271.25,69.72,7.665016,-0.87352,-1.162904,4
2024-06-14 11:41:10.926,77.35,206.01,137.06,7.964648,-0.7046720000000001,-1.2561120000000001,4
2024-06-14 11:41:10.931,57.05,135.1,196.56,8.203768,-0.16591999999999998,-1.0043039999999999,4
2024-06-14 11:41:10.936,41.79,64.82,232.12,8.037848,0.323544,-0.955992,4
2024-06-14 11:41:10.941,18.83,-5.53,248.5,7.445416,0.631472,-1.1546079999999999,4
2024-06-14 11:41:10.945,-9.87,-75.46,249.83,6.686576,0.7285839999999999,-1.340048,4
2024-06-14 11:41:10.950,-34.65,-137.48,242.83,5.86088,0.6466000000000001,-1.52012,4
2024-06-14 11:41:10.955,-290.43,-265.16,175.7,3.800544,5.395816,-6.933992,0
2024-06-14 11:41:10.960,-409.22,-425.25,48.86,1.580632,0.565592,-3.361344,0
2024-06-14 11:41:10.965,-487.06,-323.19,47.25,-0.5070319999999999,0.468968,-0.5738880000000001,0
2024-06-14 11:41:10.970,-611.66,-289.8,-16.1,-1.860744,-0.633424,-2.707912,0
2024-06-14 11:41:10.974,-362.18,-176.82,-29.82,-1.588928,-0.576816,-3.333528,0
2024-06-14 11:41:10.979,-259.21,-193.55,-72.03,-2.229672,0.50752,-1.023336,0
2024-06-14 11:41:10.984,-182.35,-258.72,-120.19,-0.922808,-0.422608,-0.803736,0
2024-06-14 11:41:10.989,-109.62,-337.75,-150.5,-0.299632,-0.0068319999999999995,-1.411296,0
2024-06-14 11:41:10.994,-72.94,-368.48,-154.49,0.43724799999999997,0.630496,-2.002752,0
2024-06-14 11:41:10.999,-128.24,-357.49,-145.88,0.8266720000000001,0.92476,-3.344264,0
