time,gyroscope_x,gyroscope_y,gyroscope_z,accelerometer_x,accelerometer_y,accelerometer_z,phase
2024-06-14 10:55:49.050,-199.5,-436.87,-33.144999999999996,3.2095759999999998,0.6910079999999998,-6.214435999999999,1
2024-06-14 10:55:49.055,-220.04500000000002,-203.63,-38.115,-2.09718,-0.126636,2.113528,1
2024-06-14 10:55:49.060,-164.78,-280.49,-23.064999999999998,0.09223200000000001,-0.097356,-2.077904,1
2024-06-14 10:55:49.065,-140.875,-244.265,-26.354999999999997,-0.861808,-0.033916,-1.348344,1
2024-06-14 10:55:49.070,-174.86,-280.03499999999997,-39.724999999999994,-0.432368,-0.12736799999999998,-0.947452,1
2024-06-14 10:55:49.075,-166.705,-303.83500000000004,-52.22,-0.35575199999999996,0.21716,-1.486936,1
2024-06-14 10:55:49.079,-138.985,-300.58,-57.785,0.094916,0.17812,-1.38958,1
2024-06-14 10:55:49.084,-114.275,-290.36,-60.025000000000006,0.284748,0.203984,-1.559404,1
2024-06-14 10:55:49.089,-87.39500000000001,-276.5,-59.815,0.406992,0.284016,-1.463268,1
2024-06-14 10:55:49.094,-60.095,-262.53499999999997,-54.6,0.35014,0.5514399999999999,-1.616012,1
2024-06-14 10:55:49.099,-21.490000000000002,-246.64499999999998,-42.42,0.34306400000000004,0.660264,-1.4064159999999999,1
2024-06-14 10:55:49.104,-20.965,-247.03,-26.39,0.160796,0.47701999999999994,-1.3998279999999999,1
2024-06-14 10:55:49.108,-20.16,-239.12,-11.094999999999999,0.097112,0.426268,-1.7250800000000002,1
2024-06-14 10:55:49.113,-16.065,-224.56,0.595,0.143228,0.267424,-1.66774,1
2024-06-14 10:55:49.118,-32.339999999999996,-202.79000000000002,7.7,0.235704,0.11028799999999997,-1.9276,1
2024-06-14 10:55:49.123,-27.72,-154.595,8.295,0.287432,-0.011223999999999998,-2.160864,1
2024-06-14 10:55:49.128,-31.64,-122.955,5.390000000000001,0.288408,-0.05416800000000001,-1.9205240000000001,1
2024-06-14 10:55:49.133,-35.35,-83.33500000000001,-3.605,0.359168,-0.16177199999999997,-1.9803039999999998,1
2024-06-14 10:55:49.137,-36.47,-67.06,-9.870000000000001,0.201056,-0.093696,-1.7250800000000002,1
2024-06-14 10:55:49.142,-30.555,-27.544999999999998,-7.875,0.290604,0.2196,-1.702632,1
2024-06-14 10:55:49.147,-29.435,-25.48,-0.31499999999999995,0.101016,0.18007199999999998,-1.4254479999999998,1
2024-06-14 10:55:49.152,-23.905,-26.25,-0.91,0.138104,0.040748000000000006,-1.237812,1
2024-06-14 10:55:49.157,-14.14,-27.650000000000002,0.525,0.048068,0.130296,-1.145824,2
2024-06-14 10:55:49.162,-6.23,-25.97,-0.13999999999999999,-0.053191999999999996,0.161772,-1.130452,2
2024-06-14 10:55:49.166,-0.315,-26.564999999999998,-0.14000000000000007,-0.051727999999999996,0.053436,-1.081164,2
2024-06-14 10:55:49.171,0.41999999999999993,-27.195,-1.75,0.014884000000000001,0.065392,-1.075064,2
2024-06-14 10:55:49.176,-2.9050000000000002,-16.66,-1.5050000000000001,0.144936,-0.19739600000000002,-1.02236,2
2024-06-14 10:55:49.181,0.3500000000000001,-28.945,-3.08,-0.019275999999999998,0.162016,-1.1299639999999997,2
2024-06-14 10:55:49.186,-0.735,-25.9,-2.9749999999999996,0.10004000000000002,-0.0017079999999999977,-1.1089799999999999,2
2024-06-14 10:55:49.191,-3.325,-25.83,-2.94,0.11687599999999998,-0.005368000000000005,-1.0772599999999999,2
2024-06-14 10:55:49.195,1.19,-25.200000000000003,-1.19,-0.010004,0.10614000000000001,-1.077016,2
2024-06-14 10:55:49.200,2.4850000000000003,-25.865,-1.19,0.004148,0.069296,-1.0431,2
2024-06-14 10:55:49.205,3.8149999999999995,-25.619999999999997,-1.645,-0.038307999999999995,0.194712,-1.08458,2
2024-06-14 10:55:49.210,6.02,-25.06,-1.295,0.005611999999999999,0.020007999999999998,-1.053348,2
2024-06-14 10:55:49.215,5.775,-25.795,-1.12,0.018788,0.06954,-1.062132,2
2024-06-14 10:55:49.219,7.385,-27.09,-1.75,0.043676,-0.07442,-1.01748,2
2024-06-14 10:55:49.224,9.870000000000001,-30.905,-0.9450000000000001,0.01098,0.09028,-1.053836,2
2024-06-14 10:55:49.229,11.76,-33.81,-1.225,-0.049288,0.09491599999999999,-1.0738439999999998,2
2024-06-14 10:55:49.234,13.684999999999999,-36.295,-1.435,0.040015999999999996,-0.029036000000000003,-1.050664,2
2024-06-14 10:55:49.239,15.68,-37.24,-1.225,0.018056000000000003,0.016591999999999996,-1.055056,2
2024-06-14 10:55:49.244,17.045,-38.885000000000005,-1.4700000000000002,0.033672,0.109068,-1.058472,2
2024-06-14 10:55:49.248,18.41,-39.165000000000006,-1.435,-0.005612,0.09174399999999999,-1.0667680000000002,2
2024-06-14 10:55:49.253,18.9,-40.075,-1.645,0.025863999999999998,0.055875999999999995,-1.048468,2
2024-06-14 10:55:49.258,19.355,-38.885000000000005,-1.715,0.035136,0.055632,-1.04554,2
2024-06-14 10:55:49.263,19.46,-38.465,-1.9249999999999998,0.019032,0.056364,-1.045296,2
2024-06-14 10:55:49.268,18.549999999999997,-36.644999999999996,-1.6800000000000002,0.013663999999999999,0.037576,-1.03944,2
2024-06-14 10:55:49.273,16.625,-36.785,-1.19,0.0305,0.021471999999999998,-1.0411479999999997,2
2024-06-14 10:55:49.277,14.315000000000001,-36.364999999999995,-0.98,0.022203999999999998,0.023667999999999998,-1.024068,2
2024-06-14 10:55:49.282,13.684999999999999,-35.14,-0.9099999999999999,-0.06417199999999999,0.039284,-1.042856,2
2024-06-14 10:55:49.287,12.355,-36.715,-0.9450000000000001,0.045628,0.033672,-1.032364,2
2024-06-14 10:55:49.292,12.635,-36.54,-0.35000000000000003,0.36063199999999995,0.055876,-0.882792,2
2024-06-14 10:55:49.297,11.865,-38.08,0.07,-0.037576000000000005,-0.055144,-1.148264,2
2024-06-14 10:55:49.302,9.835,-40.459999999999994,-0.91,-0.11468,0.05075199999999999,-1.03822,2
2024-06-14 10:55:49.306,9.555,-37.905,0.0,-0.287188,-0.016348,-1.1346,2
2024-06-14 10:55:49.311,8.82,-22.19,0.63,-0.016835999999999993,-0.076616,-1.18584,2
2024-06-14 10:55:49.316,5.04,-39.655,-0.45499999999999996,-0.10736,0.035624,-1.0133320000000001,2
2024-06-14 10:55:49.321,3.5700000000000003,-37.31,1.19,-0.097356,-0.08125199999999999,-1.097268,2
2024-06-14 10:55:49.326,0.21000000000000002,-42.35,1.365,-0.24936799999999998,0.11663200000000001,-1.078236,2
2024-06-14 10:55:49.331,-1.5050000000000001,-40.25,0.735,0.105652,0.07076,-0.9008479999999999,2
2024-06-14 10:55:49.335,-3.815,-41.44,2.31,-0.13663999999999998,-0.009516,-1.070916,2
2024-06-14 10:55:49.340,-4.795,-38.64,1.2249999999999999,-0.06124400000000001,0.047336,-0.9816119999999999,2
2024-06-14 10:55:49.345,-6.859999999999999,-39.480000000000004,1.5750000000000002,0.106384,0.028547999999999997,-0.9445239999999999,2
2024-06-14 10:55:49.350,-5.075,-37.205,2.45,-0.060268,-0.039772,-1.090436,2
2024-06-14 10:55:49.355,-5.635,-35.7,1.4700000000000002,0.074908,0.021716000000000003,-1.0152839999999999,2
2024-06-14 10:55:49.359,-4.795,-35.735,1.715,-0.012199999999999989,0.067588,-1.003328,2
2024-06-14 10:55:49.364,-3.675,-34.265,1.645,0.267668,0.11516799999999999,-0.866932,2
2024-06-14 10:55:49.369,-4.9,-37.03,1.435,0.109556,0.03782,-0.980392,2
2024-06-14 10:55:49.374,-4.305,-36.155,1.33,0.108824,0.034404000000000004,-0.9950319999999999,2
2024-06-14 10:55:49.379,-3.92,-36.435,1.4,0.095892,0.053192,-0.9974719999999999,2
2024-06-14 10:55:49.384,-2.87,-35.735,2.1350000000000002,0.36234,-0.081008,-1.014308,2
2024-06-14 10:55:49.388,-3.745,-36.54,1.47,0.094672,0.027816,-1.002108,2
2024-06-14 10:55:49.393,-3.185,-35.77,1.505,0.117364,0.039284,-1.0047920000000001,2
2024-06-14 10:55:49.398,-3.8499999999999996,-36.54,1.54,0.1159,0.031964,-1.0082080000000002,2
2024-06-14 10:55:49.403,-4.13,-34.86,1.855,-0.074908,0.16958,-0.9330559999999999,2
2024-06-14 10:55:49.408,-5.880000000000001,-38.43,1.75,0.152744,0.021228,-1.030656,2
2024-06-14 10:55:49.413,-7.98,-38.955,2.17,0.12980799999999998,0.024888,-1.0165039999999999,2
2024-06-14 10:55:49.417,-9.135000000000002,-39.095,2.4850000000000003,0.13078399999999998,0.0305,-1.01016,2
2024-06-14 10:55:49.422,-11.515,-39.2,2.38,0.138104,0.040260000000000004,-1.01138,2
2024-06-14 10:55:49.427,-12.6,-36.995000000000005,2.38,0.13541999999999998,-0.0009760000000000012,-1.066036,2
2024-06-14 10:55:49.432,-14.315000000000001,-36.015,1.7850000000000001,0.050263999999999996,0.035624,-1.000888,2
2024-06-14 10:55:49.437,-14.385,-37.975,1.89,0.152744,0.055876,-0.9908840000000001,2
2024-06-14 10:55:49.442,-13.370000000000001,-36.89,1.995,0.145424,0.045628,-1.0140639999999999,2
2024-06-14 10:55:49.446,-13.579999999999998,-35.735,1.8199999999999998,0.157868,0.051727999999999996,-1.005036,3
2024-06-14 10:55:49.451,-11.795,-35.35,1.75,0.155672,0.064904,-1.026508,3
2024-06-14 10:55:49.456,-10.08,-35.945,1.365,0.155184,0.066612,-1.0348039999999998,3
2024-06-14 10:55:49.461,-7.245,-36.644999999999996,1.05,0.157136,0.080764,-1.042124,3
2024-06-14 10:55:49.466,-3.0100000000000002,-38.5,0.8049999999999999,0.17519200000000001,0.032451999999999995,-1.0555439999999998,3
2024-06-14 10:55:49.471,-4.305,-41.335,0.105,0.198372,0.034648,-1.061156,3
2024-06-14 10:55:49.475,0.595,-44.485,0.315,0.13688399999999998,0.105652,-1.10532,3
2024-06-14 10:55:49.480,7.07,-50.120000000000005,0.42000000000000004,0.15054800000000002,0.102968,-1.0845799999999999,3
2024-06-14 10:55:49.485,14.805,-51.17,1.015,0.200568,0.045627999999999995,-1.263676,3
2024-06-14 10:55:49.490,6.405,-43.05,0.385,0.179828,0.105408,-1.1675399999999998,3
2024-06-14 10:55:49.495,4.865,-59.394999999999996,-1.05,0.150304,0.069784,-1.207312,3
2024-06-14 10:55:49.500,12.145,-63.875,-1.12,0.17763199999999998,0.044163999999999995,-1.322236,3
2024-06-14 10:55:49.504,27.055,-64.435,-0.07,0.14932800000000002,0.07539599999999999,-1.315648,3
2024-06-14 10:55:49.509,24.325000000000003,-68.565,-1.19,0.188368,0.112728,-1.219268,3
2024-06-14 10:55:49.514,33.075,-76.475,0.21000000000000002,0.112728,-0.04148,-1.36762,3
2024-06-14 10:55:49.519,34.125,-84.77000000000001,-0.8049999999999999,0.156892,0.09247599999999999,-1.3595679999999999,3
2024-06-14 10:55:49.524,37.31,-96.355,-2.975,0.221796,0.068808,-1.244644,3
2024-06-14 10:55:49.528,39.584999999999994,-101.39500000000001,-4.585,0.216428,0.100528,-1.355176,3
2024-06-14 10:55:49.533,45.255,-99.53999999999999,-5.635,0.20008,0.12785599999999997,-1.4039760000000001,3
2024-06-14 10:55:49.538,48.58,-112.49000000000001,-7.279999999999999,0.21105999999999997,0.13419999999999999,-1.3415119999999998,3
2024-06-14 10:55:49.543,51.17,-118.78999999999999,-8.785,0.189832,0.086864,-1.37006,3
2024-06-14 10:55:49.548,53.06,-124.6,-9.975,0.208376,0.076616,-1.43716,3
2024-06-14 10:55:49.553,55.650000000000006,-130.305,-10.675,0.195932,0.061,-1.4557039999999999,3
2024-06-14 10:55:49.557,52.57,-139.37,-9.905000000000001,0.22521199999999997,0.064416,-1.38836,3
2024-06-14 10:55:49.562,41.93,-156.695,-11.129999999999999,0.205204,0.056364000000000004,-1.89588,3
2024-06-14 10:55:49.567,56.56,-153.86,-9.695,0.189344,-0.029768,-1.337364,3
2024-06-14 10:55:49.572,49.28,-170.975,-9.17,0.199348,0.00976,-1.6862840000000001,3
2024-06-14 10:55:49.577,52.394999999999996,-180.775,-7.665,0.1769,-0.08417999999999999,-1.5459839999999998,3
2024-06-14 10:55:49.582,47.879999999999995,-194.70499999999998,-4.865,0.19032,-0.12102399999999999,-1.5725799999999999,3
2024-06-14 10:55:49.586,43.120000000000005,-208.425,-1.33,0.17421599999999998,-0.17202,-1.561112,3
2024-06-14 10:55:49.591,40.74,-221.375,2.45,0.166408,-0.176168,-1.5667239999999998,3
2024-06-14 10:55:49.596,38.605,-232.155,6.65,0.168116,-0.232044,-1.669448,3
2024-06-14 10:55:49.601,38.43,-245.945,12.425,0.206424,-0.239364,-1.746796,3
2024-06-14 10:55:49.606,37.17,-260.225,17.604999999999997,0.23546,-0.22814,-1.912716,3
2024-06-14 10:55:49.611,35.035,-277.54999999999995,24.009999999999998,0.17812,-0.282796,-2.100596,3
2024-06-14 10:55:49.615,31.185000000000002,-297.22,31.465,0.138104,-0.37454,-2.057652,3
2024-06-14 10:55:49.620,26.32,-320.32,40.425,0.09638,-0.48775599999999997,-2.0293479999999997,3
2024-06-14 10:55:49.625,18.795,-344.4,50.995,0.083448,-0.599264,-2.200148,3
2024-06-14 10:55:49.630,16.485,-370.265,62.72,0.06222,-0.65758,-2.215032,3
2024-06-14 10:55:49.635,13.195,-398.78999999999996,74.305,0.074664,-0.655384,-2.31312,3
2024-06-14 10:55:49.640,11.165,-424.83000000000004,83.61500000000001,0.200324,-0.554368,-2.595428,3
2024-06-14 10:55:49.644,4.55,-450.24,87.5,0.29914399999999997,-0.352336,-2.8262519999999998,3
2024-06-14 10:55:49.649,-10.675,-479.29,87.36,0.168848,-0.22716399999999998,-2.8691959999999996,3
2024-06-14 10:55:49.654,-28.945,-504.315,84.175,0.220332,-0.19519999999999998,-3.094896,3
2024-06-14 10:55:49.659,-37.870000000000005,-519.995,79.065,0.329888,-0.18348799999999998,-3.2842399999999996,3
2024-06-14 10:55:49.664,-30.659999999999997,-526.715,72.625,0.42456000000000005,-0.137372,-3.117588,3
2024-06-14 10:55:49.669,-3.955,-527.485,68.74000000000001,0.531188,-0.026352,-3.1017279999999996,3
2024-06-14 10:55:49.673,17.43,-527.94,64.33,0.45066799999999996,-0.07466400000000001,-3.157604,3
2024-06-14 10:55:49.678,25.025,-523.005,62.334999999999994,0.457012,-0.100772,-3.1793199999999997,3
2024-06-14 10:55:49.683,21.07,-515.34,62.195,0.537044,-0.141764,-3.3598799999999995,3
2024-06-14 10:55:49.688,5.46,-505.085,62.685,0.405528,-0.32574,-3.36598,3
2024-06-14 10:55:49.693,-8.085,-491.08500000000004,66.36,0.1952,-0.5314319999999999,-3.05244,3
2024-06-14 10:55:49.697,-24.15,-481.775,73.395,-0.186416,-0.7607919999999999,-2.604212,3
2024-06-14 10:55:49.702,-43.47,-469.35,80.78,-0.8064199999999999,-0.856196,-2.240164,3
2024-06-14 10:55:49.707,-40.67,-429.275,91.21,-1.152412,-0.953064,-1.441552,3
2024-06-14 10:55:49.712,-23.03,-377.02,108.255,-1.609668,-1.1619279999999998,-1.412272,4
2024-06-14 10:55:49.717,1.5750000000000002,-310.905,132.195,-1.7428919999999999,-1.153144,-1.464488,4
2024-06-14 10:55:49.722,19.39,-248.60500000000002,152.39,-1.452532,-1.029436,-1.504992,4
2024-06-14 10:55:49.726,37.905,-193.935,163.695,-1.266604,-0.706868,-1.597224,4
2024-06-14 10:55:49.731,46.725,-147.735,166.635,-1.231712,-0.24448799999999998,-1.495232,4
2024-06-14 10:55:49.736,34.16,-112.13999999999999,152.11,-0.9457439999999999,-0.09272,-1.3402919999999998,4
2024-06-14 10:55:49.741,9.17,-74.83,117.11,-1.301008,-0.311832,-1.1833999999999998,4
2024-06-14 10:55:49.746,-12.985,-3.254999999999999,86.835,-1.793644,-0.377468,-1.139968,4
2024-06-14 10:55:49.751,-47.18,51.905,58.94,-1.8221919999999998,-0.127612,-1.008208,4
2024-06-14 10:55:49.755,-79.87,102.935,33.95,-1.7223959999999998,0.2745,-1.166564,4
2024-06-14 10:55:49.760,-96.25,123.13,25.445,-1.338584,-0.075396,-0.991128,4
2024-06-14 10:55:49.765,-114.44999999999999,136.57,13.265,-1.1726640000000002,-0.30402399999999996,-0.8854759999999999,4
2024-06-14 10:55:49.770,-124.03999999999999,142.555,-4.515,-1.158756,-0.4819,-0.7876319999999999,4
2024-06-14 10:55:49.775,-121.905,155.435,-17.08,-1.214388,-0.534604,-0.691252,4
2024-06-14 10:55:49.780,-106.26,171.395,-21.35,-1.172664,-0.6229319999999999,-0.57218,4
2024-06-14 10:55:49.784,-80.57,184.31,-21.84,-1.0845799999999999,-0.6810039999999999,-0.528016,4
2024-06-14 10:55:49.789,-52.78,197.85500000000002,-20.825,-1.01016,-0.706624,-0.484828,4
2024-06-14 10:55:49.794,-26.88,210.63,-20.335,-0.955748,-0.6797839999999999,-0.47214,4
2024-06-14 10:55:49.799,-2.8350000000000004,223.89499999999998,-20.755,-0.912804,-0.610732,-0.488,4
2024-06-14 10:55:49.804,17.57,236.495,-21.665,-0.859124,-0.516548,-0.506788,4
2024-06-14 10:55:49.809,33.39,247.66000000000003,-23.345,-0.794464,-0.419436,-0.5309440000000001,4
2024-06-14 10:55:49.813,43.995000000000005,256.97,-25.9,-0.732488,-0.32964400000000005,-0.559736,4
2024-06-14 10:55:49.818,50.225,265.755,-29.68,-0.683444,-0.24912399999999998,-0.5977999999999999,4
2024-06-14 10:55:49.823,53.095,274.68,-34.125,-0.640744,-0.178364,-0.642208,4
2024-06-14 10:55:49.828,53.48,284.585,-39.095,-0.601216,-0.12346399999999999,-0.68686,4
2024-06-14 10:55:49.833,52.43,295.4,-43.68,-0.57218,-0.08857199999999998,-0.731024,4
2024-06-14 10:55:49.837,50.61,307.475,-47.495,-0.551196,-0.06246399999999999,-0.76006,4
2024-06-14 10:55:49.842,47.915,320.495,-50.260000000000005,-0.531188,-0.048556,-0.789584,4
2024-06-14 10:55:49.847,44.730000000000004,333.585,-51.765,-0.499224,-0.032208,-0.8235,4
2024-06-14 10:55:49.852,41.16,345.45000000000005,-51.94,-0.45628,-0.035624,-0.870592,4
2024-06-14 10:55:49.857,38.010000000000005,355.03999999999996,-50.365,-0.39845200000000003,-0.050752,-0.920856,4
2024-06-14 10:55:49.862,36.05,361.76,-47.25,-0.34233199999999997,-0.07539599999999999,-0.9720959999999998,4
2024-06-14 10:55:49.866,36.33,365.82,-42.805,-0.28791999999999995,-0.097112,-1.01992,4
2024-06-14 10:55:49.871,38.394999999999996,368.445,-37.31,-0.23668,-0.12102399999999999,-1.064328,4
2024-06-14 10:55:49.876,42.21,369.985,-31.185,-0.195932,-0.14029999999999998,-1.1058080000000001,4
2024-06-14 10:55:49.881,47.6,371.315,-24.64,-0.1647,-0.152256,-1.156072,4
2024-06-14 10:55:49.886,54.355000000000004,372.855,-17.78,-0.137616,-0.143228,-1.2185359999999998,4
2024-06-14 10:55:49.891,61.39,374.95500000000004,-11.235,-0.115412,-0.133712,-1.2968600000000001,4
2024-06-14 10:55:49.895,68.35499999999999,378.245,-5.18,-0.092476,-0.106628,-1.377136,4
2024-06-14 10:55:49.900,74.55,382.725,0.10499999999999998,-0.07319999999999999,-0.077348,-1.4654639999999999,4
2024-06-14 10:55:49.905,79.13499999999999,387.975,4.305,-0.042456,-0.031476000000000004,-1.547936,4
2024-06-14 10:55:49.910,82.32,393.435,7.595,-0.007563999999999999,0.003416,-1.631872,4
2024-06-14 10:55:49.915,84.38499999999999,398.44,9.73,0.032452,0.0366,-1.721176,4
2024-06-14 10:55:49.920,85.855,402.53499999999997,10.885,0.074908,0.066612,-1.802916,4
2024-06-14 10:55:49.924,87.01,405.19500000000005,11.06,0.1159,0.09418399999999999,-1.8817279999999998,4
2024-06-14 10:55:49.929,88.47999999999999,406.56,10.115,0.155184,0.12077999999999998,-1.94712,4
2024-06-14 10:55:49.934,90.72,406.525,7.84,0.194468,0.157624,-2.017392,4
2024-06-14 10:55:49.939,93.45,404.985,3.7800000000000002,0.241072,0.19690800000000003,-2.08498,4
2024-06-14 10:55:49.944,96.145,402.22,-2.17,0.284016,0.23302,-2.165012,4
2024-06-14 10:55:49.949,98.28,398.23,-9.87,0.326472,0.2715719999999999,-2.25822,4
2024-06-14 10:55:49.953,100.03,393.365,-18.935000000000002,0.37185599999999996,0.317444,-2.339716,4
2024-06-14 10:55:49.958,101.11500000000001,387.94,-29.225,0.41358,0.36697599999999997,-2.4236519999999997,4
2024-06-14 10:55:49.963,101.185,383.07500000000005,-40.11,0.447496,0.397232,-2.5041719999999996,4
2024-06-14 10:55:49.968,99.4,379.19,-50.785,0.479704,0.424316,-2.583472,4
2024-06-14 10:55:49.973,96.63499999999999,376.42499999999995,-60.69,0.514596,0.442372,-2.683268,4
2024-06-14 10:55:49.978,92.92500000000001,375.48,-70.0,0.562176,0.454572,-2.7872120000000002,4
2024-06-14 10:55:49.982,87.815,376.67,-78.75,0.627324,0.452864,-2.9026240000000003,4
2024-06-14 10:55:49.987,79.905,380.135,-87.00999999999999,0.710772,0.44578799999999996,-3.0002240000000002,4
2024-06-14 10:55:49.992,69.86,385.77,-94.045,0.82228,0.418948,-3.091236,4
2024-06-14 10:55:49.997,58.730000000000004,393.225,-99.01499999999999,0.9742919999999999,0.367464,-3.166388,4
2024-06-14 10:55:50.002,46.69,401.065,-101.465,1.176812,0.286212,-3.22202,4
2024-06-14 10:55:50.006,34.055,406.945,-101.22,1.411296,0.190076,-3.239344,4
2024-06-14 10:55:50.011,21.42,409.53499999999997,-98.49000000000001,1.657492,0.09174399999999999,-3.212748,4
2024-06-14 10:55:50.016,5.355,406.945,-92.92500000000001,2.423164,-0.132004,-3.2354399999999996,4
2024-06-14 10:55:50.021,-51.695,337.19,-94.32499999999999,2.790384,0.47165199999999996,-4.017948,4
2024-06-14 10:55:50.026,-41.44,366.695,-90.545,1.467416,-0.115412,-2.395104,4
2024-06-14 10:55:50.031,-52.254999999999995,383.845,-77.49000000000001,2.1532999999999998,-0.5541240000000001,-2.2325999999999997,4
2024-06-14 10:55:50.035,-32.025,367.395,-64.435,3.0724479999999996,-0.7807999999999999,-2.717672,4
2024-06-14 10:55:50.040,-10.64,333.725,-58.69499999999999,3.428444,-0.888648,-2.838208,4
2024-06-14 10:55:50.045,10.01,296.83500000000004,-56.94499999999999,3.4465000000000003,-0.8288679999999999,-2.3172680000000003,4
2024-06-14 10:55:50.050,30.310000000000002,264.11,-54.425,3.397944,-0.66368,-1.71654,4
2024-06-14 10:55:50.055,56.84,238.945,-48.265,3.560936,-0.49727199999999994,-1.3695719999999998,4
2024-06-14 10:55:50.060,86.345,214.2,-40.075,3.9142479999999997,-0.305488,-1.291736,4
2024-06-14 10:55:50.064,108.465,184.1,-33.495000000000005,4.283664,-0.032696,-1.280024,4
2024-06-14 10:55:50.069,117.11,151.13,-29.855,4.596472,0.282796,-1.186572,4
2024-06-14 10:55:50.074,109.83,116.58500000000001,-28.0,4.858772,0.632692,-1.0604239999999998,4
2024-06-14 10:55:50.079,92.68,75.845,-37.345,4.874143999999999,0.866932,-1.006012,4
2024-06-14 10:55:50.084,61.17999999999999,35.07,-42.105000000000004,4.840228,1.020896,-1.039928,4
2024-06-14 10:55:50.089,21.35,-9.030000000000001,-47.04,4.690656,1.05652,-1.101416,4
2024-06-14 10:55:50.093,-19.04,-53.165000000000006,-51.555,4.427868,0.933788,-1.147776,4
2024-06-14 10:55:50.098,-52.394999999999996,-92.47,-53.83,4.093344,0.6800280000000001,-1.1758359999999999,4
2024-06-14 10:55:50.103,-72.94,-121.83500000000001,-51.31,3.910344,-0.4228519999999999,-1.280024,4
