time,gyroscope_x,gyroscope_y,gyroscope_z,accelerometer_x,accelerometer_y,accelerometer_z,phase
2024-06-14 12:37:38.581,119.28,-327.74,-80.185,8.192056000000001,-2.0073879999999997,-2.2391880000000004,1
2024-06-14 12:37:38.585,26.845,-232.155,-46.55,1.38226,-1.494256,2.876272,1
2024-06-14 12:37:38.590,49.035,-319.27,-44.8,1.276608,0.888892,-0.216184,1
2024-06-14 12:37:38.595,-3.1149999999999984,-426.965,-38.150000000000006,-0.14957200000000004,0.094916,-1.769244,1
2024-06-14 12:37:38.600,-57.89,-466.9,-17.955000000000002,-2.450004,-0.111264,-1.6118640000000002,1
2024-06-14 12:37:38.605,-66.045,-484.4,-7.49,-1.497428,0.304756,-1.8736760000000001,1
2024-06-14 12:37:38.610,-19.775000000000002,-472.15,-13.790000000000001,0.21935599999999997,0.629032,-1.71044,1
2024-06-14 12:37:38.614,40.285,-430.95500000000004,-25.41,1.60308,0.113216,-2.226988,1
2024-06-14 12:37:38.619,82.635,-367.675,-36.4,1.5525719999999998,0.04660399999999999,-2.790628,1
2024-06-14 12:37:38.624,86.555,-310.65999999999997,-45.605000000000004,0.7420040000000001,0.131516,-3.002664,1
2024-06-14 12:37:38.629,80.745,-249.515,-42.525,0.056119999999999996,-0.095648,-2.9565479999999997,1
2024-06-14 12:37:38.634,51.31,-194.18,-35.769999999999996,0.21228000000000002,0.039771999999999995,-2.7542720000000003,1
2024-06-14 12:37:38.639,33.11,-145.67000000000002,-28.595,0.574376,0.39893999999999996,-2.3870519999999997,1
2024-06-14 12:37:38.644,29.785,-113.19,-16.975,0.6402559999999999,0.337208,-1.976156,1
2024-06-14 12:37:38.648,30.835,-88.515,-1.7150000000000003,0.570228,0.165676,-1.6911640000000001,1
2024-06-14 12:37:38.653,20.685000000000002,-73.43,15.155,0.31768799999999997,-0.044652,-1.402024,1
2024-06-14 12:37:38.658,4.235,-62.265,19.32,0.037332000000000004,-0.201788,-1.182912,1
2024-06-14 12:37:38.663,-4.550000000000001,-59.22,7.91,-0.17958400000000002,-0.11956,-1.0238239999999998,1
2024-06-14 12:37:38.668,-8.75,-58.065,-6.789999999999999,-0.274988,0.08198399999999999,-0.97234,1
2024-06-14 12:37:38.673,-11.06,-52.85,-12.25,-0.040015999999999996,0.17055599999999999,-0.91378,1
2024-06-14 12:37:38.677,-13.265,-38.85,-6.790000000000001,0.11541200000000001,0.214476,-0.9362280000000001,1
2024-06-14 12:37:38.682,-10.815000000000001,-26.354999999999997,1.225,0.233508,0.235704,-0.9725839999999999,1
2024-06-14 12:37:38.687,-3.045,-17.185,3.5,0.2501,0.188124,-1.06628,1
2024-06-14 12:37:38.692,0.42000000000000004,-12.075,1.1900000000000002,0.12932,0.061488,-1.0894599999999999,1
2024-06-14 12:37:38.697,-1.225,-7.945,-2.205,0.04758,0.016592,-1.0667680000000002,1
2024-06-14 12:37:38.702,-3.395,-4.9,-3.395,0.013908,0.086376,-1.056032,1
2024-06-14 12:37:38.707,-2.5549999999999997,-4.375,-2.94,0.002684,0.15884399999999999,-1.045052,2
2024-06-14 12:37:38.711,0.175,-4.865,-1.89,-0.010004,0.142496,-1.0601800000000001,2
2024-06-14 12:37:38.716,2.8,-6.545,-2.485,-0.004392,0.112972,-1.126548,2
2024-06-14 12:37:38.721,3.5,-9.8,-3.57,-0.029036,0.069052,-1.177788,2
2024-06-14 12:37:38.726,2.5199999999999996,-12.879999999999999,-3.8499999999999996,-0.026596,0.056364,-1.1526560000000001,2
2024-06-14 12:37:38.731,0.91,-15.4,-3.15,-0.01952,0.07564,-1.087264,2
2024-06-14 12:37:38.736,-0.42000000000000004,-17.325000000000003,-2.8,-0.013176,0.084424,-1.043588,2
2024-06-14 12:37:38.740,-1.575,-18.445,-2.66,-0.005612,0.11053199999999999,-1.031388,2
2024-06-14 12:37:38.745,-1.505,-18.585,-2.66,-0.011224,0.124196,-1.05774,2
2024-06-14 12:37:38.750,-1.365,-17.08,-2.24,-0.00488,0.101992,-1.0531039999999998,2
2024-06-14 12:37:38.755,-0.665,-17.605,-2.38,-0.017324,0.122,-1.056032,2
2024-06-14 12:37:38.760,0.84,-18.479999999999997,-2.45,-0.027572,0.130052,-1.06384,2
2024-06-14 12:37:38.765,3.2199999999999998,-20.020000000000003,-3.22,-0.024156,0.144204,-1.058716,2
2024-06-14 12:37:38.770,5.5649999999999995,-21.28,-3.29,-0.022203999999999998,0.13078399999999998,-1.045052,2
2024-06-14 12:37:38.774,7.35,-21.525,-3.325,-0.014639999999999999,0.11297199999999999,-1.027728,2
2024-06-14 12:37:38.779,10.045,-20.23,-3.08,-0.010492,0.104432,-1.0230920000000001,2
2024-06-14 12:37:38.784,10.64,-19.6,-2.975,0.00122,0.09516,-1.027484,2
2024-06-14 12:37:38.789,10.99,-19.285,-2.8,-0.00122,0.102968,-1.035292,2
2024-06-14 12:37:38.794,11.235,-19.880000000000003,-2.7649999999999997,-0.00488,0.096868,-1.037976,2
2024-06-14 12:37:38.799,11.375,-20.509999999999998,-2.87,-0.017079999999999998,0.10345599999999999,-1.03944,2
2024-06-14 12:37:38.803,11.865,-21.384999999999998,-2.73,-0.0026839999999999998,0.093696,-1.042612,2
2024-06-14 12:37:38.808,12.32,-22.4,-2.73,-0.0017079999999999999,0.098576,-1.041148,2
2024-06-14 12:37:38.813,12.775,-23.485,-2.66,0.0034159999999999998,0.09759999999999999,-1.0304119999999999,2
2024-06-14 12:37:38.818,13.23,-24.71,-2.6950000000000003,0.003172,0.09881999999999999,-1.020408,2
2024-06-14 12:37:38.823,13.649999999999999,-24.395,-2.5549999999999997,0.016347999999999998,0.101016,-1.0065,2
2024-06-14 12:37:38.828,13.685,-24.5,-2.8,0.01342,0.100284,-1.016748,2
2024-06-14 12:37:38.833,13.58,-24.535,-2.9749999999999996,0.014884,0.101504,-1.0128439999999999,2
2024-06-14 12:37:38.837,13.825,-24.009999999999998,-3.29,0.016592000000000003,0.10248,-1.0133320000000001,2
2024-06-14 12:37:38.842,13.825,-23.205,-3.57,0.018788,0.106872,-1.00772,2
2024-06-14 12:37:38.847,14.175,-22.085,-3.92,0.022204,0.094672,-1.014796,2
2024-06-14 12:37:38.852,14.035,-22.855,-4.095000000000001,0.026108,0.09272,-1.011868,2
2024-06-14 12:37:38.857,13.614999999999998,-22.365000000000002,-4.095,0.02806,0.076128,-1.014308,2
2024-06-14 12:37:38.862,12.495000000000001,-21.384999999999998,-3.955,0.0305,0.07295600000000001,-1.013088,2
2024-06-14 12:37:38.866,11.06,-21.525,-3.745,0.03318399999999999,0.069784,-1.0133320000000001,2
2024-06-14 12:37:38.871,9.8,-20.02,-3.395,0.031231999999999996,0.072712,-1.0230920000000001,2
2024-06-14 12:37:38.876,8.68,-21.315,-3.045,0.039528,0.057828000000000004,-1.0187,2
2024-06-14 12:37:38.881,7.7,-19.285,-2.66,0.039284,0.061488,-1.020896,2
2024-06-14 12:37:38.886,6.369999999999999,-19.215,-2.24,0.036844,0.06246399999999999,-1.020408,2
2024-06-14 12:37:38.891,5.215,-20.265,-1.9249999999999998,0.038796,0.065636,-1.022116,2
2024-06-14 12:37:38.896,3.885,-21.21,-1.68,0.040748000000000006,0.075152,-1.0204079999999998,2
2024-06-14 12:37:38.900,3.465,-20.439999999999998,-1.715,0.042456,0.072712,-1.0218720000000001,2
2024-06-14 12:37:38.905,2.94,-21.0,-1.6099999999999999,0.044652,0.073932,-1.02602,2
2024-06-14 12:37:38.910,47.25,-123.515,-2.87,0.048312,0.070516,-1.147776,2
2024-06-14 12:37:38.915,-9.94,-24.255,-1.995,0.050263999999999996,0.087352,-1.014308,2
2024-06-14 12:37:38.920,12.39,-23.450000000000003,2.5200000000000005,0.050508,0.09003599999999999,-1.013576,2
2024-06-14 12:37:38.925,-7.385,-21.525,-3.3950000000000005,0.051727999999999996,0.099064,-1.013088,2
2024-06-14 12:37:38.929,10.535,-17.255000000000003,-4.76,0.05246,0.09296399999999999,-1.0126,2
2024-06-14 12:37:38.934,-3.1850000000000005,-18.655,-3.0799999999999996,0.055875999999999995,0.09028,-1.0128439999999999,2
2024-06-14 12:37:38.939,6.4399999999999995,-18.375,0.3849999999999998,0.062952,0.083448,-1.0169920000000001,2
2024-06-14 12:37:38.944,0.34999999999999987,-18.34,-2.065,0.05978,0.080764,-1.015772,2
2024-06-14 12:37:38.949,2.6950000000000003,-18.305,-4.76,0.06709999999999999,0.071492,-1.023336,2
2024-06-14 12:37:38.954,1.7149999999999999,-18.55,-3.8500000000000005,0.06246399999999999,0.06466,-1.02602,2
2024-06-14 12:37:38.959,-0.9100000000000001,-19.425,-1.0850000000000002,0.06295200000000001,0.066612,-1.0301680000000002,2
2024-06-14 12:37:38.963,0.9099999999999999,-19.634999999999998,-0.77,0.062708,0.067832,-1.033096,2
2024-06-14 12:37:38.968,-2.415,-19.81,-3.115,0.066124,0.072468,-1.036756,2
2024-06-14 12:37:38.973,0.035,-20.93,-3.255,0.066856,0.077348,-1.040172,2
2024-06-14 12:37:38.978,-2.8,-22.015,-1.855,0.069296,0.076128,-1.043832,2
2024-06-14 12:37:38.983,-1.19,-22.96,-0.84,0.065148,0.07808000000000001,-1.0457839999999998,2
2024-06-14 12:37:38.988,-2.5549999999999997,-24.08,-2.065,0.0732,0.07905599999999999,-1.043588,2
2024-06-14 12:37:38.992,-1.6099999999999999,-24.990000000000002,-2.87,0.07222400000000001,0.076128,-1.046272,2
2024-06-14 12:37:38.997,-1.575,-25.549999999999997,-2.065,0.078812,0.07783599999999999,-1.0433439999999998,2
2024-06-14 12:37:39.002,-1.6800000000000002,-26.424999999999997,-1.19,0.078812,0.079788,-1.043588,2
2024-06-14 12:37:39.007,-1.295,-25.305,-1.5750000000000002,0.083204,0.08369199999999999,-1.037976,2
2024-06-14 12:37:39.012,-2.205,-27.265,-2.485,0.087596,0.08247199999999999,-1.0311439999999998,2
2024-06-14 12:37:39.017,-1.855,-27.125,-2.4850000000000003,0.083448,0.080764,-1.048224,2
2024-06-14 12:37:39.022,-1.855,-23.38,-1.855,0.08662,0.061975999999999996,-1.0804319999999998,2
2024-06-14 12:37:39.026,-2.8,-31.325,-1.225,0.08052,0.095648,-1.061888,2
2024-06-14 12:37:39.031,-2.835,-32.48,-2.1,0.09101200000000001,0.087352,-1.056276,2
2024-06-14 12:37:39.036,0.805,-32.445,-1.715,0.101992,0.103944,-1.048224,2
2024-06-14 12:37:39.041,2.905,-31.36,-0.20999999999999985,0.10248,0.081008,-1.069452,2
2024-06-14 12:37:39.046,3.3600000000000003,-32.445,0.10499999999999998,0.096868,0.06953999999999999,-1.0450519999999999,2
2024-06-14 12:37:39.051,4.025,-31.185,0.42,0.104188,0.061244,-1.067744,2
2024-06-14 12:37:39.055,5.04,-30.134999999999998,-0.49,0.104188,0.076128,-1.0655480000000002,2
2024-06-14 12:37:39.060,5.8100000000000005,-31.009999999999998,-0.14,0.09589199999999999,0.085644,-1.091412,2
2024-06-14 12:37:39.065,5.705,-33.004999999999995,0.10500000000000004,0.098332,0.08174,-1.117764,2
2024-06-14 12:37:39.070,1.33,-39.269999999999996,-0.385,0.109556,0.071248,-1.0931199999999999,2
2024-06-14 12:37:39.075,-6.055,-37.66,-0.945,0.09638000000000001,0.084668,-1.135088,2
2024-06-14 12:37:39.080,-6.755,-43.47,-1.19,0.098332,0.08003199999999999,-1.182668,2
2024-06-14 12:37:39.085,-7.91,-49.245,-1.155,0.110288,0.08125199999999999,-1.1848640000000001,2
2024-06-14 12:37:39.089,-7.734999999999999,-52.78,-0.8400000000000001,0.11516799999999999,0.07198,-1.173152,2
2024-06-14 12:37:39.094,-9.975,-59.5,-0.735,0.1098,0.064416,-1.231468,2
2024-06-14 12:37:39.099,-10.605,-61.879999999999995,-0.28,0.11907200000000001,0.056608,-1.18584,2
2024-06-14 12:37:39.106,-12.565000000000001,-62.475,0.21000000000000002,0.12468399999999999,0.072712,-1.2270759999999998,2
2024-06-14 12:37:39.111,-14.175,-64.68,0.28,0.12956399999999998,0.072224,-1.218048,2
2024-06-14 12:37:39.116,-16.380000000000003,-70.35,-0.21,0.12322,0.090036,-1.2939319999999999,2
2024-06-14 12:37:39.120,-17.814999999999998,-74.27000000000001,-0.63,0.12980799999999998,0.08174000000000001,-1.233908,2
2024-06-14 12:37:39.125,-18.83,-80.745,-1.12,0.119316,0.095404,-1.330776,2
2024-06-14 12:37:39.130,-17.36,-85.19,-1.61,0.144204,0.09686800000000001,-1.2468399999999997,2
2024-06-14 12:37:39.135,-18.235,-94.22,-2.52,0.13102799999999998,0.109068,-1.395924,2
2024-06-14 12:37:39.140,-15.575000000000001,-100.66,-3.605,0.12370800000000001,0.147864,-1.335656,2
2024-06-14 12:37:39.145,-13.65,-109.095,-5.215,0.119804,0.159576,-1.404464,2
2024-06-14 12:37:39.149,-11.899999999999999,-118.755,-6.93,0.12614799999999998,0.19519999999999998,-1.407148,2
2024-06-14 12:37:39.154,-11.48,-128.59,-9.274999999999999,0.131272,0.19739600000000002,-1.4095879999999998,2
2024-06-14 12:37:39.159,-9.17,-139.3,-10.99,0.130052,0.154208,-1.508164,2
2024-06-14 12:37:39.164,-8.015,-150.255,-12.075,0.128832,0.127368,-1.54696,2
2024-06-14 12:37:39.169,-0.9450000000000001,-156.17,-12.635000000000002,0.11956,0.119804,-1.628944,2
2024-06-14 12:37:39.174,-0.84,-169.785,-13.895,0.114924,0.155184,-1.693848,2
2024-06-14 12:37:39.178,6.09,-186.2,-15.435,0.102968,0.20422800000000002,-1.7794919999999999,2
2024-06-14 12:37:39.183,8.015,-202.54500000000002,-18.48,0.087108,0.280356,-1.820728,2
2024-06-14 12:37:39.188,13.370000000000001,-220.36,-22.12,0.084668,0.2928,-1.893196,2
2024-06-14 12:37:39.193,19.11,-238.91,-25.865000000000002,0.091988,0.2928,-1.943216,2
2024-06-14 12:37:39.198,24.255000000000003,-259.035,-29.12,0.08027599999999999,0.24888,-2.088396,2
2024-06-14 12:37:39.202,29.855,-281.505,-31.64,0.070272,0.236192,-2.224304,2
2024-06-14 12:37:39.207,32.305,-305.13,-34.335,0.061731999999999995,0.23692400000000002,-2.428532,2
2024-06-14 12:37:39.212,37.135,-330.26,-36.855000000000004,0.035624,0.267424,-2.588596,2
2024-06-14 12:37:39.217,40.25,-357.175,-39.795,0.036844,0.369172,-2.745,2
2024-06-14 12:37:39.222,51.065,-383.39,-43.33,0.067832,0.43822399999999995,-2.8728559999999996,2
2024-06-14 12:37:39.227,59.71,-405.82500000000005,-47.145,0.053436,0.609512,-2.9980279999999997,2
2024-06-14 12:37:39.231,58.065,-426.055,-53.725,0.08295999999999999,0.859856,-3.133692,2
2024-06-14 12:37:39.236,53.095,-442.4,-63.315,0.130784,0.7500560000000001,-3.1883479999999995,3
2024-06-14 12:37:39.241,53.724999999999994,-457.8,-67.13,0.09784399999999999,0.5392399999999999,-3.255692,3
2024-06-14 12:37:39.246,46.515,-472.99,-68.985,0.06246399999999999,0.4941,-3.264964,3
2024-06-14 12:37:39.251,32.83,-488.705,-69.72,0.05978,0.447252,-3.28546,3
2024-06-14 12:37:39.256,17.22,-496.82500000000005,-70.035,0.06344,0.376004,-3.290096,3
2024-06-14 12:37:39.260,10.045,-504.14,-69.195,0.026351999999999997,0.18178,-3.2193359999999998,3
2024-06-14 12:37:39.265,7.0,-506.065,-65.72999999999999,-0.038064,0.042212,-3.097336,3
2024-06-14 12:37:39.270,0.84,-505.82,-63.629999999999995,-0.11077599999999999,-0.07100399999999998,-3.357196,3
2024-06-14 12:37:39.275,-0.98,-507.78,-59.114999999999995,-0.31842,-0.12151200000000001,-3.3667119999999997,3
2024-06-14 12:37:39.280,4.865,-503.3,-54.46,-0.6092679999999999,0.013175999999999998,-3.062444,3
2024-06-14 12:37:39.285,14.594999999999999,-492.03,-52.71,-0.96868,0.137372,-2.658136,3
2024-06-14 12:37:39.289,27.3,-471.65999999999997,-56.875,-1.2634319999999999,0.308416,-2.13744,3
2024-06-14 12:37:39.294,7.84,-453.28499999999997,-56.665,-1.52744,0.348188,-1.78242,3
2024-06-14 12:37:39.299,-8.295,-434.49,-62.754999999999995,-1.6601759999999999,0.3843,-1.25904,3
2024-06-14 12:37:39.304,-15.61,-415.83500000000004,-73.08,-1.8727,0.45749999999999996,-0.951112,3
2024-06-14 12:37:39.309,-25.165,-396.235,-89.95,-1.6540759999999999,0.630252,-0.46238,3
2024-06-14 12:37:39.314,-34.685,-387.345,-100.66,-0.8996279999999999,0.877912,-0.156892,3
2024-06-14 12:37:39.318,-53.900000000000006,-316.54,-101.115,-0.917684,0.560956,-1.136064,3
2024-06-14 12:37:39.323,-87.28999999999999,-221.935,-90.30000000000001,-1.297104,0.346236,-1.582828,3
2024-06-14 12:37:39.328,-109.55000000000001,-132.51,-71.505,-1.593808,0.063928,-1.217316,3
2024-06-14 12:37:39.333,-100.1,-43.575,-43.505,-1.681892,-0.19983599999999999,-0.704428,3
2024-06-14 12:37:39.338,-58.485,41.3,-9.834999999999999,-1.5118239999999998,-0.392108,-0.46189199999999997,3
2024-06-14 12:37:39.342,-6.51,99.4,23.205,-1.306864,-0.47677600000000003,-0.776164,3
2024-06-14 12:37:39.347,43.96,137.26999999999998,51.205,-1.096292,-0.373564,-0.8723000000000001,3
2024-06-14 12:37:39.352,87.28999999999999,158.69,71.08500000000001,-0.9957640000000001,-0.15982,-0.7517640000000001,3
2024-06-14 12:37:39.357,114.24000000000001,169.715,82.25,-1.00284,-0.017812000000000005,-0.615368,3
2024-06-14 12:37:39.362,123.69,176.82,86.44999999999999,-0.970876,0.192272,-0.517524,3
2024-06-14 12:37:39.367,115.28999999999999,181.755,85.225,-0.904752,0.377224,-0.47946,3
2024-06-14 12:37:39.371,92.33,186.375,79.625,-0.8686400000000001,0.513132,-0.42114399999999996,3
2024-06-14 12:37:39.376,60.059999999999995,192.29,70.665,-0.83448,0.59414,-0.352336,3
2024-06-14 12:37:39.381,26.740000000000002,199.92000000000002,59.64,-0.785436,0.607316,-0.317932,3
2024-06-14 12:37:39.386,-2.5199999999999996,210.665,48.019999999999996,-0.742004,0.551196,-0.321592,3
2024-06-14 12:37:39.391,-26.564999999999998,213.36,36.715,-0.696132,0.440176,-0.33793999999999996,3
2024-06-14 12:37:39.396,-40.845,218.82,26.46,-0.65636,0.321592,-0.335744,4
2024-06-14 12:37:39.400,-44.205,224.42000000000002,17.85,-0.617808,0.204472,-0.3416,4
2024-06-14 12:37:39.405,-40.46,229.565,11.165,-0.5873079999999999,0.098332,-0.381128,4
2024-06-14 12:37:39.410,-32.41,233.59,6.404999999999999,-0.5692520000000001,0.02928,-0.40748,4
2024-06-14 12:37:39.415,-22.995,238.49,2.87,-0.544852,0.0012200000000000002,-0.44700799999999996,4
2024-06-14 12:37:39.420,-14.98,244.055,0.28,-0.526796,-0.005856,-0.48043600000000003,4
2024-06-14 12:37:39.425,-9.275,250.81,-1.855,-0.515816,0.011224,-0.518256,4
2024-06-14 12:37:39.429,-7.98,258.615,-3.8150000000000004,-0.506544,0.024643999999999996,-0.554124,4
2024-06-14 12:37:39.434,-8.89,267.12,-5.32,-0.494344,0.040260000000000004,-0.574864,4
2024-06-14 12:37:39.439,-12.565000000000001,275.83500000000004,-6.23,-0.483608,0.048068,-0.624884,4
2024-06-14 12:37:39.444,-16.869999999999997,284.025,-6.79,-0.463356,0.041968000000000005,-0.666364,4
2024-06-14 12:37:39.449,-21.56,291.44500000000005,-6.615,-0.438712,0.025132,-0.7110159999999999,4
2024-06-14 12:37:39.454,-25.025,297.325,-5.74,-0.419192,0.007076000000000001,-0.7512759999999999,4
2024-06-14 12:37:39.458,-27.125,302.4,-4.234999999999999,-0.396012,-0.00976,-0.790804,4
2024-06-14 12:37:39.463,-27.65,306.145,-2.17,-0.37502800000000003,-0.024888,-0.8325279999999999,4
2024-06-14 12:37:39.468,-27.335,309.19,0.21,-0.352824,-0.028304,-0.874984,4
2024-06-14 12:37:39.473,-27.195,311.43,2.695,-0.32696,-0.020984000000000003,-0.9250039999999999,4
2024-06-14 12:37:39.478,-27.72,313.6,5.145,-0.305244,-0.011224,-0.9842960000000001,4
2024-06-14 12:37:39.483,-29.295,315.66499999999996,7.49,-0.284748,0.0034159999999999998,-1.0372439999999998,4
2024-06-14 12:37:39.487,-31.71,318.395,10.08,-0.27571999999999997,0.01464,-1.087264,4
2024-06-14 12:37:39.492,-34.230000000000004,321.405,12.739999999999998,-0.261568,0.020252,-1.1507040000000002,4
2024-06-14 12:37:39.497,-36.4,324.31,15.68,-0.24448799999999998,0.021716,-1.211948,4
2024-06-14 12:37:39.502,-37.555,326.93499999999995,18.935,-0.224236,0.022448000000000003,-1.279536,4
2024-06-14 12:37:39.507,-37.345,328.65,22.47,-0.203252,0.025864,-1.360544,4
2024-06-14 12:37:39.511,-36.435,329.45500000000004,26.145,-0.18666,0.043188000000000004,-1.45058,4
2024-06-14 12:37:39.516,-35.385000000000005,329.35,30.03,-0.165432,0.062952,-1.541836,4
2024-06-14 12:37:39.521,-34.79,328.86,34.58,-0.146644,0.09125599999999999,-1.62016,4
2024-06-14 12:37:39.526,-35.035,328.405,39.795,-0.127612,0.12346399999999999,-1.693848,4
2024-06-14 12:37:39.531,-37.31,327.88,45.325,-0.090768,0.15176800000000001,-1.7812,4
2024-06-14 12:37:39.536,-41.510000000000005,326.79499999999996,50.68,-0.047335999999999996,0.17299599999999998,-1.877824,4
2024-06-14 12:37:39.540,-46.375,325.115,56.105000000000004,0.012444,0.191296,-1.9803039999999998,4
2024-06-14 12:37:39.545,-50.959999999999994,322.42,61.565,0.07076,0.199592,-2.0803439999999997,4
2024-06-14 12:37:39.550,-53.900000000000006,319.375,67.86500000000001,0.134932,0.20544800000000002,-2.185996,4
2024-06-14 12:37:39.555,-56.455,315.84000000000003,75.25,0.227408,0.192516,-2.275544,4
2024-06-14 12:37:39.560,-56.175,312.20000000000005,83.89500000000001,0.3355,0.189344,-2.360944,4
2024-06-14 12:37:39.565,-52.325,309.505,94.185,0.487268,0.203984,-2.418284,4
2024-06-14 12:37:39.569,-43.54,308.875,105.84,0.643184,0.20788800000000002,-2.445612,4
2024-06-14 12:37:39.574,-39.165,308.03499999999997,117.03999999999999,0.764208,0.216184,-2.583716,4
2024-06-14 12:37:39.579,-39.34,308.735,126.175,0.8988959999999999,0.25742,-2.718892,4
2024-06-14 12:37:39.584,-39.235,311.08,133.14,1.0618879999999997,0.31964000000000004,-2.84626,4
2024-06-14 12:37:39.589,-36.19,314.58000000000004,137.72500000000002,1.230736,0.38893599999999995,-2.9565479999999997,4
2024-06-14 12:37:39.594,-32.375,318.885,138.74,1.367376,0.449204,-3.077816,4
2024-06-14 12:37:39.598,-27.965,325.42999999999995,142.10000000000002,1.491328,0.574376,-3.1290560000000003,4
2024-06-14 12:37:39.603,-25.200000000000003,332.885,137.41000000000003,1.6653,0.538508,-3.1266160000000003,4
2024-06-14 12:37:39.608,-23.03,340.375,129.78,1.824144,0.485804,-3.1073399999999998,4
2024-06-14 12:37:39.613,-14.84,347.69,119.35,1.966396,0.500444,-3.0761079999999996,4
2024-06-14 12:37:39.618,-2.66,352.83500000000004,106.53999999999999,2.036912,0.5958479999999999,-3.014132,4
2024-06-14 12:37:39.623,12.145,355.32,97.405,2.03252,0.6348879999999999,-2.844308,4
2024-06-14 12:37:39.627,27.685000000000002,352.275,87.92,1.887096,0.665388,-2.6444719999999995,4
2024-06-14 12:37:39.632,34.125,353.885,82.11000000000001,2.027152,0.75274,-2.478796,4
2024-06-14 12:37:39.637,6.6499999999999995,349.79,68.46000000000001,2.4278,0.38283599999999995,-2.30946,4
2024-06-14 12:37:39.642,-17.745,347.79499999999996,50.61,2.520764,0.591944,-2.0583839999999998,4
2024-06-14 12:37:39.647,-31.08,345.87,36.96,2.7362159999999998,0.610732,-1.7624119999999999,4
2024-06-14 12:37:39.653,-30.240000000000002,340.13,21.455,2.9570360000000004,0.657092,-1.521096,4
2024-06-14 12:37:39.657,-20.335,331.73,2.065,3.2049399999999997,0.693692,-1.299544,4
2024-06-14 12:37:39.662,-8.959999999999999,319.76,-20.545,3.481636,0.6690480000000001,-1.098732,4
2024-06-14 12:37:39.667,-5.390000000000001,304.08,-44.765,3.795908,0.626836,-0.92476,4
2024-06-14 12:37:39.672,-18.165,283.85,-69.405,4.068212,0.5394840000000001,-0.867664,4
2024-06-14 12:37:39.677,-46.445,258.15999999999997,-92.96000000000001,4.2822,0.400892,-0.85156,4
2024-06-14 12:37:39.681,-76.685,224.42000000000002,-114.16999999999999,4.388828,0.246928,-0.8483879999999999,4
2024-06-14 12:37:39.686,-95.06,181.3,-133.7,4.342224,0.084668,-0.844728,4
2024-06-14 12:37:39.691,-95.725,129.22,-151.13,4.162151999999999,-0.060024,-0.824964,4
2024-06-14 12:37:39.696,-79.83500000000001,71.08500000000001,-165.82999999999998,3.8859439999999994,-0.162748,-0.798612,4
2024-06-14 12:37:39.701,-51.03,-5.985000000000001,-176.54,3.5370239999999997,-0.21862399999999999,-0.7893399999999999,4
2024-06-14 12:37:39.706,-19.39,-47.425,-183.47,3.189324,-0.240096,-0.819108,4
2024-06-14 12:37:39.710,5.529999999999999,-99.295,-184.975,2.857972,-0.18446400000000002,-0.895724,4
2024-06-14 12:37:39.715,23.03,-136.04500000000002,-182.035,2.503928,-0.10467599999999999,-1.0411479999999997,0
2024-06-14 12:37:39.720,13.895000000000001,-335.02,-145.81,2.3711919999999997,-3.6612199999999997,-8.012716,0
