time,gyroscope_x,gyroscope_y,gyroscope_z,accelerometer_x,accelerometer_y,accelerometer_z,phase
2024-06-14 10:09:14.057,144.27,-278.53,30.52,0.6895439999999999,3.6282799999999997,-11.442624,1
2024-06-14 10:09:14.062,-51.45,-194.88,4.69,0.35721600000000003,-0.30256,5.086912,1
2024-06-14 10:09:14.067,79.87,-341.04,-0.49,-2.690832,1.038952,0.163968,1
2024-06-14 10:09:14.072,201.32,-314.16,8.4,-0.438224,0.16738399999999998,-1.1575360000000001,1
2024-06-14 10:09:14.077,246.68,-334.46,1.68,-0.58072,-0.19519999999999998,-1.577216,1
2024-06-14 10:09:14.082,225.61,-370.44,8.82,0.28889600000000004,0.106872,-2.039352,1
2024-06-14 10:09:14.086,192.22,-380.24,34.37,0.30012,-0.0034159999999999998,-1.9466320000000001,1
2024-06-14 10:09:14.091,119.49,-363.65,62.72,0.305,-0.079056,-1.9349199999999998,1
2024-06-14 10:09:14.096,62.58,-324.31,87.36,0.274744,-0.059048,-1.937848,1
2024-06-14 10:09:14.101,3.78,-275.38,102.41,0.401136,-0.15616,-2.0183679999999997,1
2024-06-14 10:09:14.106,-14.7,-233.87,107.59,0.5377759999999999,-0.376736,-2.206248,1
2024-06-14 10:09:14.111,-19.04,-211.33,93.38,0.401624,-0.8164239999999999,-2.199904,2
2024-06-14 10:09:14.116,-14.42,-199.01,61.74,0.14103200000000002,-0.9472079999999999,-2.2057599999999997,2
2024-06-14 10:09:14.120,-10.78,-185.64,23.31,0.029768,-0.8681519999999999,-1.811456,2
2024-06-14 10:09:14.125,-10.01,-164.71,-7.0,0.182024,-0.550952,-1.8646479999999999,2
2024-06-14 10:09:14.130,-16.45,-141.05,-21.35,0.176656,-0.21862399999999999,-1.62504,2
2024-06-14 10:09:14.135,-24.22,-120.19,-18.62,0.11712,0.21228,-1.5933199999999998,2
2024-06-14 10:09:14.140,-25.83,-97.23,-2.03,0.02196,0.332816,-1.472296,2
2024-06-14 10:09:14.145,-31.01,-75.81,17.08,0.002928,0.249368,-1.384456,2
2024-06-14 10:09:14.149,-29.19,-63.49,30.31,0.000488,0.084424,-1.315648,2
2024-06-14 10:09:14.154,-23.52,-51.1,32.13,0.016592,-0.063928,-1.207312,2
2024-06-14 10:09:14.159,-17.29,-42.07,24.01,0.02684,-0.169336,-1.1468,2
2024-06-14 10:09:14.164,-13.51,-33.11,12.39,0.041968,-0.14932800000000002,-1.149728,2
2024-06-14 10:09:14.169,-10.36,-26.81,5.11,0.0068319999999999995,-0.071248,-1.11996,2
2024-06-14 10:09:14.174,-7.77,-21.42,3.64,-0.001464,0.008783999999999998,-1.133624,2
2024-06-14 10:09:14.179,-3.99,-0.0,4.76,0.374784,-0.007808,-1.402024,2
2024-06-14 10:09:14.183,1.89,10.5,7.42,0.091256,0.135176,-1.188768,2
2024-06-14 10:09:14.188,14.77,10.99,2.73,0.112728,0.024399999999999998,-1.283928,2
2024-06-14 10:09:14.193,18.34,5.95,0.14,-0.017567999999999997,-0.121512,-1.170224,2
2024-06-14 10:09:14.198,12.6,3.15,-1.33,-0.110288,-0.088328,-1.055056,2
2024-06-14 10:09:14.203,10.71,3.29,-2.24,-0.055632,-0.020007999999999998,-1.06628,2
2024-06-14 10:09:14.208,12.67,6.3,-2.31,-0.01464,-0.0068319999999999995,-1.10776,2
2024-06-14 10:09:14.212,13.23,6.72,-1.4,-0.039528,-0.017079999999999998,-1.098,2
2024-06-14 10:09:14.217,12.95,6.3,-0.91,-0.07027199999999999,-0.039528,-1.094584,2
2024-06-14 10:09:14.222,12.11,5.04,-1.68,-0.071248,-0.04392,-1.0931199999999999,2
2024-06-14 10:09:14.227,11.2,3.85,-2.24,-0.061488,-0.037088,-1.098976,2
2024-06-14 10:09:14.232,10.43,3.01,-1.82,-0.057095999999999994,-0.031232,-1.103856,2
2024-06-14 10:09:14.237,10.43,1.89,-1.61,-0.061975999999999996,-0.033671999999999994,-1.108736,2
2024-06-14 10:09:14.242,10.22,0.63,-1.89,-0.0732,-0.038552,-1.1082480000000001,2
2024-06-14 10:09:14.246,9.59,-1.05,-2.1,-0.076616,-0.044408,-1.0970239999999998,2
2024-06-14 10:09:14.251,8.82,-2.73,-2.24,-0.07173600000000001,-0.044408,-1.094096,2
2024-06-14 10:09:14.256,8.05,-4.34,-2.17,-0.07076,-0.044896,-1.096048,2
2024-06-14 10:09:14.261,7.21,-6.09,-2.24,-0.06734399999999999,-0.047824,-1.094096,2
2024-06-14 10:09:14.266,6.51,-7.98,-2.45,-0.07076,-0.048312,-1.091656,2
2024-06-14 10:09:14.271,5.67,-10.71,-2.45,-0.06831999999999999,-0.045384,-1.086776,2
2024-06-14 10:09:14.275,4.76,-14.0,-2.52,-0.06588,-0.047335999999999996,-1.081896,2
2024-06-14 10:09:14.280,3.71,-17.08,-2.52,-0.07222400000000001,-0.05124,-1.077992,2
2024-06-14 10:09:14.285,2.73,-19.74,-2.73,-0.076128,-0.055144,-1.074088,2
2024-06-14 10:09:14.290,1.96,-21.49,-2.66,-0.07173600000000001,-0.049288,-1.072136,2
2024-06-14 10:09:14.295,1.47,-21.98,-2.59,-0.06978399999999998,-0.048799999999999996,-1.0711600000000001,2
2024-06-14 10:09:14.300,1.05,-21.63,-2.52,-0.066856,-0.051728,-1.081896,2
2024-06-14 10:09:14.305,0.91,-20.93,-2.31,-0.061975999999999996,-0.046848,-1.08092,2
2024-06-14 10:09:14.309,0.84,-20.72,-2.31,-0.064416,-0.04636,-1.086288,2
2024-06-14 10:09:14.314,1.05,-21.28,-2.03,-0.059536,-0.035624,-1.0775039999999998,2
2024-06-14 10:09:14.319,1.82,-21.84,-2.03,-0.053192,-0.035135999999999994,-1.077016,2
2024-06-14 10:09:14.324,2.52,-22.61,-1.96,-0.047335999999999996,-0.035135999999999994,-1.073112,2
2024-06-14 10:09:14.329,3.57,-22.19,-2.1,-0.047335999999999996,-0.034648,-1.072136,2
2024-06-14 10:09:14.334,4.27,-22.47,-2.17,-0.043432000000000005,-0.037576,-1.0711600000000001,2
2024-06-14 10:09:14.338,5.25,-22.26,-2.1,-0.042455999999999994,-0.032208,-1.068232,2
2024-06-14 10:09:14.343,6.02,-22.4,-1.96,-0.043432000000000005,-0.0366,-1.070184,2
2024-06-14 10:09:14.348,6.72,-22.4,-2.1,-0.05124,-0.038552,-1.072624,2
2024-06-14 10:09:14.353,7.14,-22.75,-2.1,-0.03904,-0.038552,-1.068232,2
2024-06-14 10:09:14.358,7.35,-22.19,-2.1,-0.033184,-0.038064,-1.068232,2
2024-06-14 10:09:14.363,7.35,-22.19,-2.17,-0.025376,-0.044896,-1.069696,2
2024-06-14 10:09:14.368,6.44,-23.94,-2.1,-0.026352,-0.04636,-1.073112,2
2024-06-14 10:09:14.372,6.16,-23.94,-2.24,-0.023424,-0.055144,-1.0755519999999998,2
2024-06-14 10:09:14.377,5.18,-24.29,-2.31,-0.025376,-0.055632,-1.073112,2
2024-06-14 10:09:14.382,4.06,-24.5,-2.24,-0.030256,-0.056608,-1.068232,2
2024-06-14 10:09:14.387,2.73,-27.37,-2.17,-0.020984,-0.051728,-1.058472,2
2024-06-14 10:09:14.392,2.73,-27.37,-2.17,-0.005856,-0.049288,-1.057008,2
2024-06-14 10:09:14.397,2.8,-30.03,-2.52,-0.00488,-0.05124,-1.074088,2
2024-06-14 10:09:14.401,0.07,-27.86,-2.45,-0.026352,-0.04636,-1.083848,2
2024-06-14 10:09:14.406,2.94,-33.53,-2.66,-0.018056000000000003,-0.054655999999999996,-1.0857999999999999,2
2024-06-14 10:09:14.411,0.0,-30.87,-3.08,-0.018056000000000003,-0.050263999999999996,-1.080432,2
2024-06-14 10:09:14.416,2.45,-29.68,-2.94,-0.011224,-0.057583999999999996,-1.0711600000000001,2
2024-06-14 10:09:14.421,0.7,-23.87,-3.15,0.00244,-0.047824,-1.0614,2
2024-06-14 10:09:14.426,0.98,-28.98,-2.45,-0.012688,-0.045872,-1.079456,2
2024-06-14 10:09:14.431,-0.42,-28.77,-2.87,-0.005856,-0.060024,-1.079944,2
2024-06-14 10:09:14.435,-0.28,-29.12,-3.15,-0.0068319999999999995,-0.058072,-1.0872639999999998,2
2024-06-14 10:09:14.440,0.35,-30.8,-2.87,-0.0068319999999999995,-0.055632,-1.0887280000000001,2
2024-06-14 10:09:14.445,-9.94,-16.45,-3.64,0.000488,-0.047335999999999996,-1.0760399999999999,2
2024-06-14 10:09:14.450,-1.75,-29.4,-2.52,0.000488,-0.049775999999999994,-1.096048,2
2024-06-14 10:09:14.455,-2.45,-31.08,-1.89,0.0,-0.044896,-1.102392,2
2024-06-14 10:09:14.460,-0.14,-30.45,-1.96,0.001464,-0.044896,-1.103368,2
2024-06-14 10:09:14.464,-0.07,-31.15,-2.59,0.013663999999999999,-0.038552,-1.093608,2
2024-06-14 10:09:14.469,-0.63,-33.18,-2.87,0.013176,-0.043432000000000005,-1.0955599999999999,2
2024-06-14 10:09:14.474,-0.28,-33.6,-2.31,0.00976,-0.039528,-1.102392,2
2024-06-14 10:09:14.479,-0.84,-35.56,-2.45,0.00976,-0.041968,-1.10776,2
2024-06-14 10:09:14.484,-0.98,-37.73,-2.94,0.0068319999999999995,-0.028304,-1.1165439999999998,2
2024-06-14 10:09:14.489,-1.75,-41.72,-3.36,0.015616,-0.024399999999999998,-1.111664,2
2024-06-14 10:09:14.494,-1.68,-43.4,-3.5,0.024399999999999998,-0.002928,-1.110688,2
2024-06-14 10:09:14.498,-1.26,-43.19,-4.13,0.034648,-0.015128,-1.106296,2
2024-06-14 10:09:14.503,-1.47,-42.98,-4.83,0.036112000000000005,-0.012688,-1.103368,2
2024-06-14 10:09:14.508,-3.15,-43.4,-5.6,0.045872,-0.02928,-1.100928,2
2024-06-14 10:09:14.513,-1.82,-44.52,-5.25,0.046848,-0.037576,-1.109712,2
2024-06-14 10:09:14.518,-0.56,-44.87,-5.39,0.037576,0.06588,-1.105808,2
2024-06-14 10:09:14.523,-7.56,-51.31,-9.73,0.030744,0.190808,-1.16144,2
2024-06-14 10:09:14.527,-5.46,-58.24,-13.44,0.033671999999999994,0.005368,-1.243424,2
2024-06-14 10:09:14.532,2.03,-64.82,-12.39,0.054655999999999996,0.017567999999999997,-1.2424479999999998,2
2024-06-14 10:09:14.537,13.37,-69.23,-13.37,0.055632,0.074176,-1.189744,2
2024-06-14 10:09:14.542,23.38,-70.14,-14.07,0.063928,-0.0732,-1.318088,2
2024-06-14 10:09:14.547,20.09,-68.53,-11.69,0.06539199999999999,-0.29377600000000004,-1.6333360000000001,2
2024-06-14 10:09:14.552,4.83,-72.73,-8.96,0.069296,-0.105408,-1.353224,2
2024-06-14 10:09:14.557,4.9,-74.97,-7.98,0.049288,-0.12932,-1.338096,2
2024-06-14 10:09:14.561,3.99,-75.11,-6.16,0.06344,-0.169336,-1.399096,2
2024-06-14 10:09:14.566,2.66,-81.9,-4.62,0.06734399999999999,-0.081984,-1.371768,2
2024-06-14 10:09:14.571,0.07,-85.05,-5.04,0.064416,-0.040992,-1.331752,2
2024-06-14 10:09:14.576,-1.61,-88.55,-4.62,0.076128,-0.119072,-1.345904,2
2024-06-14 10:09:14.581,-2.73,-94.15,-2.87,0.077104,-0.12980799999999998,-1.37616,3
2024-06-14 10:09:14.586,-7.0,-97.79,-1.61,0.081984,-0.135176,-1.356152,3
2024-06-14 10:09:14.590,-15.89,-102.13,-0.77,0.076616,-0.12834399999999999,-1.392264,3
2024-06-14 10:09:14.595,-20.02,-108.85,0.07,0.083448,-0.09272,-1.44692,3
2024-06-14 10:09:14.600,-18.06,-116.06,0.84,0.081496,-0.06734399999999999,-1.432768,3
2024-06-14 10:09:14.605,-22.12,-122.43,0.63,0.081008,-0.03172,-1.4586320000000002,3
2024-06-14 10:09:14.610,-23.38,-130.9,0.0,0.077104,-0.024399999999999998,-1.5147519999999999,3
2024-06-14 10:09:14.615,-21.07,-139.23,-0.63,0.076616,-0.004391999999999999,-1.49816,3
2024-06-14 10:09:14.625,-26.04,-148.82,-1.96,0.085888,0.025864,-1.536224,3
2024-06-14 10:09:14.629,-24.36,-158.83,-3.57,0.08052,0.050752,-1.5469600000000001,3
2024-06-14 10:09:14.634,-27.44,-167.72,-5.81,0.09467199999999999,0.052704,-1.552328,3
2024-06-14 10:09:14.639,-28.56,-176.54,-7.84,0.09467199999999999,0.033671999999999994,-1.599664,3
2024-06-14 10:09:14.644,-31.08,-187.18,-9.59,0.09759999999999999,0.020496,-1.628456,3
2024-06-14 10:09:14.649,-34.79,-197.54,-11.48,0.08247199999999999,0.037576,-1.650904,3
2024-06-14 10:09:14.653,-40.04,-210.21,-13.37,0.084424,-0.022448,-1.6811599999999998,3
2024-06-14 10:09:14.658,-38.5,-223.09,-13.51,0.090768,-0.09955199999999999,-1.733376,3
2024-06-14 10:09:14.663,-43.05,-235.83,-13.02,0.062952,-0.128832,-1.839272,3
2024-06-14 10:09:14.668,-37.17,-248.71,-11.48,0.054168,-0.1464,-1.891,3
2024-06-14 10:09:14.673,-32.27,-262.99,-10.5,0.00244,-0.125416,-1.957856,3
2024-06-14 10:09:14.678,-19.88,-277.13,-9.8,-0.009272,-0.11175199999999999,-2.0159279999999997,3
2024-06-14 10:09:14.682,-19.95,-292.46,-10.01,-0.031232,0.030744,-1.987624,3
2024-06-14 10:09:14.687,-15.68,-309.05,-11.83,-0.037576,0.18544,-2.014464,3
2024-06-14 10:09:14.692,-21.35,-328.16,-17.15,-0.01952,0.27815999999999996,-1.9339439999999999,3
2024-06-14 10:09:14.697,-26.04,-347.34,-22.96,0.023912,0.19276,-2.069608,3
2024-06-14 10:09:14.702,-23.31,-366.8,-25.55,-0.008296,0.029768,-2.216008,3
2024-06-14 10:09:14.707,-14.14,-384.72,-24.71,0.021472,0.081984,-2.336544,3
2024-06-14 10:09:14.711,-12.32,-403.9,-26.53,0.034648,0.052216,-2.3912,3
2024-06-14 10:09:14.716,-5.95,-418.32,-25.76,0.125416,-0.08491199999999999,-2.6034800000000002,3
2024-06-14 10:09:14.721,6.02,-435.47,-24.01,0.11419199999999999,-0.254248,-2.7069360000000002,3
2024-06-14 10:09:14.726,16.73,-449.26,-17.22,0.206912,-0.30012,-2.810392,3
2024-06-14 10:09:14.731,23.45,-460.67,-9.94,0.147376,-0.165432,-2.9919279999999997,3
2024-06-14 10:09:14.735,5.32,-457.8,-6.65,0.316224,-0.051728,-3.155408,3
2024-06-14 10:09:14.740,15.89,-457.38,-1.54,0.15616,-0.357704,-3.29644,3
2024-06-14 10:09:14.745,15.96,-465.01,6.09,-0.047335999999999996,-0.192272,-2.98412,3
2024-06-14 10:09:14.750,19.6,-469.98,9.94,-0.23716800000000002,-0.13566399999999998,-2.9504479999999997,3
2024-06-14 10:09:14.755,9.87,-472.36,11.97,-0.333304,-0.153232,-3.016816,3
2024-06-14 10:09:14.760,9.8,-476.0,15.89,-0.635864,-0.226432,-3.138816,3
2024-06-14 10:09:14.764,3.01,-479.29,18.48,-0.658312,-0.216184,-3.1295439999999997,3
2024-06-14 10:09:14.769,6.65,-485.52,21.0,-0.935496,-0.257664,-3.100264,3
2024-06-14 10:09:14.774,0.14,-488.04,22.4,-1.356152,-0.110776,-2.724504,3
2024-06-14 10:09:14.779,-4.41,-475.79,19.81,-1.4478959999999998,0.123464,-1.8797760000000001,3
2024-06-14 10:09:14.784,-0.21,-443.52,19.46,-1.5737999999999999,0.023912,-0.891088,4
2024-06-14 10:09:14.789,14.21,-392.56,31.22,-1.4557039999999999,0.6095119999999999,0.11175199999999999,4
2024-06-14 10:09:14.793,32.76,-322.56,56.91,-1.013088,0.11223999999999999,-1.624064,4
2024-06-14 10:09:14.798,13.86,-222.6,58.38,-1.3000319999999999,-0.017567999999999997,-2.351184,4
2024-06-14 10:09:14.803,6.58,-135.94,61.11,-1.529392,-0.126392,-1.799744,4
2024-06-14 10:09:14.808,20.3,-50.33,65.45,-1.661152,0.012199999999999999,-1.165832,4
2024-06-14 10:09:14.813,40.6,20.65,66.22,-1.5001120000000001,0.079544,-1.286856,4
2024-06-14 10:09:14.817,49.21,66.57,63.07,-1.2307359999999998,0.161528,-1.490352,4
2024-06-14 10:09:14.822,43.47,91.63,55.02,-1.0555439999999998,0.277672,-1.44936,4
2024-06-14 10:09:14.827,30.87,103.39,44.38,-0.9862479999999999,0.349408,-1.281,4
2024-06-14 10:09:14.832,15.47,107.45,32.69,-0.946232,0.369416,-1.092144,4
2024-06-14 10:09:14.837,-1.82,109.06,19.74,-0.876936,0.38356799999999996,-0.974536,4
2024-06-14 10:09:14.842,-21.14,110.32,5.25,-0.827648,0.363072,-0.9076799999999999,4
2024-06-14 10:09:14.846,-39.76,112.21,-9.31,-0.784216,0.287432,-0.8349679999999999,4
2024-06-14 10:09:14.851,-54.74,115.64,-21.91,-0.779336,0.183976,-0.77836,4
2024-06-14 10:09:14.856,-64.05,121.87,-32.13,-0.769088,0.066856,-0.7129679999999999,4
2024-06-14 10:09:14.861,-66.22,130.69,-39.55,-0.765672,-0.061975999999999996,-0.661728,4
2024-06-14 10:09:14.866,-62.02,141.47,-44.31,-0.760304,-0.180072,-0.638792,4
2024-06-14 10:09:14.871,-53.06,153.51,-46.55,-0.745176,-0.27620799999999995,-0.627568,4
2024-06-14 10:09:14.875,-39.55,166.25,-46.2,-0.731024,-0.33964799999999995,-0.632448,4
2024-06-14 10:09:14.880,-23.66,178.64,-43.96,-0.706624,-0.37868799999999997,-0.640744,4
2024-06-14 10:09:14.885,-6.58,190.4,-40.74,-0.687592,-0.389912,-0.655872,4
2024-06-14 10:09:14.890,9.31,201.95,-37.24,-0.672952,-0.364048,-0.681736,4
2024-06-14 10:09:14.895,22.75,213.01,-34.23,-0.6500159999999999,-0.32012799999999997,-0.69784,4
2024-06-14 10:09:14.899,32.62,224.28,-32.2,-0.637816,-0.265472,-0.734928,4
2024-06-14 10:09:14.904,37.1,235.62,-31.43,-0.62464,-0.186904,-0.764208,4
2024-06-14 10:09:14.909,37.73,247.94,-31.92,-0.6143919999999999,-0.125904,-0.7866559999999999,4
2024-06-14 10:09:14.914,35.49,261.1,-33.25,-0.604632,-0.089792,-0.818376,4
2024-06-14 10:09:14.919,31.5,274.54,-35.0,-0.584624,-0.06831999999999999,-0.854,4
2024-06-14 10:09:14.924,26.25,287.56,-36.96,-0.5563199999999999,-0.047335999999999996,-0.899384,4
2024-06-14 10:09:14.928,21.42,299.6,-38.99,-0.526552,-0.044408,-0.93696,4
2024-06-14 10:09:14.933,17.5,309.82,-40.6,-0.487512,-0.049775999999999994,-0.972096,4
2024-06-14 10:09:14.938,14.98,317.87,-41.79,-0.44164,-0.048312,-1.0140639999999999,4
2024-06-14 10:09:14.943,13.44,323.89,-42.7,-0.406016,-0.052704,-1.0589600000000001,4
2024-06-14 10:09:14.948,11.83,327.95,-43.33,-0.367464,-0.055144,-1.091656,4
2024-06-14 10:09:14.953,10.78,331.45,-43.82,-0.336232,-0.056119999999999996,-1.125816,4
2024-06-14 10:09:14.957,10.15,334.11,-44.31,-0.313296,-0.058072,-1.162904,4
2024-06-14 10:09:14.962,9.17,336.7,-44.87,-0.290848,-0.053192,-1.20292,4
2024-06-14 10:09:14.967,8.05,339.22,-45.64,-0.27425599999999994,-0.047824,-1.2526959999999998,4
2024-06-14 10:09:14.972,7.07,341.81,-46.69,-0.253272,-0.042944,-1.293688,4
2024-06-14 10:09:14.977,6.02,344.75,-47.81,-0.237656,-0.037576,-1.352736,4
2024-06-14 10:09:14.981,3.57,347.9,-48.93,-0.23033599999999999,-0.017079999999999998,-1.413248,4
2024-06-14 10:09:14.986,0.07,351.19,-50.47,-0.221552,0.00488,-1.474248,4
2024-06-14 10:09:14.991,-4.27,355.18,-52.08,-0.220088,0.022936,-1.533296,4
2024-06-14 10:09:14.996,-8.82,360.08,-53.9,-0.199592,0.023424,-1.5908799999999998,4
2024-06-14 10:09:15.001,-13.16,365.05,-55.37,-0.18788,0.030256,-1.674328,4
2024-06-14 10:09:15.006,-17.29,369.67,-56.42,-0.16591999999999998,0.027816,-1.75924,4
2024-06-14 10:09:15.010,-20.93,374.01,-56.77,-0.15128,0.030256,-1.831952,4
2024-06-14 10:09:15.015,-23.73,378.07,-56.77,-0.13176,0.025864,-1.911984,4
2024-06-14 10:09:15.020,-26.18,381.85,-56.21,-0.108336,0.023424,-1.99592,4
2024-06-14 10:09:15.025,-29.26,385.91,-55.02,-0.079056,0.029768,-2.089616,4
2024-06-14 10:09:15.030,-32.06,389.27,-53.69,-0.033671999999999994,0.041479999999999996,-2.17648,4
2024-06-14 10:09:15.035,-35.77,392.14,-52.36,0.017079999999999998,0.059536,-2.266272,4
2024-06-14 10:09:15.039,-40.95,393.82,-50.89,0.099064,0.079056,-2.376072,4
2024-06-14 10:09:15.044,-48.09,393.96,-48.93,0.19519999999999998,0.113704,-2.500024,4
2024-06-14 10:09:15.049,-57.96,392.21,-46.55,0.296704,0.1464,-2.63032,4
2024-06-14 10:09:15.054,-69.65,389.55,-42.98,0.406992,0.154696,-2.732312,4
2024-06-14 10:09:15.059,-80.85,385.77,-37.38,0.533384,0.13712799999999997,-2.799656,4
2024-06-14 10:09:15.063,-89.39,380.38,-29.61,0.6597759999999999,0.14005599999999999,-2.833328,4
2024-06-14 10:09:15.068,-96.39,372.68,-21.35,0.784704,0.16348,-2.864072,4
2024-06-14 10:09:15.073,-106.26,362.88,-13.44,0.9213439999999999,0.17812,-2.938248,4
2024-06-14 10:09:15.078,-120.47,351.47,-6.65,1.07848,0.15616,-3.024136,4
2024-06-14 10:09:15.083,-135.87,339.78,0.35,1.182912,0.19276,-3.050976,4
2024-06-14 10:09:15.088,-146.72,331.03,8.4,1.3908,-0.025376,-3.1027039999999997,4
2024-06-14 10:09:15.092,-156.94,327.6,11.13,1.436184,-0.060024,-3.037312,4
2024-06-14 10:09:15.097,-157.36,329.84,18.41,1.519632,-0.17568,-2.983632,4
2024-06-14 10:09:15.102,-147.91,335.79,27.86,1.5845360000000002,-0.23472800000000002,-2.889936,4
2024-06-14 10:09:15.107,-124.88,342.23,49.49,1.8719679999999999,-0.601216,-2.882616,4
2024-06-14 10:09:15.112,-109.69,348.95,47.18,1.90808,-0.36209600000000003,-2.7288959999999998,4
2024-06-14 10:09:15.117,-86.73,351.12,56.56,2.0901039999999997,-0.30109600000000003,-2.6220239999999997,4
2024-06-14 10:09:15.121,-66.36,347.69,63.28,2.2911599999999996,-0.218136,-2.520032,4
2024-06-14 10:09:15.126,-51.1,338.31,66.57,2.5249119999999996,-0.092232,-2.387784,4
2024-06-14 10:09:15.131,-40.53,323.75,66.22,2.7337759999999998,0.024399999999999998,-2.2540720000000003,4
2024-06-14 10:09:15.136,-34.79,304.22,62.51,2.929464,0.16494399999999998,-2.0915679999999996,4
2024-06-14 10:09:15.141,-32.06,281.82,55.65,3.099288,0.306952,-1.947608,4
2024-06-14 10:09:15.145,-32.34,257.67,45.15,3.2842399999999996,0.438712,-1.833416,4
2024-06-14 10:09:15.150,-38.08,232.96,30.59,3.506768,0.589016,-1.755336,4
2024-06-14 10:09:15.155,-56.49,209.65,11.2,3.8088399999999996,0.665144,-1.6713999999999998,4
2024-06-14 10:09:15.160,-86.94,187.32,-10.71,4.166055999999999,0.59048,-1.5835599999999999,4
2024-06-14 10:09:15.165,-118.79,160.86,-30.59,4.505216000000001,0.323544,-1.489376,4
2024-06-14 10:09:15.170,-140.91,127.05,-43.05,4.781912,-0.11223999999999999,-1.42496,4
2024-06-14 10:09:15.174,-145.25,85.19,-44.45,4.8687759999999995,-0.5621759999999999,-1.354688,4
2024-06-14 10:09:15.179,-129.01,40.18,-36.12,4.802408,-1.081896,-1.273192,4
2024-06-14 10:09:15.184,-88.2,-6.93,-18.13,4.5257119999999995,-1.37372,-1.2014559999999999,4
2024-06-14 10:09:15.189,-33.74,-49.14,4.83,4.126528,-1.4332559999999999,-1.1716879999999998,4
2024-06-14 10:09:15.194,21.14,-80.92,28.14,3.6756159999999998,-1.27612,-1.244888,4
2024-06-14 10:09:15.199,63.0,-99.68,48.09,2.961672,-0.44944799999999996,-1.2932000000000001,0
2024-06-14 10:09:15.203,140.49,-469.77,11.41,6.016064,-0.7954399999999999,-7.75188,0
