time,gyroscope_x,gyroscope_y,gyroscope_z,accelerometer_x,accelerometer_y,accelerometer_z,phase
2024-06-14 11:34:21.584,-212.31,-376.285,38.92,1.779492,0.914268,-5.673732,1
2024-06-14 11:34:21.589,-198.485,-241.955,44.625,-1.586732,-0.274012,0.060268,1
2024-06-14 11:34:21.594,-271.705,-267.855,38.57,0.056119999999999975,-0.394548,-1.169248,1
2024-06-14 11:34:21.599,-342.615,-239.29500000000002,17.185,-0.709552,-0.734928,-1.3222359999999997,1
2024-06-14 11:34:21.603,-171.185,-213.5,10.920000000000002,-1.04188,0.46116,-2.0500879999999997,1
2024-06-14 11:34:21.608,-112.175,-213.39499999999998,-13.93,-0.404552,-0.258884,-1.308328,1
2024-06-14 11:34:21.613,-96.53,-251.93,-43.365,-0.243024,-0.38796,-1.1260599999999998,1
2024-06-14 11:34:21.618,-58.345,-275.73,-59.605000000000004,0.09394,-0.16201600000000002,-1.525,1
2024-06-14 11:34:21.623,-40.495,-284.55,-63.7,0.305976,0.16055199999999997,-1.681648,1
2024-06-14 11:34:21.627,-76.405,-275.695,-63.42,0.33794,0.042943999999999996,-2.429996,1
2024-06-14 11:34:21.632,-93.24000000000001,-258.65,-55.19499999999999,0.274012,0.304268,-2.102304,1
2024-06-14 11:34:21.637,-66.92,-208.425,-40.67,0.276208,0.603412,-2.3741199999999996,1
2024-06-14 11:34:21.642,-59.605000000000004,-175.10500000000002,-24.814999999999998,0.16469999999999999,0.388936,-1.9297959999999998,1
2024-06-14 11:34:21.647,-71.155,-141.925,-13.895,0.065636,-0.010003999999999999,-2.1496399999999998,1
2024-06-14 11:34:21.652,-89.215,-90.58,-9.030000000000001,0.184952,0.064904,-1.85074,1
2024-06-14 11:34:21.656,-79.1,-59.849999999999994,-9.17,0.20618,0.041236,-2.0366679999999997,1
2024-06-14 11:34:21.661,-53.2,-22.75,-18.935000000000002,0.103944,-0.050752,-1.4208120000000002,1
2024-06-14 11:34:21.666,-28.875,-20.09,-28.525,0.144204,-0.019276,-1.329068,1
2024-06-14 11:34:21.671,-23.73,-26.145,-31.605000000000004,0.160308,-0.009516,-1.319796,2
2024-06-14 11:34:21.676,-22.295,-28.735,-28.245,0.010492000000000001,0.054411999999999995,-1.203652,2
2024-06-14 11:34:21.680,-21.035,-28.560000000000002,-22.155,-0.059292,0.110288,-1.1284999999999998,2
2024-06-14 11:34:21.685,-17.29,-25.025,-15.190000000000001,-0.033184000000000005,0.141032,-1.127768,2
2024-06-14 11:34:21.690,-11.094999999999999,-17.36,-9.870000000000001,-0.026840000000000003,0.07197999999999999,-1.1092239999999998,2
2024-06-14 11:34:21.695,-6.86,-13.3,-8.26,-0.018056,0.039771999999999995,-1.1150799999999998,2
2024-06-14 11:34:21.700,-5.25,-12.81,-9.030000000000001,0.005612,0.019764,-1.1282560000000001,2
2024-06-14 11:34:21.705,-4.62,-11.445,-9.59,0.0009759999999999994,0.024644,-1.1101999999999999,2
2024-06-14 11:34:21.709,-4.445,-9.73,-8.225,-0.0026839999999999998,0.019763999999999997,-1.0982439999999998,2
2024-06-14 11:34:21.714,-4.375,-6.859999999999999,-6.3,-0.009271999999999999,0.023667999999999998,-1.093852,2
2024-06-14 11:34:21.719,-2.87,-4.305,-5.074999999999999,-0.01342,0.046116000000000004,-1.0984880000000001,2
2024-06-14 11:34:21.724,-0.63,-3.115,-4.9,-0.037088,0.028304000000000003,-1.092632,2
2024-06-14 11:34:21.729,1.75,-3.115,-5.04,-0.054412,0.034648,-1.092388,2
2024-06-14 11:34:21.733,3.395,-3.5,-4.9,-0.061488,0.022448000000000003,-1.101172,2
2024-06-14 11:34:21.738,4.55,-4.795,-4.199999999999999,-0.06222,0.016836,-1.101416,2
2024-06-14 11:34:21.743,5.67,-7.140000000000001,-3.71,-0.06831999999999999,0.023912,-1.0931199999999999,2
2024-06-14 11:34:21.748,7.07,-9.765,-3.5700000000000003,-0.074176,0.021471999999999998,-1.0933639999999998,2
2024-06-14 11:34:21.753,8.434999999999999,-12.215,-3.6399999999999997,-0.08125199999999999,0.014883999999999998,-1.086044,2
2024-06-14 11:34:21.758,9.205,-14.524999999999999,-3.395,-0.07686000000000001,0.013176,-1.079456,2
2024-06-14 11:34:21.762,9.73,-16.555,-3.115,-0.077104,0.012444,-1.075796,2
2024-06-14 11:34:21.767,10.535,-19.355,-2.9050000000000002,-0.075396,0.015372,-1.077504,2
2024-06-14 11:34:21.772,11.235,-22.994999999999997,-2.905,-0.078568,0.011956,-1.075552,2
2024-06-14 11:34:21.777,11.655000000000001,-24.36,-2.835,-0.076128,0.004636,-1.074576,2
2024-06-14 11:34:21.782,11.865,-25.48,-2.625,-0.069784,-0.00244,-1.081896,2
2024-06-14 11:34:21.786,11.795,-26.915,-2.45,-0.05978,-0.0060999999999999995,-1.0809199999999999,2
2024-06-14 11:34:21.791,11.305,-27.439999999999998,-2.3449999999999998,-0.059292,-0.008052,-1.0784799999999999,2
2024-06-14 11:34:21.796,10.71,-29.225,-2.2750000000000004,-0.060268,-0.0046359999999999995,-1.076284,2
2024-06-14 11:34:21.801,10.184999999999999,-30.835,-1.9949999999999999,-0.062464,-0.000488,-1.075552,2
2024-06-14 11:34:21.806,9.73,-32.06,-1.7850000000000001,-0.055144,-0.0036599999999999996,-1.075552,2
2024-06-14 11:34:21.811,9.45,-33.075,-1.645,-0.047092,-0.004148,-1.0750639999999998,2
2024-06-14 11:34:21.815,9.24,-33.355000000000004,-1.54,-0.041968,-0.005124,-1.070672,2
2024-06-14 11:34:21.820,9.59,-32.305,-1.4,-0.0366,-0.0036599999999999996,-1.071648,2
2024-06-14 11:34:21.825,9.940000000000001,-36.015,-1.89,-0.031232000000000003,-0.009272,-1.0531039999999998,2
2024-06-14 11:34:21.830,10.29,-29.855,-0.875,-0.0305,-0.016104,-1.05408,2
2024-06-14 11:34:21.835,8.54,-29.119999999999997,-0.455,-0.025376,-0.020496,-1.0457839999999998,2
2024-06-14 11:34:21.840,8.225,-29.155,-0.245,-0.024399999999999998,-0.019520000000000003,-1.056032,2
2024-06-14 11:34:21.844,7.0,-29.54,0.245,-0.02562,-0.023912000000000003,-1.054812,2
2024-06-14 11:34:21.849,8.19,-27.369999999999997,0.875,-0.025863999999999998,-0.021228,-1.049688,2
2024-06-14 11:34:21.854,7.175,-27.335,0.875,-0.026352,-0.024888,-1.048956,2
2024-06-14 11:34:21.859,5.529999999999999,-26.740000000000002,1.085,-0.021471999999999998,-0.013908,-1.0421239999999998,2
2024-06-14 11:34:21.864,7.21,-23.205,1.26,-0.013663999999999999,-0.010248,-1.0438319999999999,2
2024-06-14 11:34:21.868,4.9350000000000005,-28.21,1.155,-0.013907999999999998,-0.00732,-1.0457839999999998,2
2024-06-14 11:34:21.873,3.92,-28.21,0.98,-0.010735999999999999,-0.005123999999999999,-1.048956,2
2024-06-14 11:34:21.878,3.2199999999999998,-27.195,0.7,-0.010248,-0.002196,-1.0482239999999998,2
2024-06-14 11:34:21.883,2.065,-27.755,0.525,-0.010248,-0.00244,-1.0470039999999998,2
2024-06-14 11:34:21.888,1.82,-27.545,0.385,-0.007808,-0.0053679999999999995,-1.0460279999999997,2
2024-06-14 11:34:21.893,1.155,-27.195,0.315,-0.00024400000000000002,-0.006343999999999999,-1.042612,2
2024-06-14 11:34:21.897,0.35,-26.634999999999998,0.28,0.0017079999999999999,-0.008052,-1.043588,2
2024-06-14 11:34:21.902,0.455,-26.04,0.42,-0.000732,-0.014152,-1.046516,2
2024-06-14 11:34:21.907,-0.28,-25.759999999999998,0.63,0.002684,-0.012931999999999999,-1.051152,2
2024-06-14 11:34:21.912,-0.875,-25.9,0.735,-0.004636,-0.014152,-1.05042,2
2024-06-14 11:34:21.917,-2.0300000000000002,-25.865000000000002,0.9450000000000001,0.006832,-0.019032,-1.048468,2
2024-06-14 11:34:21.921,-3.745,-26.005000000000003,0.98,0.012443999999999998,-0.017324,-1.0531039999999998,2
2024-06-14 11:34:21.926,-5.005,-26.564999999999998,1.12,0.011467999999999999,-0.016836,-1.0462719999999999,2
2024-06-14 11:34:21.931,-5.67,-26.005,1.295,0.015372,-0.008784,-1.0433439999999998,2
2024-06-14 11:34:21.936,-6.265000000000001,-25.83,1.295,0.02074,-0.006344,-1.045296,2
2024-06-14 11:34:21.941,-6.09,-24.990000000000002,1.715,0.015127999999999999,-0.010248,-1.0492,2
2024-06-14 11:34:21.946,-6.195,-24.64,1.82,0.024399999999999998,-0.0019520000000000002,-1.04798,2
2024-06-14 11:34:21.950,-6.475,-24.009999999999998,1.96,0.026108,-0.0068319999999999995,-1.0474919999999999,2
2024-06-14 11:34:21.955,-6.545,-23.485,2.135,0.028791999999999998,-0.01098,-1.0477359999999998,2
2024-06-14 11:34:21.960,-6.86,-22.925,2.31,0.034404,-0.00488,-1.047736,2
2024-06-14 11:34:21.965,-7.105,-23.38,2.3449999999999998,0.033915999999999995,-0.0068319999999999995,-1.05042,2
2024-06-14 11:34:21.970,-7.21,-22.68,2.52,0.030987999999999998,-0.00488,-1.04798,2
2024-06-14 11:34:21.974,-7.385,-23.1,2.5549999999999997,0.031964,-0.004392,-1.053836,2
2024-06-14 11:34:21.979,-7.805,-24.08,2.625,0.031476,-0.0017080000000000003,-1.05652,2
2024-06-14 11:34:21.984,-7.945,-25.375,2.73,0.029768,0.0014639999999999998,-1.05896,2
2024-06-14 11:34:21.988,-9.379999999999999,-27.23,2.45,0.027816,0.007076,-1.081896,2
2024-06-14 11:34:21.993,-11.025,-29.47,1.9949999999999999,0.029036,-0.001464,-1.080676,2
2024-06-14 11:34:21.998,-11.41,-31.57,1.9249999999999998,0.026352,-0.005612,-1.0784799999999999,2
2024-06-14 11:34:22.002,-11.97,-33.04,1.9249999999999998,0.035379999999999995,0.0007320000000000004,-1.0857999999999999,2
2024-06-14 11:34:22.007,-11.9,-34.790000000000006,1.855,0.04392,0.005612,-1.0860439999999998,2
2024-06-14 11:34:22.012,-11.655,-36.855,1.6099999999999999,0.038552,0.008052,-1.096536,3
2024-06-14 11:34:22.017,-11.375,-38.255,1.435,0.046604,0.012444,-1.086776,3
2024-06-14 11:34:22.022,-10.605,-39.69,1.33,0.051727999999999996,0.02318,-1.0875080000000001,3
2024-06-14 11:34:22.027,-9.73,-41.019999999999996,1.19,0.051727999999999996,0.0034160000000000006,-1.1021480000000001,3
2024-06-14 11:34:22.031,-9.100000000000001,-43.26,1.19,0.059292,0.021228,-1.092144,3
2024-06-14 11:34:22.036,-8.469999999999999,-44.275000000000006,1.05,0.069052,0.010248,-1.1021480000000001,3
2024-06-14 11:34:22.041,-6.825,-45.254999999999995,1.4,0.06758800000000001,0.004148,-1.111908,3
2024-06-14 11:34:22.046,-5.145,-45.885,1.715,0.06709999999999999,0.02562,-1.1238640000000002,3
2024-06-14 11:34:22.051,-2.065,-48.335,1.995,0.067588,0.018543999999999998,-1.1346,3
2024-06-14 11:34:22.056,2.03,-51.065,2.45,0.06466,-0.015616,-1.162416,3
2024-06-14 11:34:22.060,11.024999999999999,-54.004999999999995,4.095,0.06588000000000001,0.0021959999999999983,-1.17974,3
2024-06-14 11:34:22.065,11.585,-57.715,3.92,0.07686000000000001,0.027083999999999997,-1.181448,3
2024-06-14 11:34:22.070,9.66,-61.215,3.4299999999999997,0.077348,0.048311999999999994,-1.227564,3
2024-06-14 11:34:22.075,9.17,-64.575,2.73,0.082228,0.044896000000000005,-1.2292720000000001,3
2024-06-14 11:34:22.080,4.62,-69.3,1.225,0.08125199999999999,0.061488,-1.215364,3
2024-06-14 11:34:22.084,4.165,-70.63,0.49,0.083204,-0.0034160000000000006,-1.215608,3
2024-06-14 11:34:22.089,6.965,-72.31,1.085,0.092476,0.027816,-1.2282959999999998,3
2024-06-14 11:34:22.094,7.665000000000001,-76.93,0.49,0.09881999999999999,0.030987999999999998,-1.243912,3
2024-06-14 11:34:22.099,10.219999999999999,-80.99000000000001,0.7,0.10931199999999999,-0.018056,-1.254892,3
2024-06-14 11:34:22.104,12.355,-83.82499999999999,1.12,0.106628,0.025863999999999998,-1.28588,3
2024-06-14 11:34:22.109,11.865,-89.355,0.63,0.11809599999999999,0.022936,-1.336632,3
2024-06-14 11:34:22.113,11.690000000000001,-91.91,0.8049999999999999,0.104432,-0.013175999999999998,-1.360544,3
2024-06-14 11:34:22.118,12.530000000000001,-95.69,0.595,0.11223999999999999,0.045384,-1.322968,3
2024-06-14 11:34:22.123,13.195,-103.215,-0.35000000000000003,0.122488,0.021716,-1.3610319999999998,3
2024-06-14 11:34:22.128,15.61,-108.43,-0.525,0.12078,0.036599999999999994,-1.354688,3
2024-06-14 11:34:22.133,18.025,-114.275,-1.645,0.13541999999999998,0.08369199999999999,-1.413492,3
2024-06-14 11:34:22.138,20.055,-119.105,-2.59,0.12346399999999999,0.061731999999999995,-1.414956,3
2024-06-14 11:34:22.142,19.810000000000002,-122.78,-4.445,0.11321599999999998,0.14883999999999997,-1.4813239999999999,3
2024-06-14 11:34:22.147,19.95,-133.035,-6.37,0.13078399999999998,0.0009759999999999977,-1.4852280000000002,3
2024-06-14 11:34:22.152,25.759999999999998,-139.685,-5.109999999999999,0.136884,-0.03782,-1.478152,3
2024-06-14 11:34:22.157,29.82,-147.66500000000002,-4.48,0.14566800000000002,-0.018543999999999998,-1.4459440000000001,3
2024-06-14 11:34:22.162,33.355000000000004,-158.41000000000003,-3.5700000000000003,0.136884,-0.027572,-1.6252840000000002,3
2024-06-14 11:34:22.167,32.935,-166.95,-2.87,0.12273200000000001,-0.014884,-1.65676,3
2024-06-14 11:34:22.171,31.814999999999998,-180.77499999999998,-2.415,0.121268,-0.034404000000000004,-1.629188,3
2024-06-14 11:34:22.176,32.655,-193.79500000000002,-1.645,0.10247999999999999,-0.037576,-1.6140599999999998,3
2024-06-14 11:34:22.181,31.325000000000003,-207.445,-1.26,0.11565600000000001,-0.012444,-1.5945399999999998,3
2024-06-14 11:34:22.186,34.19499999999999,-219.31,-0.7350000000000001,0.105652,0.017568,-1.763144,3
2024-06-14 11:34:22.191,39.795,-232.365,-0.27999999999999997,0.09174399999999999,0.01952,-1.79096,3
2024-06-14 11:34:22.196,45.255,-250.495,-0.56,0.110044,0.032451999999999995,-1.943216,3
2024-06-14 11:34:22.200,49.945,-255.53500000000003,1.225,0.093208,-0.052947999999999995,-2.0510639999999998,3
2024-06-14 11:34:22.205,45.185,-270.58500000000004,2.38,0.049288,-0.12932,-1.8807519999999998,3
2024-06-14 11:34:22.210,45.64,-290.64,6.02,0.08052,-0.28426000000000007,-1.82146,3
2024-06-14 11:34:22.215,55.755,-310.1,13.335,0.095648,-0.29524,-1.7433800000000002,3
2024-06-14 11:34:22.220,50.085,-327.46,14.175,0.11102000000000001,-0.186416,-2.1476879999999996,3
2024-06-14 11:34:22.224,42.595,-343.70000000000005,16.450000000000003,0.104432,-0.22692,-2.3431319999999998,3
2024-06-14 11:34:22.229,40.11,-362.355,19.915,0.026108000000000006,-0.23058,-2.146468,3
2024-06-14 11:34:22.234,35.84,-383.985,21.979999999999997,-0.02684,-0.16494399999999998,-2.255048,4
2024-06-14 11:34:22.239,29.33,-404.66999999999996,24.99,0.1586,-0.187392,-2.610556,4
2024-06-14 11:34:22.244,29.89,-413.35,23.485,0.149816,-0.14591200000000001,-3.0134,4
2024-06-14 11:34:22.249,39.480000000000004,-437.36,25.9,-0.067588,-0.42114399999999996,-2.570052,4
2024-06-14 11:34:22.253,54.46,-458.32500000000005,33.355000000000004,0.047824,-0.504104,-2.367776,4
2024-06-14 11:34:22.258,67.48,-470.68,39.69,0.13639600000000002,-0.23912,-2.8594359999999996,4
2024-06-14 11:34:22.263,68.14500000000001,-483.595,39.865,0.17519200000000001,-0.049776,-2.950936,4
2024-06-14 11:34:22.268,70.41999999999999,-498.855,39.55,0.18422,-0.128832,-2.856508,4
2024-06-14 11:34:22.273,79.45,-508.62,41.79,0.45774400000000004,-0.267912,-3.09392,4
2024-06-14 11:34:22.278,95.095,-516.11,39.76,0.5143519999999999,-0.36648800000000004,-3.7839519999999998,4
2024-06-14 11:34:22.282,111.09,-518.175,44.87,0.50752,-0.672464,-4.148488,4
2024-06-14 11:34:22.287,118.895,-520.6949999999999,51.065,0.57218,-0.746396,-3.9403559999999995,4
2024-06-14 11:34:22.292,129.43,-515.06,60.2,0.198128,-0.873764,-3.3823280000000002,4
2024-06-14 11:34:22.297,141.365,-493.885,77.035,-0.426268,-0.959652,-2.763056,4
2024-06-14 11:34:22.302,161.10500000000002,-461.37,97.65,-0.93086,-0.897432,-2.379976,4
2024-06-14 11:34:22.307,178.04500000000002,-434.805,118.58,-1.256112,-0.734196,-2.262368,4
2024-06-14 11:34:22.311,176.39999999999998,-413.84000000000003,133.385,-1.275388,-0.582184,-1.85318,4
2024-06-14 11:34:22.316,152.075,-408.135,138.915,-1.314428,-0.502884,-1.631628,4
2024-06-14 11:34:22.321,101.28999999999999,-416.46500000000003,129.64,-0.999668,-0.423828,-1.590636,4
2024-06-14 11:34:22.326,29.925,-468.37,118.195,-0.169092,-0.19519999999999998,-1.145092,4
2024-06-14 11:34:22.331,-32.41,-496.265,103.285,-0.12273200000000001,0.08125199999999999,-2.262612,4
2024-06-14 11:34:22.336,-59.815,-453.53,87.745,-0.728828,-0.10052799999999998,-2.324344,4
2024-06-14 11:34:22.340,-78.19,-393.505,66.64,-1.176568,-0.13054,-1.605032,4
2024-06-14 11:34:22.345,-94.605,-305.095,35.77,-1.701168,-0.19934800000000003,-0.8537560000000001,4
2024-06-14 11:34:22.350,-108.955,-200.025,2.135,-1.918084,-0.292312,-0.19007600000000002,4
2024-06-14 11:34:22.355,-110.6,-95.795,-25.9,-1.786568,-0.40137999999999996,0.011467999999999999,4
2024-06-14 11:34:22.360,-101.185,-3.290000000000001,-46.480000000000004,-1.585268,-0.4636,-0.44164,4
2024-06-14 11:34:22.365,-87.745,73.64,-60.864999999999995,-1.4122720000000002,-0.465796,-0.8173999999999999,4
2024-06-14 11:34:22.369,-81.41,130.795,-71.75,-1.250988,-0.420168,-1.002596,4
2024-06-14 11:34:22.374,-79.24,170.065,-80.745,-1.142164,-0.286456,-0.916708,4
2024-06-14 11:34:22.379,-86.66,197.365,-87.465,-1.0143079999999998,-0.24668400000000001,-0.836676,4
2024-06-14 11:34:22.384,-100.275,211.155,-90.265,-0.968436,-0.247416,-0.818132,4
2024-06-14 11:34:22.389,-109.515,218.365,-88.75999999999999,-0.9135359999999999,-0.25473599999999996,-0.84668,4
2024-06-14 11:34:22.393,-112.315,225.225,-85.015,-0.810324,-0.26571599999999995,-0.7615239999999999,4
2024-06-14 11:34:22.398,-111.72,232.08499999999998,-80.395,-0.762256,-0.29255600000000004,-0.667584,4
2024-06-14 11:34:22.403,-110.775,238.42,-75.39,-0.748348,-0.322324,-0.631472,4
2024-06-14 11:34:22.408,-109.305,245.28,-69.055,-0.709308,-0.33598799999999995,-0.6280560000000001,4
2024-06-14 11:34:22.413,-107.695,251.79000000000002,-61.845,-0.64294,-0.331352,-0.628544,4
2024-06-14 11:34:22.418,-106.47,258.72,-54.144999999999996,-0.5880399999999999,-0.311344,-0.6307400000000001,4
2024-06-14 11:34:22.422,-105.91,265.79,-45.885000000000005,-0.549,-0.305244,-0.622444,4
2024-06-14 11:34:22.427,-106.26,273.07,-37.239999999999995,-0.52094,-0.30353600000000003,-0.613172,4
2024-06-14 11:34:22.432,-107.03,280.77,-28.035,-0.491172,-0.28938400000000003,-0.621224,4
2024-06-14 11:34:22.437,-108.5,288.47,-18.619999999999997,-0.45945199999999997,-0.26205599999999996,-0.648308,4
2024-06-14 11:34:22.442,-109.97,296.59000000000003,-9.135,-0.42334000000000005,-0.23546,-0.68076,4
2024-06-14 11:34:22.447,-111.265,305.305,0.07000000000000006,-0.394548,-0.204716,-0.717848,4
2024-06-14 11:34:22.451,-112.735,313.70500000000004,8.959999999999999,-0.370148,-0.17763199999999998,-0.75884,4
2024-06-14 11:34:22.456,-113.36500000000001,322.0,17.29,-0.34526,-0.158356,-0.796416,4
2024-06-14 11:34:22.461,-113.26,329.90999999999997,24.745,-0.319396,-0.140056,-0.843996,4
2024-06-14 11:34:22.466,-111.755,336.84,31.115,-0.276696,-0.12980799999999998,-0.866932,4
2024-06-14 11:34:22.471,-107.94,342.825,36.33,-0.250588,-0.128344,-0.905484,4
2024-06-14 11:34:22.476,-101.29,347.34000000000003,40.565,-0.22521199999999997,-0.12932,-0.9435479999999999,4
2024-06-14 11:34:22.480,-92.53999999999999,350.455,43.925,-0.209596,-0.144936,-0.964776,4
2024-06-14 11:34:22.485,-82.18,353.85,46.34,-0.18568400000000002,-0.152256,-0.973316,4
2024-06-14 11:34:22.490,-70.91,356.265,47.915,-0.169336,-0.14517999999999998,-1.00528,4
2024-06-14 11:34:22.495,-58.975,357.90999999999997,48.230000000000004,-0.162016,-0.14444800000000002,-1.042368,4
2024-06-14 11:34:22.500,-47.599999999999994,358.015,46.97,-0.135664,-0.139324,-1.0784799999999999,4
2024-06-14 11:34:22.505,-35.945,357.455,44.730000000000004,-0.11175199999999999,-0.11931599999999999,-1.128988,4
2024-06-14 11:34:22.509,-25.585,356.195,41.125,-0.091012,-0.09759999999999999,-1.182912,4
2024-06-14 11:34:22.514,-17.71,353.99,36.4,-0.058072,-0.076372,-1.230492,4
2024-06-14 11:34:22.519,-12.18,351.435,30.485,-0.040504,-0.050508,-1.284172,4
2024-06-14 11:34:22.524,-8.54,348.91499999999996,23.765,-0.020983999999999996,-0.036356,-1.338096,4
2024-06-14 11:34:22.529,-6.72,347.13,16.345,-0.01098,-0.029767999999999996,-1.38104,4
2024-06-14 11:34:22.532,-6.125,345.765,8.82,-0.011224,-0.034159999999999996,-1.43228,4
2024-06-14 11:34:22.536,-5.845,346.01,1.7149999999999999,-0.00244,-0.05124,-1.487912,4
2024-06-14 11:34:22.541,-5.494999999999999,347.375,-4.515000000000001,-0.00024400000000000008,-0.058803999999999995,-1.5508639999999998,4
2024-06-14 11:34:22.546,-5.5649999999999995,349.65,-10.01,0.00048799999999999994,-0.08296,-1.596492,4
2024-06-14 11:34:22.551,-4.55,352.625,-14.14,0.0046359999999999995,-0.127124,-1.658712,4
2024-06-14 11:34:22.556,-0.665,356.23,-16.799999999999997,0.005124,-0.172508,-1.7299600000000002,4
2024-06-14 11:34:22.561,4.654999999999999,360.53499999999997,-18.2,0.011467999999999999,-0.19910399999999998,-1.801208,4
2024-06-14 11:34:22.565,10.675,364.49,-18.62,0.04026,-0.21862399999999999,-1.87392,4
2024-06-14 11:34:22.570,16.310000000000002,368.83,-18.130000000000003,0.049044,-0.22569999999999998,-1.9717639999999999,4
2024-06-14 11:34:22.575,21.105,373.135,-16.835,0.07344400000000001,-0.225212,-2.06302,4
2024-06-14 11:34:22.580,24.675,376.88,-15.05,0.09223200000000001,-0.215208,-2.173308,4
2024-06-14 11:34:22.585,27.825,380.59000000000003,-13.02,0.122,-0.21106000000000003,-2.276764,4
2024-06-14 11:34:22.590,30.03,383.845,-10.955,0.15372,-0.22082,-2.3870519999999997,4
2024-06-14 11:34:22.594,32.2,387.065,-9.45,0.191296,-0.232044,-2.483676,4
2024-06-14 11:34:22.599,35.0,390.25,-8.26,0.23912,-0.23570400000000002,-2.581032,4
2024-06-14 11:34:22.604,37.905,392.98,-7.105,0.291092,-0.244732,-2.701568,4
2024-06-14 11:34:22.609,41.3,395.675,-6.265000000000001,0.356728,-0.26425199999999993,-2.843088,4
2024-06-14 11:34:22.614,45.465,398.23,-5.67,0.45262,-0.276208,-2.954596,4
2024-06-14 11:34:22.619,51.065,400.26,-5.109999999999999,0.567056,-0.27254799999999996,-3.06586,4
2024-06-14 11:34:22.624,57.75,402.28999999999996,-4.375,0.7105279999999999,-0.25839599999999996,-3.1478439999999996,4
2024-06-14 11:34:22.628,65.135,404.03999999999996,-3.29,0.894504,-0.23912,-3.2159199999999997,4
2024-06-14 11:34:22.633,72.8,405.755,-1.645,1.106784,-0.197884,-3.2700879999999994,4
2024-06-14 11:34:22.638,79.13499999999999,406.98,0.7,1.36274,-0.168848,-3.3013199999999996,4
2024-06-14 11:34:22.643,82.88,406.245,4.585,1.6455359999999999,-0.159332,-3.303516,4
2024-06-14 11:34:22.648,85.155,403.13,10.325,1.9463879999999998,-0.147376,-3.264964,4
2024-06-14 11:34:22.653,88.41,396.40999999999997,17.71,2.252608,-0.15860000000000002,-3.175416,4
2024-06-14 11:34:22.657,91.97999999999999,384.685,26.81,2.578592,-0.17104399999999997,-3.070496,4
2024-06-14 11:34:22.662,97.50999999999999,367.99,37.765,2.95972,-0.162748,-2.931172,4
2024-06-14 11:34:22.667,107.87,345.905,50.925,3.3737880000000002,-0.139324,-2.7386559999999998,4
2024-06-14 11:34:22.672,122.71000000000001,319.69000000000005,66.745,3.79786,-0.046848,-2.512956,4
2024-06-14 11:34:22.677,138.565,291.34000000000003,84.315,4.191432,0.085644,-2.246996,4
2024-06-14 11:34:22.682,147.805,262.85,102.55000000000001,4.611112,0.224968,-2.0537479999999997,4
2024-06-14 11:34:22.687,140.175,236.845,128.8,4.987848,0.331596,-1.839272,4
2024-06-14 11:34:22.691,117.42500000000001,209.37,134.925,5.525868,0.470188,-1.64456,4
2024-06-14 11:34:22.696,85.12,182.945,148.64499999999998,5.9719,0.551196,-1.341024,4
2024-06-14 11:34:22.701,58.870000000000005,153.615,159.215,6.293004,0.626348,-1.1385039999999997,4
2024-06-14 11:34:22.706,38.08,115.15,163.8,6.378159999999999,0.651724,-1.1106880000000001,4
2024-06-14 11:34:22.711,-38.815,22.084999999999997,150.64,6.962296,1.372012,-2.971676,4
2024-06-14 11:34:22.716,-169.85500000000002,-151.865,101.67500000000001,7.04672,2.474648,-2.7196239999999996,4
2024-06-14 11:34:22.720,-272.51,-215.11,71.82,5.51806,2.175748,-1.01748,4
2024-06-14 11:34:22.725,-378.945,-286.685,34.72,5.263567999999999,1.4708320000000001,-1.3097919999999998,0
2024-06-14 11:34:22.730,-437.64,-345.485,6.755,2.549312,-0.167628,-1.647244,0
2024-06-14 11:34:22.735,-374.5,-287.21000000000004,-14.84,-0.829356,0.640988,-3.1134399999999998,0
2024-06-14 11:34:22.740,-169.995,-209.44,-44.415,-0.421632,0.033427999999999986,-1.809992,0
2024-06-14 11:34:22.745,-59.675,-223.405,-83.055,-1.131184,-0.208376,-0.34477199999999997,0
2024-06-14 11:34:22.750,-48.195,-271.845,-118.265,-1.06018,-0.148596,-1.33834,0
2024-06-14 11:34:22.754,-21.875,-298.655,-128.31,-0.35014,0.23082400000000003,-1.63114,0
2024-06-14 11:34:22.759,-18.935,-311.5,-117.53,0.22521200000000002,0.5687639999999999,-1.8605,0
2024-06-14 11:34:22.764,-15.645,-310.24,-97.86,0.42480399999999996,0.5424119999999999,-1.882704,0
