time,gyroscope_x,gyroscope_y,gyroscope_z,accelerometer_x,accelerometer_y,accelerometer_z,phase
2024-06-14 08:07:01.049,12.53,-105.35,-18.375,-3.219092,1.069208,-1.334436,1
2024-06-14 08:07:01.054,36.19,-114.45,-12.774999999999999,-2.9585,0.61976,0.6148800000000001,1
2024-06-14 08:07:01.058,142.45,-112.07,-15.190000000000001,-2.69498,0.537532,-0.366244,1
2024-06-14 08:07:01.063,125.16,-120.96000000000001,-16.905,-1.814628,0.782508,-0.24814799999999998,1
2024-06-14 08:07:01.068,158.79500000000002,-172.34,-11.13,-0.5978,0.8478999999999999,-0.7424919999999999,1
2024-06-14 08:07:01.073,150.36,-221.165,4.13,0.04806800000000001,0.704428,-1.261236,1
2024-06-14 08:07:01.078,107.94,-233.51999999999998,31.36,0.38747200000000004,0.363072,-1.406416,1
2024-06-14 08:07:01.083,55.894999999999996,-234.22,62.86,0.456036,0.179828,-1.657248,1
2024-06-14 08:07:01.087,8.645,-217.91000000000003,84.41999999999999,0.329156,0.068076,-1.79218,2
2024-06-14 08:07:01.092,-20.685000000000002,-188.055,88.095,0.184952,-0.21959999999999996,-1.739232,2
2024-06-14 08:07:01.097,-13.055,-167.02,76.02,-0.067344,-0.46896799999999994,-1.613328,2
2024-06-14 08:07:01.102,4.34,-157.29,53.06,-0.23399599999999998,-0.601216,-1.525976,2
2024-06-14 08:07:01.107,15.54,-151.06,27.580000000000002,-0.292068,-0.657824,-1.473516,2
2024-06-14 08:07:01.111,18.2,-145.46,5.109999999999999,-0.217892,-0.633912,-1.4271559999999999,2
2024-06-14 08:07:01.116,14.0,-138.18,-11.934999999999999,-0.12248800000000001,-0.45042399999999994,-1.389336,2
2024-06-14 08:07:01.121,8.085,-130.76,-21.525,-0.068564,-0.232532,-1.3656679999999999,2
2024-06-14 08:07:01.126,1.19,-125.195,-24.115000000000002,-0.088084,-0.0019519999999999989,-1.29198,2
2024-06-14 08:07:01.131,-3.5,-121.975,-20.93,-0.11663199999999999,0.154696,-1.243424,2
2024-06-14 08:07:01.136,-3.5,-115.64,-14.385,-0.191784,0.24570799999999998,-1.226344,2
2024-06-14 08:07:01.140,-1.4,-112.245,-7.140000000000001,-0.15494,0.238144,-1.198772,2
2024-06-14 08:07:01.145,-1.82,-107.975,-2.52,-0.114192,0.17055599999999999,-1.1977959999999999,2
2024-06-14 08:07:01.150,-2.275,-103.88,-0.98,-0.099796,0.055144000000000006,-1.1794959999999999,2
2024-06-14 08:07:01.155,-2.38,-99.435,-1.785,-0.099796,0.002196,-1.181204,2
2024-06-14 08:07:01.160,-2.5549999999999997,-96.35499999999999,-4.585,-0.089792,-0.031964,-1.200968,2
2024-06-14 08:07:01.164,-3.8149999999999995,-89.845,-7.945,-0.0854,-0.011224,-1.209508,2
2024-06-14 08:07:01.169,-1.96,-87.78,-10.64,-0.081984,0.018543999999999998,-1.241716,2
2024-06-14 08:07:01.174,-4.62,-76.58,-11.795,-0.058072,0.072712,-1.247328,2
2024-06-14 08:07:01.179,-3.325,-67.025,-10.64,-0.023424,0.10003999999999999,-1.2768519999999999,2
2024-06-14 08:07:01.184,-3.6399999999999997,-59.64,-8.82,-0.011468,0.11419199999999999,-1.218048,2
2024-06-14 08:07:01.189,-1.855,-50.995000000000005,-6.79,-0.018056,0.121756,-1.362496,2
2024-06-14 08:07:01.193,-0.595,-35.455,-3.395,0.018787999999999996,0.20788800000000002,-1.267824,2
2024-06-14 08:07:01.198,4.305,-29.05,0.07,0.050264,0.178608,-1.260504,2
2024-06-14 08:07:01.203,9.695,-21.84,2.24,0.057828,0.11760799999999999,-1.2670919999999999,2
2024-06-14 08:07:01.208,10.114999999999998,-18.2,3.92,-0.008783999999999997,0.048068,-1.217072,2
2024-06-14 08:07:01.213,11.41,-15.120000000000001,3.8499999999999996,-0.07319999999999999,0.030011999999999997,-1.148996,2
2024-06-14 08:07:01.217,11.795,-12.95,2.9050000000000002,-0.081984,0.024156,-1.1309399999999998,2
2024-06-14 08:07:01.222,13.16,-9.73,1.96,-0.072712,0.036356,-1.115324,2
2024-06-14 08:07:01.227,13.51,-7.630000000000001,2.1,-0.065636,0.037576,-1.1043439999999998,2
2024-06-14 08:07:01.232,13.649999999999999,-8.155,2.8,-0.071492,0.04758,-1.0894599999999999,2
2024-06-14 08:07:01.237,13.195,-9.065000000000001,3.465,-0.071492,0.032696,-1.098244,2
2024-06-14 08:07:01.242,13.3,-7.91,3.15,-0.06856399999999999,0.0183,-1.092388,2
2024-06-14 08:07:01.246,13.055,-8.47,2.52,-0.07564000000000001,0.011224,-1.090192,2
2024-06-14 08:07:01.251,12.635,-7.525,1.7149999999999999,-0.074908,0.011224000000000001,-1.083604,2
2024-06-14 08:07:01.256,11.690000000000001,-7.105,1.015,-0.079788,0.01586,-1.075796,2
2024-06-14 08:07:01.261,11.025,-7.42,0.735,-0.08710799999999999,0.021716,-1.0706719999999998,2
2024-06-14 08:07:01.266,10.115,-8.225,0.28,-0.08295999999999999,0.016348,-1.0665239999999998,2
2024-06-14 08:07:01.270,8.995000000000001,-8.645,-0.14,-0.08417999999999999,0.0068319999999999995,-1.0716480000000002,2
2024-06-14 08:07:01.275,7.91,-9.274999999999999,-0.665,-0.083448,0.011224000000000001,-1.072136,2
2024-06-14 08:07:01.280,6.859999999999999,-9.59,-1.19,-0.08418,0.0046359999999999995,-1.0689640000000002,2
2024-06-14 08:07:01.285,5.46,-10.675,-1.365,-0.081496,0.007808,-1.0628639999999998,2
2024-06-14 08:07:01.290,3.8150000000000004,-12.215,-1.54,-0.08588799999999999,0.012931999999999999,-1.05774,2
2024-06-14 08:07:01.295,2.4850000000000003,-13.370000000000001,-1.68,-0.08393600000000001,0.014884000000000001,-1.054812,2
2024-06-14 08:07:01.299,1.19,-15.504999999999999,-1.855,-0.090036,0.019276,-1.053836,2
2024-06-14 08:07:01.304,0.10500000000000001,-16.975,-1.7850000000000001,-0.097844,0.020496,-1.050176,2
2024-06-14 08:07:01.309,-0.7350000000000001,-18.585,-2.065,-0.094672,0.025376,-1.055788,2
2024-06-14 08:07:01.314,-1.33,-19.495,-2.135,-0.08515600000000001,0.027816,-1.0548119999999999,2
2024-06-14 08:07:01.319,-1.505,-19.845,-2.24,-0.071736,0.026108,-1.05652,2
2024-06-14 08:07:01.324,-1.8900000000000001,-19.845,-2.275,-0.06856399999999999,0.024399999999999998,-1.057496,2
2024-06-14 08:07:01.328,-2.275,-19.355,-2.45,-0.063928,0.025619999999999997,-1.057496,2
2024-06-14 08:07:01.333,-2.38,-18.549999999999997,-2.625,-0.067588,0.026108,-1.0548119999999999,2
2024-06-14 08:07:01.338,-2.205,-18.375,-2.9050000000000002,-0.06417199999999999,0.033671999999999994,-1.0555439999999998,2
2024-06-14 08:07:01.343,-1.7149999999999999,-18.060000000000002,-2.9749999999999996,-0.06612399999999999,0.037576,-1.0553,2
2024-06-14 08:07:01.348,-1.33,-18.41,-3.1500000000000004,-0.06344,0.037576,-1.052372,2
2024-06-14 08:07:01.352,-1.12,-19.075,-3.255,-0.065392,0.033671999999999994,-1.052128,2
2024-06-14 08:07:01.357,-0.91,-20.055,-3.535,-0.070272,0.03538,-1.0553,2
2024-06-14 08:07:01.362,-0.5249999999999999,-21.174999999999997,-3.745,-0.071248,0.036112000000000005,-1.058472,2
2024-06-14 08:07:01.367,0.175,-22.189999999999998,-3.745,-0.071736,0.037820000000000006,-1.0614,2
2024-06-14 08:07:01.372,0.9450000000000001,-23.835,-3.675,-0.06661199999999999,0.038552,-1.0604239999999998,2
2024-06-14 08:07:01.377,1.8199999999999998,-25.375,-3.64,-0.06466,0.040748000000000006,-1.061644,2
2024-06-14 08:07:01.381,2.59,-26.845,-3.465,-0.072224,0.036356,-1.058472,2
2024-06-14 08:07:01.386,3.605,-27.825,-3.29,-0.073932,0.041236,-1.0535919999999999,2
2024-06-14 08:07:01.391,4.9350000000000005,-28.384999999999998,-3.255,-0.06392799999999998,0.041235999999999995,-1.052372,2
2024-06-14 08:07:01.396,6.265000000000001,-28.875,-2.94,-0.051727999999999996,0.040504,-1.055056,2
2024-06-14 08:07:01.401,7.28,-29.12,-2.66,-0.048068,0.033428,-1.0494439999999998,2
2024-06-14 08:07:01.405,7.91,-29.085,-2.3449999999999998,-0.042455999999999994,0.031231999999999996,-1.053836,2
2024-06-14 08:07:01.410,8.469999999999999,-28.595,-2.1,-0.040992,0.031476,-1.0518839999999998,2
2024-06-14 08:07:01.415,8.89,-28.384999999999998,-1.96,-0.029036,0.032451999999999995,-1.0555439999999998,2
2024-06-14 08:07:01.420,9.17,-28.035,-1.9249999999999998,-0.0305,0.029524,-1.051396,2
2024-06-14 08:07:01.425,9.17,-27.475,-2.065,-0.025376000000000003,0.02318,-1.055056,2
2024-06-14 08:07:01.430,9.31,-27.125,-2.065,-0.02928,0.027083999999999997,-1.0570079999999997,2
2024-06-14 08:07:01.434,9.31,-26.634999999999998,-2.0999999999999996,-0.028791999999999998,0.024644,-1.0553,2
2024-06-14 08:07:01.439,9.52,-26.39,-2.205,-0.021228,0.025376,-1.05896,2
2024-06-14 08:07:01.444,9.73,-25.935000000000002,-2.24,-0.018056,0.028304000000000003,-1.0592039999999998,2
2024-06-14 08:07:01.449,9.73,-25.795,-2.45,-0.016836,0.0244,-1.05652,2
2024-06-14 08:07:01.454,9.905,-24.605,-2.45,-0.016348,0.020007999999999998,-1.050176,2
2024-06-14 08:07:01.458,9.73,-24.744999999999997,-2.555,-0.016592000000000003,0.022448,-1.050176,2
2024-06-14 08:07:01.463,9.66,-24.045,-2.625,-0.014395999999999999,0.026596,-1.0492,2
2024-06-14 08:07:01.468,9.59,-23.38,-2.5549999999999997,-0.008784,0.0244,-1.04554,2
2024-06-14 08:07:01.473,9.485,-23.45,-2.73,-0.006344,0.017812,-1.049932,2
2024-06-14 08:07:01.478,8.925,-23.38,-2.52,0.0,0.010492,-1.053592,2
2024-06-14 08:07:01.483,8.295,-23.31,-2.38,-0.005124,0.012688,-1.05286,2
2024-06-14 08:07:01.487,7.91,-23.065,-2.38,-0.0017079999999999999,0.01464,-1.051152,2
2024-06-14 08:07:01.492,7.734999999999999,-23.135,-2.3449999999999998,0.001464,0.012931999999999999,-1.05042,2
2024-06-14 08:07:01.497,7.0,-23.134999999999998,-2.3449999999999998,0.004392,0.015127999999999999,-1.048956,2
2024-06-14 08:07:01.502,6.405,-23.03,-2.4850000000000003,0.010735999999999999,0.010248,-1.054568,2
2024-06-14 08:07:01.507,5.285,-23.134999999999998,-2.52,0.008784,0.008296,-1.052616,2
2024-06-14 08:07:01.511,4.13,-22.435000000000002,-2.5549999999999997,0.011712,0.011224,-1.050176,2
2024-06-14 08:07:01.516,3.5,-21.84,-2.59,0.016592,0.009516,-1.052616,2
2024-06-14 08:07:01.521,2.66,-21.104999999999997,-2.59,0.013908,0.010248,-1.0506639999999998,2
2024-06-14 08:07:01.526,2.0999999999999996,-21.21,-2.73,0.026595999999999998,0.012199999999999999,-1.051152,2
2024-06-14 08:07:01.531,1.505,-20.93,-2.66,0.016348,0.006344,-1.05042,3
2024-06-14 08:07:01.536,0.7,-20.055,-2.7649999999999997,0.025132,0.0031719999999999995,-1.0531039999999998,3
2024-06-14 08:07:01.540,0.034999999999999976,-19.53,-2.73,0.028547999999999997,0.004392,-1.056764,3
2024-06-14 08:07:01.545,-0.525,-18.515,-2.45,0.032451999999999995,0.011467999999999999,-1.0553,3
2024-06-14 08:07:01.550,-1.47,-17.64,-2.625,0.021716,0.014152,-1.0594480000000002,3
2024-06-14 08:07:01.555,-1.505,-18.445,-2.6950000000000003,0.020984000000000003,0.015127999999999999,-1.05774,3
2024-06-14 08:07:01.560,-1.435,-17.395,-2.835,0.022935999999999998,0.0183,-1.059692,3
2024-06-14 08:07:01.564,-1.54,-18.375,-2.835,0.026108,0.014395999999999999,-1.055056,3
2024-06-14 08:07:01.569,-1.75,-17.92,-2.9050000000000002,0.034159999999999996,0.01098,-1.0560319999999999,3
2024-06-14 08:07:01.574,-2.03,-17.395,-3.01,0.033915999999999995,0.009271999999999999,-1.0614,3
2024-06-14 08:07:01.579,-1.96,-17.395,-2.9050000000000002,0.035624,0.010248,-1.0553,3
2024-06-14 08:07:01.584,-2.2750000000000004,-17.745,-2.905,0.02684,0.013176,-1.057496,3
2024-06-14 08:07:01.589,-1.8199999999999998,-17.71,-2.9050000000000002,0.023912,0.023668,-1.059936,3
2024-06-14 08:07:01.593,-1.19,-18.375,-3.2199999999999998,0.019032,0.02684,-1.063596,3
2024-06-14 08:07:01.598,-0.27999999999999997,-18.585,-3.605,0.024644,0.036599999999999994,-1.06628,3
2024-06-14 08:07:01.603,0.56,-19.285,-3.99,0.035868,0.039284,-1.0667680000000002,3
2024-06-14 08:07:01.608,1.12,-19.6,-4.13,0.039772,0.030988,-1.064572,3
2024-06-14 08:07:01.613,1.8199999999999998,-19.355,-4.305,0.039528,0.033184,-1.06262,3
2024-06-14 08:07:01.617,2.205,-19.740000000000002,-4.515000000000001,0.0427,0.02684,-1.05652,3
2024-06-14 08:07:01.622,2.555,-19.740000000000002,-4.62,0.044408,0.022691999999999997,-1.05164,3
2024-06-14 08:07:01.627,3.01,-19.985,-4.62,0.04196799999999999,0.019276,-1.053836,3
2024-06-14 08:07:01.632,3.5,-20.37,-4.445,0.04514,0.012688,-1.062376,3
2024-06-14 08:07:01.637,4.13,-20.93,-4.375,0.045871999999999996,0.01952,-1.058228,3
2024-06-14 08:07:01.642,4.34,-21.525,-4.550000000000001,0.047336,0.017079999999999998,-1.0653039999999998,3
2024-06-14 08:07:01.646,4.585,-22.54,-4.48,0.044896000000000005,0.018299999999999997,-1.070916,3
2024-06-14 08:07:01.651,4.585000000000001,-24.045,-4.62,0.049288,0.022448,-1.072624,3
2024-06-14 08:07:01.656,4.76,-24.815,-4.795,0.048556,0.02074,-1.071404,3
2024-06-14 08:07:01.661,4.41,-26.53,-4.970000000000001,0.050263999999999996,0.016835999999999997,-1.076772,3
2024-06-14 08:07:01.666,4.025,-28.315,-5.075,0.05124,0.01464,-1.0821399999999999,3
2024-06-14 08:07:01.670,3.815,-30.555,-5.005000000000001,0.048311999999999994,0.012199999999999999,-1.0845799999999999,3
2024-06-14 08:07:01.675,3.71,-32.724999999999994,-5.145,0.049532,0.012931999999999999,-1.087996,3
2024-06-14 08:07:01.680,3.955,-35.489999999999995,-5.145,0.054655999999999996,0.005612,-1.0909239999999998,3
2024-06-14 08:07:01.685,4.234999999999999,-38.08,-4.9,0.054412,0.015372,-1.096048,3
2024-06-14 08:07:01.690,3.1500000000000004,-41.755,-4.9350000000000005,0.061,-0.007807999999999999,-1.103368,3
2024-06-14 08:07:01.695,2.38,-45.115,-4.445,0.069296,-0.007808,-1.101416,3
2024-06-14 08:07:01.699,0.98,-48.335,-4.234999999999999,0.071004,0.0061,-1.1053199999999999,3
2024-06-14 08:07:01.704,-1.47,-55.474999999999994,-4.515000000000001,0.07783599999999999,0.0019520000000000002,-1.121912,3
2024-06-14 08:07:01.709,-2.6950000000000003,-54.985,-4.0600000000000005,0.084668,-0.03416,-1.1709559999999999,3
2024-06-14 08:07:01.714,-5.005,-57.715,-3.01,0.082228,-0.007319999999999999,-1.18706,3
2024-06-14 08:07:01.719,-8.785,-58.870000000000005,-2.835,0.07905599999999999,-0.024156,-1.169248,3
2024-06-14 08:07:01.724,-10.22,-61.11,-2.31,0.08588799999999999,0.0,-1.163636,3
2024-06-14 08:07:01.728,-12.075,-63.035,-1.9249999999999998,0.09296399999999999,0.015616,-1.164612,3
2024-06-14 08:07:01.733,-13.44,-66.71000000000001,-1.225,0.09881999999999999,0.020007999999999998,-1.1748599999999998,3
2024-06-14 08:07:01.738,-13.475,-69.685,-0.875,0.09028,-0.016104,-1.19682,3
2024-06-14 08:07:01.743,-13.195,-72.38,-0.665,0.09101200000000001,-0.00244,-1.197552,3
2024-06-14 08:07:01.748,-13.615,-75.565,-0.665,0.102236,-0.0061,-1.221708,3
2024-06-14 08:07:01.752,-13.86,-79.485,-0.175,0.103212,0.002196,-1.225368,3
2024-06-14 08:07:01.757,-14.629999999999999,-82.495,-0.03500000000000002,0.105408,0.014152000000000001,-1.238544,3
2024-06-14 08:07:01.762,-14.245000000000001,-82.81,-0.245,0.11102,0.008052,-1.262456,3
2024-06-14 08:07:01.767,-13.965,-87.64,-0.14,0.111264,0.026108,-1.245864,3
2024-06-14 08:07:01.772,-13.72,-92.89,-0.21,0.11809599999999999,0.029036,-1.258308,3
2024-06-14 08:07:01.777,-14.07,-98.245,-0.21,0.13102799999999998,0.033184,-1.2683119999999999,3
2024-06-14 08:07:01.781,-14.945,-96.53,-0.07,0.128832,0.02318,-1.330044,3
2024-06-14 08:07:01.786,-16.905,-109.13,-0.63,0.142496,0.025132,-1.2944200000000001,3
2024-06-14 08:07:01.791,-18.445,-115.815,-0.9450000000000001,0.161772,0.029036,-1.316868,3
2024-06-14 08:07:01.796,-21.035,-123.16499999999999,-1.505,0.172508,0.048311999999999994,-1.3427319999999998,3
2024-06-14 08:07:01.801,-24.78,-130.55,-2.2399999999999998,0.17324,0.049776,-1.3537119999999998,3
2024-06-14 08:07:01.805,-30.59,-138.145,-3.43,0.173484,0.08052000000000001,-1.3925079999999999,3
2024-06-14 08:07:01.810,-31.115000000000002,-142.66000000000003,-4.2,0.14713199999999999,-0.0007320000000000002,-1.3893360000000001,3
2024-06-14 08:07:01.815,-30.310000000000002,-150.255,-4.095,0.157136,0.06124400000000001,-1.4003160000000001,3
2024-06-14 08:07:01.820,-33.355,-156.695,-5.529999999999999,0.1769,0.071004,-1.40666,3
2024-06-14 08:07:01.825,-36.435,-164.115,-6.72,0.17568,0.031476,-1.42496,3
2024-06-14 08:07:01.830,-39.269999999999996,-169.015,-7.14,0.180316,0.003172,-1.472296,3
2024-06-14 08:07:01.834,-42.84,-176.32999999999998,-7.244999999999999,0.18202400000000002,-0.016835999999999997,-1.477176,3
2024-06-14 08:07:01.839,-44.975,-184.24,-6.825,0.203008,0.0021960000000000018,-1.499868,3
2024-06-14 08:07:01.844,-49.07,-193.305,-7.385,0.188856,0.041968,-1.554524,3
2024-06-14 08:07:01.849,-49.0,-201.53,-8.120000000000001,0.17934,0.03782,-1.507188,3
2024-06-14 08:07:01.854,-51.065,-212.8,-9.24,0.179096,0.068076,-1.5128,3
2024-06-14 08:07:01.858,-53.865,-221.97,-10.99,0.181048,0.069296,-1.519144,3
2024-06-14 08:07:01.863,-55.894999999999996,-232.39999999999998,-12.495000000000001,0.198372,0.062708,-1.525732,4
2024-06-14 08:07:01.868,-57.120000000000005,-243.845,-13.754999999999999,0.202276,0.08637600000000001,-1.545008,4
2024-06-14 08:07:01.872,-60.095,-256.27,-15.015,0.202276,0.07588400000000001,-1.563552,4
2024-06-14 08:07:01.877,-63.21000000000001,-266.84000000000003,-16.1,0.22106399999999998,0.08588799999999999,-1.6011279999999999,4
2024-06-14 08:07:01.882,-68.985,-277.13,-17.64,0.226676,0.086132,-1.645048,4
2024-06-14 08:07:01.886,-70.0,-289.135,-18.515,0.239852,0.073688,-1.608692,4
2024-06-14 08:07:01.891,-68.03999999999999,-305.83000000000004,-18.69,0.24863599999999997,0.07417599999999999,-1.707024,4
2024-06-14 08:07:01.896,-69.65,-316.855,-18.725,0.250588,0.13419999999999999,-1.8102360000000002,4
2024-06-14 08:07:01.901,-76.055,-326.865,-20.825,0.29646,0.165188,-1.860256,4
2024-06-14 08:07:01.906,-73.815,-339.53499999999997,-22.4,0.337696,0.081496,-1.8822160000000001,4
2024-06-14 08:07:01.911,-67.235,-350.735,-21.174999999999997,0.306708,0.134688,-1.996408,4
2024-06-14 08:07:01.915,-69.44,-356.51,-22.715,0.366,0.18422,-2.103036,4
2024-06-14 08:07:01.920,-67.795,-365.53999999999996,-25.060000000000002,0.34428400000000003,0.20617999999999997,-1.998848,4
2024-06-14 08:07:01.925,-65.87,-372.71500000000003,-25.27,0.303536,0.29304399999999997,-2.1837999999999997,4
2024-06-14 08:07:01.930,-69.86,-371.21000000000004,-29.68,0.327448,0.267424,-2.241872,4
2024-06-14 08:07:01.935,-61.845,-373.275,-33.565,0.336232,0.25205199999999994,-2.186484,4
2024-06-14 08:07:01.940,-49.595,-374.46500000000003,-33.215,0.246196,0.29304399999999997,-2.2006360000000003,4
2024-06-14 08:07:01.944,-45.045,-369.39,-38.29,0.319396,0.34940799999999994,-2.251144,4
2024-06-14 08:07:01.949,-33.285,-367.745,-43.295,0.294996,0.3111,-2.144516,4
2024-06-14 08:07:01.954,-18.97,-369.46000000000004,-47.04,0.37942,0.38064,-2.044476,4
2024-06-14 08:07:01.959,-4.83,-372.645,-49.735,0.496784,0.66368,-1.875384,4
2024-06-14 08:07:01.964,-1.225,-383.46,-49.105000000000004,0.659288,0.952088,-1.7648519999999999,4
2024-06-14 08:07:01.968,-27.159999999999997,-390.21500000000003,-59.15,0.42846399999999996,1.2043840000000001,-1.599664,4
2024-06-14 08:07:01.973,-47.495000000000005,-383.845,-76.44,0.541924,1.248304,-1.492548,4
2024-06-14 08:07:01.978,-63.035,-372.155,-86.065,0.36795199999999995,1.12118,-1.70922,4
2024-06-14 08:07:01.983,-89.845,-360.67499999999995,-96.94999999999999,0.190564,1.121424,-1.633336,4
2024-06-14 08:07:01.988,-114.45,-345.275,-109.725,0.114436,1.1119080000000001,-1.52622,4
2024-06-14 08:07:01.993,-134.82,-334.075,-124.07499999999999,-0.065392,1.042856,-1.427644,4
2024-06-14 08:07:01.997,-148.82,-322.175,-142.555,-0.29304399999999997,1.002108,-1.381284,4
2024-06-14 08:07:02.002,-158.02499999999998,-308.315,-162.08499999999998,-0.46750400000000003,0.950136,-1.302716,4
2024-06-14 08:07:02.007,-160.195,-291.48,-184.20499999999998,-0.5863320000000001,0.81984,-1.2792919999999999,4
2024-06-14 08:07:02.012,-154.28,-272.685,-203.175,-0.7859240000000001,0.675392,-1.16876,4
2024-06-14 08:07:02.017,-146.89499999999998,-257.845,-219.45,-0.39406,0.543388,-1.0723799999999999,4
2024-06-14 08:07:02.022,-134.32999999999998,-253.575,-220.46499999999997,0.061487999999999994,0.684908,-0.812276,4
2024-06-14 08:07:02.026,-116.41,-226.345,-209.405,-0.059292000000000004,0.439444,-1.143872,4
2024-06-14 08:07:02.031,-112.84,-164.85000000000002,-188.65,-0.589992,0.15567199999999998,-0.9803919999999999,4
2024-06-14 08:07:02.036,-108.36,-105.21000000000001,-158.445,-0.85522,0.08418,-0.6263479999999999,4
2024-06-14 08:07:02.041,-90.72,-54.355000000000004,-119.98,-0.7905599999999999,0.012443999999999997,-0.5367999999999999,4
2024-06-14 08:07:02.046,-63.665,-5.6000000000000005,-77.56,-0.6531879999999999,-0.07246799999999999,-0.5733999999999999,4
2024-06-14 08:07:02.051,-32.76,39.235,-35.769999999999996,-0.5826720000000001,-0.151036,-0.625128,4
2024-06-14 08:07:02.055,-5.565,79.24000000000001,0.7699999999999996,-0.596336,-0.10833599999999999,-0.617076,4
2024-06-14 08:07:02.060,18.655,112.315,30.380000000000003,-0.567544,0.01464,-0.5575399999999999,4
2024-06-14 08:07:02.065,38.325,139.3,52.115,-0.510448,0.10833599999999999,-0.576816,4
2024-06-14 08:07:02.070,49.98,163.1,66.5,-0.470676,0.19495600000000002,-0.6278119999999999,4
2024-06-14 08:07:02.075,51.765,183.95999999999998,74.025,-0.43676,0.281088,-0.670024,4
2024-06-14 08:07:02.080,46.2,202.37,76.545,-0.399184,0.360144,-0.69418,4
2024-06-14 08:07:02.084,36.75,218.05,75.63499999999999,-0.365512,0.406016,-0.7012560000000001,4
2024-06-14 08:07:02.089,26.915,231.63,72.31,-0.34038,0.393328,-0.70516,4
2024-06-14 08:07:02.094,18.305,242.725,67.305,-0.31768799999999997,0.353068,-0.710528,4
2024-06-14 08:07:02.099,11.305,251.64999999999998,61.565,-0.297192,0.3111,-0.7232160000000001,4
2024-06-14 08:07:02.104,6.475,258.51,55.58,-0.27254799999999996,0.254736,-0.722972,4
2024-06-14 08:07:02.108,2.555,263.725,49.56,-0.250344,0.201544,-0.727608,4
2024-06-14 08:07:02.113,0.0,267.68,43.4,-0.233508,0.1647,-0.7285839999999999,4
2024-06-14 08:07:02.118,-1.68,271.17999999999995,36.575,-0.21472,0.140056,-0.725656,4
2024-06-14 08:07:02.123,-2.4850000000000003,274.365,29.085,-0.19446799999999997,0.13054,-0.726388,4
2024-06-14 08:07:02.128,-3.01,277.795,21.174999999999997,-0.17568,0.126392,-0.733464,4
2024-06-14 08:07:02.133,-3.255,281.365,13.23,-0.160552,0.101992,-0.745664,4
2024-06-14 08:07:02.137,-3.115,285.81,5.565,-0.14518,0.073444,-0.7700640000000001,4
2024-06-14 08:07:02.142,-1.96,291.375,-0.8400000000000001,-0.13639599999999996,0.045871999999999996,-0.792268,4
2024-06-14 08:07:02.147,0.56,297.605,-5.635,-0.13419999999999999,0.019032,-0.8161799999999999,4
2024-06-14 08:07:02.152,4.9,303.905,-8.4,-0.11931599999999999,-0.01952,-0.8515599999999999,4
2024-06-14 08:07:02.157,10.675,310.205,-9.485,-0.113216,-0.046848,-0.891332,4
2024-06-14 08:07:02.162,17.605,315.98,-8.785,-0.099064,-0.062952,-0.921832,4
2024-06-14 08:07:02.166,25.305,321.54499999999996,-6.37,-0.08784,-0.072712,-0.961604,4
2024-06-14 08:07:02.171,32.305,326.655,-2.87,-0.07539599999999999,-0.06490399999999999,-0.99674,4
2024-06-14 08:07:02.176,38.99,331.485,1.4700000000000002,-0.06612399999999999,-0.050508,-1.020652,4
2024-06-14 08:07:02.181,44.205,335.58000000000004,5.915,-0.057828000000000004,-0.027083999999999997,-1.055056,4
2024-06-14 08:07:02.186,47.53,338.765,10.219999999999999,-0.046604,0.016348,-1.0918999999999999,4
2024-06-14 08:07:02.191,47.88,340.83000000000004,13.93,-0.027083999999999997,0.061732,-1.121668,4
2024-06-14 08:07:02.195,45.849999999999994,341.565,16.975,-0.00976,0.107848,-1.165588,4
2024-06-14 08:07:02.200,40.6,341.53,18.865000000000002,0.00854,0.15982000000000002,-1.1982840000000001,4
2024-06-14 08:07:02.205,33.495000000000005,340.44500000000005,19.810000000000002,0.023668,0.200568,-1.224392,4
2024-06-14 08:07:02.210,25.165,338.135,20.195,0.050264,0.228628,-1.254648,4
2024-06-14 08:07:02.215,15.96,334.985,20.615,0.083204,0.244976,-1.3097919999999998,4
2024-06-14 08:07:02.220,6.930000000000001,331.73,21.560000000000002,0.11321600000000001,0.231068,-1.3541999999999998,4
2024-06-14 08:07:02.224,-0.3849999999999999,328.29999999999995,24.185,0.134932,0.202032,-1.370304,4
2024-06-14 08:07:02.229,-5.32,324.59000000000003,28.560000000000002,0.149084,0.18666,-1.385676,4
2024-06-14 08:07:02.234,-8.68,320.81,34.58,0.15494,0.181048,-1.424716,4
2024-06-14 08:07:02.239,-11.795,316.855,41.614999999999995,0.17519200000000001,0.1891,-1.474736,4
2024-06-14 08:07:02.244,-16.275,313.03999999999996,49.14,0.18788,0.207156,-1.502308,4
2024-06-14 08:07:02.249,-21.735,309.645,56.91,0.199104,0.22106399999999998,-1.530368,4
2024-06-14 08:07:02.253,-28.595,306.70500000000004,64.53999999999999,0.212524,0.222528,-1.572336,4
2024-06-14 08:07:02.258,-35.77,304.5,72.345,0.223748,0.21838000000000002,-1.6108879999999999,4
2024-06-14 08:07:02.263,-42.105000000000004,303.065,80.465,0.235216,0.199104,-1.647,4
2024-06-14 08:07:02.268,-45.535,302.015,89.005,0.24302400000000002,0.175924,-1.684332,4
2024-06-14 08:07:02.273,-46.515,301.875,97.125,0.24302400000000002,0.163968,-1.717272,4
2024-06-14 08:07:02.277,-46.025000000000006,301.35,103.845,0.25449199999999994,0.170068,-1.7394759999999998,4
2024-06-14 08:07:02.282,-45.78,300.44000000000005,108.15,0.25571199999999994,0.19276,-1.759728,4
2024-06-14 08:07:02.287,-47.39,299.565,109.375,0.26205599999999996,0.225456,-1.79096,4
2024-06-14 08:07:02.292,-49.84,298.865,107.555,0.27181599999999995,0.235948,-1.823412,4
2024-06-14 08:07:02.297,-51.835,297.78,103.18,0.28157600000000005,0.236924,-1.852936,4
2024-06-14 08:07:02.302,-52.465,296.59000000000003,96.985,0.28816400000000003,0.21984399999999998,-1.885632,4
2024-06-14 08:07:02.306,-51.239999999999995,295.82,90.02000000000001,0.28694400000000003,0.193736,-1.9283320000000002,4
2024-06-14 08:07:02.311,-48.265,295.29499999999996,82.74,0.28401600000000005,0.173728,-1.9595639999999999,4
2024-06-14 08:07:02.316,-44.205,295.12,75.495,0.282552,0.16469999999999999,-1.992016,4
2024-06-14 08:07:02.321,-39.55,295.08500000000004,68.18,0.29304399999999997,0.16787199999999997,-2.035692,4
2024-06-14 08:07:02.326,-35.489999999999995,294.7,61.18,0.305732,0.172508,-2.074732,4
2024-06-14 08:07:02.331,-32.305,294.245,54.215,0.31842000000000004,0.18348799999999998,-2.092544,4
2024-06-14 08:07:02.335,-29.4,293.405,47.425,0.33989199999999997,0.197152,-2.0981560000000004,4
2024-06-14 08:07:02.340,-26.67,292.495,41.09,0.364292,0.209596,-2.112552,4
2024-06-14 08:07:02.345,-24.78,290.99,35.769999999999996,0.396744,0.222528,-2.11426,4
2024-06-14 08:07:02.350,-23.205,288.61,31.744999999999997,0.43944399999999995,0.238388,-2.100596,4
2024-06-14 08:07:02.355,-21.665,285.32,29.085,0.498248,0.25351599999999996,-2.0688760000000004,4
2024-06-14 08:07:02.360,-20.545,280.28,27.65,0.55266,0.284504,-2.045452,4
2024-06-14 08:07:02.364,-20.685000000000002,274.04999999999995,26.88,0.606584,0.331352,-2.0315440000000002,4
2024-06-14 08:07:02.369,-23.1,267.365,26.810000000000002,0.6561159999999999,0.38552,-2.0042159999999996,4
2024-06-14 08:07:02.374,-27.86,260.08500000000004,27.509999999999998,0.709308,0.43554,-1.9734720000000001,4
2024-06-14 08:07:02.379,-34.405,252.175,28.805,0.770796,0.46530799999999994,-1.95322,4
2024-06-14 08:07:02.384,-42.42,243.565,30.485,0.820328,0.46799199999999996,-1.91174,4
2024-06-14 08:07:02.389,-49.945,234.85000000000002,32.935,0.8723,0.44090799999999997,-1.86416,4
2024-06-14 08:07:02.393,-57.47,225.82,35.980000000000004,0.931592,0.395524,-1.8087719999999998,4
2024-06-14 08:07:02.398,-63.84,215.88,39.69,0.9852719999999999,0.33989199999999997,-1.7602159999999998,4
2024-06-14 08:07:02.403,-69.78999999999999,205.345,43.645,1.038708,0.28547999999999996,-1.721664,4
2024-06-14 08:07:02.408,-75.18,194.18,47.459999999999994,1.1019039999999998,0.231068,-1.6857959999999999,4
2024-06-14 08:07:02.413,-79.94,182.735,50.68,1.1651,0.17763199999999998,-1.6443159999999999,4
2024-06-14 08:07:02.418,-84.07,171.39499999999998,53.305,1.2151199999999998,0.1281,-1.603568,4
2024-06-14 08:07:02.422,-87.115,160.265,55.58,1.2683119999999999,0.08174,-1.5838039999999998,4
2024-06-14 08:07:02.427,-88.62,150.045,57.504999999999995,1.334924,0.028548,-1.575996,4
2024-06-14 08:07:02.432,-87.535,140.7,59.08,1.4083679999999998,-0.036112,-1.552084,4
2024-06-14 08:07:02.437,-83.615,131.565,59.465,1.4937679999999998,-0.108336,-1.503284,4
2024-06-14 08:07:02.442,-77.91,122.04499999999999,57.715,1.5921,-0.16372399999999998,-1.470832,4
2024-06-14 08:07:02.446,-71.89,111.685,53.515,1.69702,-0.2135,-1.43838,4
2024-06-14 08:07:02.451,-65.345,100.52000000000001,46.935,1.79706,-0.279868,-1.3929960000000001,4
2024-06-14 08:07:02.456,-57.435,87.745,38.465,1.8731879999999999,-0.355264,-1.354932,4
2024-06-14 08:07:02.461,-47.075,74.795,28.735,1.9171079999999998,-0.436516,-1.333704,4
2024-06-14 08:07:02.466,-34.44,62.93000000000001,19.25,1.924184,-0.5084960000000001,-1.3139399999999999,4
2024-06-14 08:07:02.471,-20.02,52.254999999999995,10.850000000000001,1.8988079999999998,-0.5502199999999999,-1.293444,4
2024-06-14 08:07:02.475,-5.635,42.735,3.7800000000000002,1.842444,-0.564616,-1.2722159999999998,4
2024-06-14 08:07:02.480,8.015,33.355000000000004,-1.155,1.7724159999999998,-0.549244,-1.248548,4
2024-06-14 08:07:02.485,20.895,23.765,-4.0600000000000005,1.690188,-0.51728,-1.214144,4
2024-06-14 08:07:02.490,32.69,13.719999999999999,-5.390000000000001,1.5899039999999998,-0.451156,-1.1738839999999997,4
2024-06-14 08:07:02.495,42.56,4.305,-5.11,1.493036,-0.359656,-1.14924,4
2024-06-14 08:07:02.500,49.875,-4.34,-3.045,1.397388,-0.26303200000000004,-1.137528,4
2024-06-14 08:07:02.504,55.019999999999996,-11.445,0.45499999999999996,1.316868,-0.1708,-1.121912,4
2024-06-14 08:07:02.509,58.239999999999995,-17.990000000000002,5.18,1.250744,-0.078812,-1.1033680000000001,4
2024-06-14 08:07:02.514,59.045,-24.22,11.094999999999999,1.204628,0.005612,-1.0943399999999999,4
2024-06-14 08:07:02.519,57.75,-30.555,18.13,1.1770559999999999,0.071004,-1.087264,4
2024-06-14 08:07:02.524,54.915,-37.415000000000006,26.39,1.158756,0.126392,-1.0772599999999999,4
2024-06-14 08:07:02.529,51.625,-45.08,35.91,1.151924,0.167384,-1.0679880000000002,4
2024-06-14 08:07:02.533,47.25,-53.165000000000006,46.41,1.135088,0.21301199999999998,-1.070916,4
2024-06-14 08:07:02.538,41.614999999999995,-60.83,57.575,1.113616,0.257664,-1.06628,4
2024-06-14 08:07:02.543,49.49,-102.655,60.97,1.6479759999999999,1.5437880000000002,-1.855376,4
