time,gyroscope_x,gyroscope_y,gyroscope_z,accelerometer_x,accelerometer_y,accelerometer_z,phase
2024-06-14 08:07:05.794,-154.315,-209.335,51.59,1.009672,-1.126548,-4.342468,1
2024-06-14 08:07:05.799,-198.34500000000003,-156.41500000000002,41.894999999999996,-1.52134,-0.427732,0.3477,1
2024-06-14 08:07:05.804,-187.145,-215.215,35.56,-1.5096280000000002,-0.8051999999999999,0.06636800000000001,1
2024-06-14 08:07:05.809,-149.94,-223.08999999999997,21.525,-1.84952,-0.654652,-1.150216,2
2024-06-14 08:07:05.813,-140.20999999999998,-240.625,-4.62,-1.056764,-0.98454,-0.9699000000000001,2
2024-06-14 08:07:05.818,-120.785,-274.53999999999996,-33.845,-0.369904,-0.701012,-1.439356,2
2024-06-14 08:07:05.823,-88.2,-296.52,-63.315,0.22155199999999997,-0.371368,-1.571116,2
2024-06-14 08:07:05.828,-42.21,-306.95,-89.32,0.485804,-0.062952,-1.729716,2
2024-06-14 08:07:05.833,1.5750000000000002,-291.515,-107.8,0.44700799999999996,0.199592,-1.99958,2
2024-06-14 08:07:05.838,31.535,-258.58,-107.83500000000001,0.404064,0.58682,-2.164524,2
2024-06-14 08:07:05.842,24.08,-234.115,-86.38,0.18348799999999998,0.87596,-2.269932,2
2024-06-14 08:07:05.847,-9.835,-208.005,-51.555,-0.111996,0.97234,-2.345816,2
2024-06-14 08:07:05.852,-26.985,-196.875,-15.925,-0.329644,0.7198,-2.2018560000000003,2
2024-06-14 08:07:05.857,-18.97,-183.26,8.645,-0.29036,0.416752,-2.146224,2
2024-06-14 08:07:05.862,-6.755,-161.84,14.455,-0.094916,0.1037,-1.97152,2
2024-06-14 08:07:05.867,11.059999999999999,-145.215,7.105,0.050019999999999995,-0.041968,-1.971032,2
2024-06-14 08:07:05.871,25.619999999999997,-118.89500000000001,-3.0100000000000002,0.069296,-0.061976,-1.94224,2
2024-06-14 08:07:05.876,28.384999999999998,-63.56,-7.84,0.029523999999999998,-0.020008,-1.688724,2
2024-06-14 08:07:05.881,23.205,-99.33000000000001,-3.2199999999999998,-0.011224000000000001,0.048799999999999996,-1.651392,2
2024-06-14 08:07:05.886,15.05,-70.805,2.625,-0.022448,-0.01586,-1.7019,2
2024-06-14 08:07:05.891,6.545,-52.885000000000005,2.45,0.00366,-0.26108,-1.457656,2
2024-06-14 08:07:05.896,-0.42000000000000004,-53.97,-3.71,0.04514,-0.240096,-1.3681079999999999,2
2024-06-14 08:07:05.900,-4.0600000000000005,-57.260000000000005,-11.129999999999999,0.005855999999999998,-0.144936,-1.295884,2
2024-06-14 08:07:05.905,-5.32,-57.75,-15.155000000000001,-0.10613999999999998,-0.047091999999999995,-1.179984,2
2024-06-14 08:07:05.910,-6.755,-60.724999999999994,-13.37,-0.173728,-0.011468,-1.07116,2
2024-06-14 08:07:05.915,-11.795,-45.394999999999996,-9.73,-0.14639999999999997,-0.017079999999999998,-1.044808,2
2024-06-14 08:07:05.920,-12.915,-38.325,-7.525,-0.084668,-0.031231999999999996,-1.0616439999999998,2
2024-06-14 08:07:05.925,-15.96,-32.269999999999996,-7.77,-0.060023999999999994,-0.05489999999999999,-1.074576,2
2024-06-14 08:07:05.929,-15.96,-30.835,-8.75,-0.054412,-0.041724,-1.108492,2
2024-06-14 08:07:05.934,-17.15,-31.29,-8.33,-0.07076,-0.031476,-1.127036,2
2024-06-14 08:07:05.939,-19.705,-31.745,-7.1049999999999995,-0.088816,0.0014640000000000005,-1.132404,2
2024-06-14 08:07:05.944,-18.2,-34.86,-5.775,-0.097112,0.017079999999999998,-1.128988,2
2024-06-14 08:07:05.949,-17.255000000000003,-37.765,-4.9350000000000005,-0.101992,0.019275999999999998,-1.1248399999999998,2
2024-06-14 08:07:05.954,-15.05,-40.53,-4.375,-0.101748,0.016104,-1.123132,2
2024-06-14 08:07:05.958,-12.285,-43.295,-3.6399999999999997,-0.096868,0.027816,-1.122156,2
2024-06-14 08:07:05.963,-9.66,-44.275,-2.9400000000000004,-0.08759600000000001,0.048799999999999996,-1.1272800000000003,2
2024-06-14 08:07:05.968,-5.5649999999999995,-43.855000000000004,-2.03,-0.081496,0.06588,-1.119472,2
2024-06-14 08:07:05.973,-1.295,-42.875,-1.19,-0.078812,0.072956,-1.1226439999999998,2
2024-06-14 08:07:05.978,3.08,-41.195,-0.665,-0.08759600000000001,0.062708,-1.125816,2
2024-06-14 08:07:05.983,7.07,-40.6,0.07,-0.098088,0.04148,-1.130696,2
2024-06-14 08:07:05.987,9.94,-41.3,0.875,-0.106872,0.041236,-1.132892,2
2024-06-14 08:07:05.992,13.055,-42.175,1.645,-0.099552,0.040260000000000004,-1.136552,2
2024-06-14 08:07:05.997,16.065,-43.54,2.17,-0.091256,0.04148,-1.1248399999999998,2
2024-06-14 08:07:06.002,18.619999999999997,-44.45,2.415,-0.081496,0.034159999999999996,-1.121668,2
2024-06-14 08:07:06.007,21.314999999999998,-45.394999999999996,2.5549999999999997,-0.070028,0.022935999999999998,-1.1141039999999998,2
2024-06-14 08:07:06.012,22.75,-46.55,2.5549999999999997,-0.068076,0.010004,-1.103612,2
2024-06-14 08:07:06.017,23.87,-48.09,2.66,-0.069784,0.0036599999999999996,-1.1021480000000001,2
2024-06-14 08:07:06.021,24.814999999999998,-50.26,2.555,-0.08784,0.0007319999999999999,-1.1028799999999999,2
2024-06-14 08:07:06.026,24.885,-51.730000000000004,2.59,-0.089304,-0.007076,-1.1055639999999998,2
2024-06-14 08:07:06.031,24.71,-53.585,2.66,-0.079544,-0.014152,-1.111176,2
2024-06-14 08:07:06.036,23.799999999999997,-55.72,2.73,-0.075396,-0.029036,-1.1114199999999999,2
2024-06-14 08:07:06.041,21.98,-58.099999999999994,2.8,-0.072224,-0.050508,-1.102392,2
2024-06-14 08:07:06.046,19.425,-54.845,3.325,-0.062464000000000006,-0.062464000000000006,-1.087752,2
2024-06-14 08:07:06.050,15.96,-61.355000000000004,4.13,-0.054167999999999994,-0.077592,-1.079944,2
2024-06-14 08:07:06.055,12.705,-62.86,5.075,-0.043188,-0.085644,-1.0814079999999997,2
2024-06-14 08:07:06.060,8.120000000000001,-61.879999999999995,5.705,-0.033184,-0.0793,-1.078236,2
2024-06-14 08:07:06.065,-0.42,-57.540000000000006,4.97,-0.027084,-0.065392,-1.06506,2
2024-06-14 08:07:06.070,-1.575,-58.205,5.145,-0.018056,-0.048555999999999995,-1.070428,2
2024-06-14 08:07:06.075,-3.8150000000000004,-58.379999999999995,5.215,-0.011956,-0.0427,-1.075796,2
2024-06-14 08:07:06.079,-4.725,-58.730000000000004,5.075,-0.020739999999999998,-0.029036000000000003,-1.0870199999999999,2
2024-06-14 08:07:06.084,-4.865,-58.974999999999994,4.865,-0.019032,-0.010248,-1.092632,2
2024-06-14 08:07:06.089,-3.885,-60.69,4.515,-0.012932,0.0017079999999999999,-1.1019039999999998,2
2024-06-14 08:07:06.094,-1.2950000000000002,-62.265,4.27,0.006588,0.015372,-1.095072,2
2024-06-14 08:07:06.099,2.765,-65.695,3.6399999999999997,0.018543999999999998,0.027084,-1.1045880000000001,2
2024-06-14 08:07:06.104,4.795,-66.28999999999999,2.59,0.014884,0.023424,-1.108492,2
2024-06-14 08:07:06.108,6.09,-67.06,1.75,0.020496,0.034404000000000004,-1.1126399999999999,2
2024-06-14 08:07:06.113,8.925,-67.41,0.525,0.026595999999999998,0.042943999999999996,-1.1299640000000002,2
2024-06-14 08:07:06.118,12.355,-69.16,-1.085,0.041968,0.049776,-1.130696,2
2024-06-14 08:07:06.124,20.65,-69.055,-1.47,0.029279999999999994,-0.00366,-1.1712,2
2024-06-14 08:07:06.129,27.895,-65.66,-0.595,0.026352,-0.009028,-1.162416,2
2024-06-14 08:07:06.134,31.64,-64.015,-0.21,0.033428,-0.031476,-1.127768,2
2024-06-14 08:07:06.138,33.53,-63.42,-0.8400000000000001,0.045628,-0.047824000000000005,-1.117276,2
2024-06-14 08:07:06.143,33.53,-62.335,-0.56,0.043432,-0.061975999999999996,-1.1167880000000001,2
2024-06-14 08:07:06.148,30.52,-60.76,0.35,0.050752000000000005,-0.084668,-1.1326479999999999,2
2024-06-14 08:07:06.153,23.835,-60.515,0.7350000000000001,0.0549,-0.083204,-1.118252,2
2024-06-14 08:07:06.158,20.3,-59.394999999999996,1.295,0.063196,-0.08247199999999999,-1.101172,2
2024-06-14 08:07:06.163,17.255000000000003,-59.185,1.6099999999999999,0.069784,-0.074908,-1.0979999999999999,2
2024-06-14 08:07:06.167,14.98,-58.8,1.9949999999999999,0.07417599999999999,-0.071736,-1.0918999999999999,2
2024-06-14 08:07:06.172,12.775,-58.205,2.135,0.08369199999999999,-0.06880800000000001,-1.094828,2
2024-06-14 08:07:06.177,10.99,-57.644999999999996,2.31,0.09296399999999999,-0.066612,-1.100196,2
2024-06-14 08:07:06.182,9.52,-56.525000000000006,2.38,0.096136,-0.056852,-1.1031239999999998,2
2024-06-14 08:07:06.187,8.120000000000001,-56.105000000000004,2.275,0.090036,-0.060268,-1.1092239999999998,2
2024-06-14 08:07:06.192,6.895,-55.474999999999994,2.45,0.08930400000000001,-0.056364,-1.114836,2
2024-06-14 08:07:06.196,5.74,-54.705,2.38,0.101748,-0.053924,-1.1175199999999998,2
2024-06-14 08:07:06.201,4.13,-54.74,2.3449999999999998,0.101748,-0.06222,-1.132404,2
2024-06-14 08:07:06.206,1.855,-54.67,2.3449999999999998,0.099552,-0.062708,-1.138748,2
2024-06-14 08:07:06.211,-0.7,-54.705,2.38,0.111264,-0.08149600000000001,-1.1272799999999998,2
2024-06-14 08:07:06.216,-3.36,-54.775000000000006,2.66,0.1159,-0.08295999999999999,-1.116056,2
2024-06-14 08:07:06.220,-5.74,-54.46,3.15,0.122976,-0.088084,-1.103124,2
2024-06-14 08:07:06.225,-8.015,-54.075,3.5700000000000003,0.129076,-0.07686000000000001,-1.090192,2
2024-06-14 08:07:06.230,-10.01,-53.655,4.025,0.13590799999999997,-0.076372,-1.085556,2
2024-06-14 08:07:06.235,-11.585,-52.185,4.515000000000001,0.13712799999999997,-0.071492,-1.0772599999999999,2
2024-06-14 08:07:06.240,-13.265,-51.135000000000005,4.9,0.154208,-0.068076,-1.057984,2
2024-06-14 08:07:06.245,-14.559999999999999,-49.665,5.005,0.157136,-0.060511999999999996,-1.052616,3
2024-06-14 08:07:06.249,-15.645,-47.985,5.145,0.16372399999999998,-0.060511999999999996,-1.03578,3
2024-06-14 08:07:06.254,-16.310000000000002,-46.165,5.355,0.16738399999999998,-0.063928,-1.029436,3
2024-06-14 08:07:06.259,-17.009999999999998,-44.66,5.74,0.17177599999999998,-0.06514799999999998,-1.0279719999999999,3
2024-06-14 08:07:06.264,-17.78,-43.33,6.23,0.176656,-0.068564,-1.0348039999999998,3
2024-06-14 08:07:06.269,-18.34,-42.175,6.65,0.18080400000000002,-0.067588,-1.034804,3
2024-06-14 08:07:06.274,-18.165,-41.265,7.3149999999999995,0.177144,-0.06417199999999999,-1.046272,3
2024-06-14 08:07:06.278,-16.835,-42.315,7.77,0.204472,-0.06124399999999999,-0.9955200000000001,3
2024-06-14 08:07:06.283,-18.130000000000003,-30.31,6.615,0.19568799999999997,-0.027572,-0.9154879999999999,3
2024-06-14 08:07:06.288,-15.855,-41.475,7.77,0.194224,-0.024156,-1.1004399999999999,3
2024-06-14 08:07:06.293,-13.754999999999999,-41.615,7.385,0.195932,-0.007076000000000001,-1.103368,3
2024-06-14 08:07:06.298,-12.844999999999999,-42.035,7.385,0.19446799999999997,-0.0053679999999999995,-1.106296,3
2024-06-14 08:07:06.303,-9.8,-42.7,7.42,0.203496,0.003172,-1.117276,3
2024-06-14 08:07:06.307,-6.475,-43.4,7.035,0.211548,0.004392,-1.1175199999999998,3
2024-06-14 08:07:06.312,-3.745,-44.519999999999996,6.3,0.211792,0.00366,-1.1126399999999999,3
2024-06-14 08:07:06.317,0.315,-45.465,5.635,0.21472,0.0046359999999999995,-1.1260599999999998,3
2024-06-14 08:07:06.322,3.8150000000000004,-47.004999999999995,5.075,0.21667199999999998,0.012688,-1.139724,3
2024-06-14 08:07:06.327,7.140000000000001,-48.615,4.6899999999999995,0.210084,0.010003999999999999,-1.157536,3
2024-06-14 08:07:06.332,9.975000000000001,-50.89,4.234999999999999,0.210816,0.011467999999999999,-1.175592,3
2024-06-14 08:07:06.336,12.004999999999999,-53.269999999999996,3.92,0.210572,-0.011712,-1.1782759999999999,3
2024-06-14 08:07:06.341,14.594999999999999,-56.0,3.745,0.20910800000000002,-0.019763999999999997,-1.18828,3
2024-06-14 08:07:06.346,15.82,-59.43,3.465,0.210816,-0.023912000000000003,-1.209508,3
2024-06-14 08:07:06.351,16.695,-63.0,3.325,0.213256,-0.030744,-1.236348,3
2024-06-14 08:07:06.356,16.765,-67.16499999999999,3.36,0.217404,-0.04148,-1.2478159999999998,3
2024-06-14 08:07:06.360,16.73,-71.015,3.745,0.217648,-0.05734,-1.2487920000000001,3
2024-06-14 08:07:06.365,16.94,-75.11,4.199999999999999,0.22716399999999998,-0.059292,-1.250012,3
2024-06-14 08:07:06.370,17.115000000000002,-79.59,4.48,0.232532,-0.054655999999999996,-1.2658719999999999,3
2024-06-14 08:07:06.375,17.36,-84.035,4.585,0.23936400000000002,-0.043676,-1.2688000000000001,3
2024-06-14 08:07:06.380,17.85,-88.795,4.6899999999999995,0.23936400000000002,-0.050019999999999995,-1.28344,3
2024-06-14 08:07:06.385,18.655,-93.80000000000001,5.005,0.24985600000000002,-0.056364,-1.2856359999999998,3
2024-06-14 08:07:06.389,19.564999999999998,-99.225,5.495,0.248636,-0.053192,-1.302716,3
2024-06-14 08:07:06.394,20.3,-104.61500000000001,5.6,0.24936799999999998,-0.027083999999999997,-1.3102800000000001,3
2024-06-14 08:07:06.399,21.384999999999998,-110.53,5.215,0.25473599999999996,-0.031232,-1.3359,3
2024-06-14 08:07:06.404,23.205,-116.69,5.25,0.261812,-0.029036,-1.3542,3
2024-06-14 08:07:06.409,24.009999999999998,-122.39500000000001,4.9,0.26596,-0.015616000000000001,-1.36274,3
2024-06-14 08:07:06.414,25.795,-129.185,4.76,0.26278799999999997,-0.031964,-1.392264,3
2024-06-14 08:07:06.418,27.825000000000003,-135.625,4.970000000000001,0.266448,-0.03904,-1.3954360000000001,3
2024-06-14 08:07:06.423,30.205,-143.04500000000002,5.18,0.272792,-0.042943999999999996,-1.4266679999999998,3
2024-06-14 08:07:06.428,32.724999999999994,-150.885,5.6,0.27376799999999996,-0.044164,-1.450092,3
2024-06-14 08:07:06.433,34.405,-159.425,5.915,0.273524,-0.060268,-1.473272,3
2024-06-14 08:07:06.438,37.03,-168.385,6.859999999999999,0.268644,-0.057828,-1.5003559999999998,3
2024-06-14 08:07:06.443,38.22,-178.115,7.664999999999999,0.26815599999999995,-0.070516,-1.529636,3
2024-06-14 08:07:06.447,40.459999999999994,-188.685,8.96,0.27571999999999997,-0.110776,-1.5591599999999999,3
2024-06-14 08:07:06.452,43.575,-199.885,10.71,0.26766799999999996,-0.094672,-1.5791680000000001,3
2024-06-14 08:07:06.457,46.305,-212.20499999999998,11.094999999999999,0.272548,-0.080764,-1.616744,3
2024-06-14 08:07:06.462,49.91,-225.26,11.445,0.266204,-0.069052,-1.6435840000000002,3
2024-06-14 08:07:06.467,53.795,-238.595,11.9,0.269132,-0.057828000000000004,-1.696288,3
2024-06-14 08:07:06.472,58.975,-249.655,12.355,0.274012,-0.038308,-1.820484,3
2024-06-14 08:07:06.476,62.335,-261.79999999999995,11.935,0.31232,-0.004391999999999999,-1.799256,3
2024-06-14 08:07:06.481,65.59,-279.58,10.535,0.310612,-0.031964000000000006,-1.8258519999999998,3
2024-06-14 08:07:06.486,73.395,-294.735,9.8,0.324276,-0.048799999999999996,-1.8695279999999999,3
2024-06-14 08:07:06.491,80.64,-309.155,8.995000000000001,0.36453599999999997,-0.005612000000000001,-1.9581,3
2024-06-14 08:07:06.496,81.655,-324.83500000000004,7.0,0.35746,0.0009760000000000003,-1.97152,3
2024-06-14 08:07:06.501,84.84,-341.32,5.915,0.354776,-0.061731999999999995,-2.046916,3
2024-06-14 08:07:06.505,89.705,-355.81,5.355,0.406504,-0.09345200000000001,-2.1035239999999997,3
2024-06-14 08:07:06.510,90.685,-370.96500000000003,4.795,0.42212000000000005,-0.092476,-2.151104,3
2024-06-14 08:07:06.515,90.78999999999999,-382.97,4.2,0.47384800000000005,-0.17202,-2.270176,3
2024-06-14 08:07:06.520,93.205,-393.54,6.09,0.459696,-0.24814799999999998,-2.319708,3
2024-06-14 08:07:06.525,92.435,-402.71000000000004,10.01,0.49141599999999996,-0.165188,-2.393884,3
2024-06-14 08:07:06.529,77.77,-408.17,9.765,0.5070319999999999,-0.17909599999999998,-2.51076,3
2024-06-14 08:07:06.534,75.285,-408.065,11.585,0.51972,-0.303048,-2.610556,3
2024-06-14 08:07:06.539,71.12,-409.22,17.71,0.471164,-0.33086400000000005,-2.444636,3
2024-06-14 08:07:06.544,59.92,-409.15,21.945,0.49605199999999994,-0.403088,-2.3521599999999996,3
2024-06-14 08:07:06.549,49.49,-408.345,27.79,0.45188799999999996,-0.605852,-2.266272,3
2024-06-14 08:07:06.554,47.215,-409.5,33.53,0.423096,-0.953552,-2.097424,3
2024-06-14 08:07:06.558,62.545,-412.405,40.67,0.23058,-1.1995040000000001,-1.910276,3
2024-06-14 08:07:06.563,89.6,-408.31,63.455,0.338184,-1.412028,-1.785104,3
2024-06-14 08:07:06.568,92.4,-405.58000000000004,77.63,0.386252,-1.256356,-1.8841679999999998,4
2024-06-14 08:07:06.573,105.245,-403.305,89.63499999999999,0.189344,-1.2988119999999999,-1.821704,4
2024-06-14 08:07:06.578,126.14000000000001,-391.05499999999995,103.285,-0.08052000000000001,-1.452776,-1.710684,4
2024-06-14 08:07:06.583,153.685,-375.44500000000005,122.22,-0.059536000000000006,-1.4354520000000002,-1.6631040000000001,4
2024-06-14 08:07:06.587,166.985,-362.25,143.85,-0.194468,-1.271728,-1.625528,4
2024-06-14 08:07:06.592,175.175,-346.29,165.55,-0.45774399999999993,-1.120936,-1.478396,4
2024-06-14 08:07:06.597,178.36,-323.295,188.51,-0.772748,-0.9828319999999999,-1.327848,4
2024-06-14 08:07:06.602,173.845,-292.67,211.95999999999998,-0.842532,-0.829112,-1.29808,4
2024-06-14 08:07:06.607,159.705,-261.625,231.805,-0.913536,-0.626592,-1.220732,4
2024-06-14 08:07:06.612,143.535,-236.425,246.085,0.009028000000000008,-0.5685199999999999,-0.89792,4
2024-06-14 08:07:06.616,107.20500000000001,-223.825,232.89,0.24814800000000004,-0.49263599999999996,-1.12118,4
2024-06-14 08:07:06.621,70.10499999999999,-152.39,204.435,-0.48922,-0.06954,-1.238788,4
2024-06-14 08:07:06.626,53.900000000000006,-74.58500000000001,170.345,-1.048712,0.145424,-0.676368,4
2024-06-14 08:07:06.631,32.655,-14.49,131.11,-0.909144,0.201788,-0.5367999999999999,4
2024-06-14 08:07:06.636,-3.5700000000000003,41.055,88.62,-0.5899920000000001,0.16348000000000001,-0.777628,4
2024-06-14 08:07:06.641,-40.6,89.74000000000001,48.545,-0.524356,0.11004399999999999,-0.866444,4
2024-06-14 08:07:06.645,-68.81,131.005,15.155,-0.5550999999999999,0.006832000000000001,-0.806664,4
2024-06-14 08:07:06.650,-89.985,165.26999999999998,-10.815,-0.49507599999999996,-0.137372,-0.7998319999999999,4
2024-06-14 08:07:06.655,-106.225,193.26999999999998,-29.785,-0.408212,-0.25083199999999994,-0.850096,4
2024-06-14 08:07:06.660,-114.73,216.79000000000002,-42.525,-0.37136800000000003,-0.36112,-0.8869400000000001,4
2024-06-14 08:07:06.665,-113.785,237.72,-49.945,-0.369172,-0.470188,-0.894504,4
2024-06-14 08:07:06.670,-106.505,256.06,-53.165,-0.34940799999999994,-0.5428999999999999,-0.873764,4
2024-06-14 08:07:06.674,-95.48,270.865,-53.06,-0.32134799999999997,-0.56242,-0.894748,4
2024-06-14 08:07:06.679,-83.30000000000001,281.89,-50.225,-0.284992,-0.56364,-0.9201239999999999,4
2024-06-14 08:07:06.684,-71.75,289.345,-45.5,-0.234728,-0.553148,-0.94184,4
2024-06-14 08:07:06.689,-61.459999999999994,293.125,-39.584999999999994,-0.179584,-0.525332,-0.951112,4
2024-06-14 08:07:06.694,-51.835,293.545,-32.655,-0.12395199999999999,-0.490684,-0.95282,4
2024-06-14 08:07:06.698,-43.364999999999995,291.2,-25.095,-0.091256,-0.456036,-0.92964,4
2024-06-14 08:07:06.703,-35.28,286.755,-17.115000000000002,-0.07539599999999999,-0.417972,-0.886208,4
2024-06-14 08:07:06.708,-28.105,280.66499999999996,-8.855,-0.077104,-0.37942,-0.8303320000000001,4
2024-06-14 08:07:06.713,-21.384999999999998,274.33,-0.7699999999999999,-0.070516,-0.357948,-0.7978799999999999,4
2024-06-14 08:07:06.718,-13.79,268.59000000000003,7.07,-0.07344400000000001,-0.3538,-0.7807999999999999,4
2024-06-14 08:07:06.723,-6.055,264.46000000000004,14.559999999999999,-0.084424,-0.338916,-0.780312,4
2024-06-14 08:07:06.727,1.33,263.2,20.965,-0.10955599999999999,-0.304512,-0.7798240000000001,4
2024-06-14 08:07:06.732,7.105,265.51,25.76,-0.14395999999999998,-0.26278799999999997,-0.783972,4
2024-06-14 08:07:06.737,10.465,271.425,28.42,-0.17421599999999998,-0.20569199999999999,-0.801296,4
2024-06-14 08:07:06.742,10.955,280.945,28.665,-0.193736,-0.15201199999999998,-0.830576,4
2024-06-14 08:07:06.747,7.700000000000001,292.565,26.6,-0.198616,-0.08979200000000001,-0.8698600000000001,4
2024-06-14 08:07:06.752,1.505,305.06,22.82,-0.197152,-0.04514,-0.903288,4
2024-06-14 08:07:06.756,-6.93,316.645,18.025,-0.174948,-0.018056,-0.9372039999999999,4
2024-06-14 08:07:06.761,-16.17,325.99,13.09,-0.142984,-0.006588,-0.9755119999999999,4
2024-06-14 08:07:06.766,-24.71,332.885,8.925,-0.102236,-0.00976,-1.009428,4
2024-06-14 08:07:06.771,-30.975,337.47,5.53,-0.070272,-0.038307999999999995,-1.0365119999999999,4
2024-06-14 08:07:06.776,-33.845,340.62,3.29,-0.044896,-0.077348,-1.0655480000000002,4
2024-06-14 08:07:06.781,-32.935,343.385,2.275,-0.033184000000000005,-0.121512,-1.0931199999999999,4
2024-06-14 08:07:06.785,-28.0,346.955,1.8900000000000001,-0.032208,-0.15689199999999998,-1.126304,4
2024-06-14 08:07:06.790,-21.490000000000002,350.84000000000003,1.365,-0.028548,-0.16592,-1.139968,4
2024-06-14 08:07:06.795,-15.505,353.64,0.7,-0.009028,-0.152988,-1.1790079999999998,4
2024-06-14 08:07:06.800,-10.395,355.28499999999997,-0.07,0.009271999999999999,-0.140056,-1.2153639999999999,4
2024-06-14 08:07:06.805,-5.95,355.355,-1.05,0.042212,-0.12444,-1.2395200000000002,4
2024-06-14 08:07:06.810,-1.96,353.46500000000003,-2.1350000000000002,0.08296,-0.11638799999999999,-1.270752,4
2024-06-14 08:07:06.814,3.0100000000000002,350.525,-3.185,0.117364,-0.10931199999999999,-1.301984,4
2024-06-14 08:07:06.819,8.96,347.06,-4.234999999999999,0.150548,-0.11077599999999999,-1.3346799999999999,4
2024-06-14 08:07:06.824,15.260000000000002,342.825,-6.055,0.173484,-0.100528,-1.346148,4
2024-06-14 08:07:06.829,21.42,338.38,-8.4,0.19056399999999998,-0.094428,-1.3664,4
2024-06-14 08:07:06.834,27.405,334.075,-11.2,0.205936,-0.079788,-1.397632,4
2024-06-14 08:07:06.838,32.97,329.84000000000003,-14.595,0.222528,-0.067588,-1.434232,4
2024-06-14 08:07:06.843,38.22,325.85,-18.41,0.23399599999999998,-0.050752000000000005,-1.4654639999999999,4
2024-06-14 08:07:06.848,42.56,322.07000000000005,-22.4,0.246196,-0.034404,-1.4937680000000002,4
2024-06-14 08:07:06.853,46.06,318.745,-26.425,0.24278,-0.028304,-1.52622,4
2024-06-14 08:07:06.858,49.489999999999995,316.015,-30.17,0.24424400000000002,-0.021471999999999998,-1.5620880000000001,4
2024-06-14 08:07:06.863,52.989999999999995,313.67,-33.53,0.24888,-0.010735999999999999,-1.599664,4
2024-06-14 08:07:06.867,56.209999999999994,312.095,-36.295,0.25107599999999997,-0.003172,-1.638216,4
2024-06-14 08:07:06.872,58.135000000000005,311.32500000000005,-38.78,0.24058400000000002,0.009516,-1.6845759999999999,4
2024-06-14 08:07:06.877,58.625,311.115,-40.879999999999995,0.24034,0.013663999999999999,-1.717272,4
2024-06-14 08:07:06.882,56.769999999999996,310.73,-42.769999999999996,0.244488,0.010735999999999999,-1.7431359999999998,4
2024-06-14 08:07:06.887,53.935,310.205,-44.17,0.246928,-0.014395999999999999,-1.771928,4
2024-06-14 08:07:06.892,51.205,308.875,-44.765,0.257664,-0.05489999999999999,-1.7941319999999998,4
2024-06-14 08:07:06.896,49.84,307.05499999999995,-44.730000000000004,0.26522799999999996,-0.101504,-1.811944,4
2024-06-14 08:07:06.901,49.665000000000006,304.95500000000004,-44.1,0.26961999999999997,-0.146888,-1.829024,4
2024-06-14 08:07:06.906,50.504999999999995,302.12,-43.120000000000005,0.276696,-0.180072,-1.8487879999999999,4
2024-06-14 08:07:06.911,51.135000000000005,298.62,-42.14,0.29499600000000004,-0.20910800000000002,-1.8622079999999999,4
2024-06-14 08:07:06.916,51.38,293.895,-41.545,0.313052,-0.21984399999999998,-1.8829479999999998,4
2024-06-14 08:07:06.921,50.995000000000005,287.98,-41.51,0.332572,-0.228628,-1.9049079999999998,4
2024-06-14 08:07:06.925,50.575,281.225,-41.754999999999995,0.35550800000000005,-0.236192,-1.935408,4
2024-06-14 08:07:06.930,51.205,274.75,-42.385000000000005,0.36648800000000004,-0.240096,-1.9668839999999999,4
2024-06-14 08:07:06.935,53.655,269.395,-43.155,0.38771599999999995,-0.24278,-1.996896,4
2024-06-14 08:07:06.940,59.114999999999995,265.09000000000003,-43.925,0.405772,-0.24766,-2.037156,4
2024-06-14 08:07:06.945,67.935,262.185,-44.38,0.429196,-0.23131200000000002,-2.089372,4
2024-06-14 08:07:06.950,77.38499999999999,260.96000000000004,-45.29,0.45554799999999995,-0.176168,-2.1408560000000003,4
2024-06-14 08:07:06.954,84.245,260.47,-47.915,0.48434,-0.09272,-2.1947799999999997,4
2024-06-14 08:07:06.959,86.625,260.57500000000005,-52.745000000000005,0.52582,0.003172000000000001,-2.2445559999999998,4
2024-06-14 08:07:06.964,84.66499999999999,260.82,-60.269999999999996,0.5626639999999999,0.08662,-2.287012,4
2024-06-14 08:07:06.969,79.975,261.45,-69.545,0.618784,0.136884,-2.324832,4
2024-06-14 08:07:06.974,74.27,262.01,-79.695,0.6932039999999999,0.15982,-2.3567959999999997,4
2024-06-14 08:07:06.979,69.22999999999999,261.975,-90.22999999999999,0.7981240000000001,0.156648,-2.3602119999999998,4
2024-06-14 08:07:06.983,65.52000000000001,260.47,-100.625,0.9262239999999999,0.13639600000000002,-2.3411799999999996,4
2024-06-14 08:07:06.988,62.58,256.76,-110.425,1.081164,0.090768,-2.2965280000000003,4
2024-06-14 08:07:06.993,59.57,250.11,-118.86000000000001,1.251232,0.013663999999999999,-2.227964,4
2024-06-14 08:07:06.998,56.42,239.85500000000002,-124.53,1.4222759999999999,-0.10174799999999999,-2.12158,4
2024-06-14 08:07:07.003,55.825,226.03,-125.50999999999999,1.609912,-0.267668,-2.0171479999999997,4
2024-06-14 08:07:07.007,60.41,210.35000000000002,-120.33,1.855132,-0.42309599999999997,-1.981768,4
2024-06-14 08:07:07.012,68.845,193.795,-109.795,2.07644,-0.5084960000000001,-1.9036879999999998,4
2024-06-14 08:07:07.017,76.825,176.32999999999998,-95.515,2.257244,-0.522404,-1.80926,4
2024-06-14 08:07:07.022,84.10499999999999,159.565,-78.08500000000001,2.442928,-0.470188,-1.719712,4
2024-06-14 08:07:07.027,90.545,143.78,-59.535000000000004,2.63642,-0.33574400000000004,-1.6316279999999999,4
2024-06-14 08:07:07.032,96.63499999999999,127.82,-41.755,2.84016,-0.11663200000000001,-1.5535479999999997,4
2024-06-14 08:07:07.036,102.515,111.61500000000001,-26.285,3.05732,0.17324,-1.4959639999999998,4
2024-06-14 08:07:07.041,105.525,93.94,-15.015,3.2757,0.5529040000000001,-1.468636,4
2024-06-14 08:07:07.046,102.19999999999999,74.445,-9.94,3.454064,0.962824,-1.4596079999999998,4
2024-06-14 08:07:07.051,86.80000000000001,53.095,-11.235,3.543856,1.322968,-1.447652,4
2024-06-14 08:07:07.056,57.08500000000001,29.12,-16.52,3.529948,1.534516,-1.4274,4
2024-06-14 08:07:07.061,16.869999999999997,3.4300000000000006,-22.05,3.414048,1.5264639999999998,-1.39446,4
2024-06-14 08:07:07.065,-25.2,-21.945,-23.415,3.207624,1.291004,-1.372256,4
2024-06-14 08:07:07.070,-59.15,-44.415000000000006,-18.759999999999998,2.9577679999999997,0.933056,-1.348344,4
2024-06-14 08:07:07.075,-81.515,-62.230000000000004,-8.434999999999999,2.685952,0.583892,-1.333216,4
2024-06-14 08:07:07.080,-94.32499999999999,-75.845,5.46,2.419992,0.318176,-1.326384,4
2024-06-14 08:07:07.085,-102.095,-85.68,19.53,2.164524,0.155184,-1.3298,4
2024-06-14 08:07:07.090,-107.66,-93.73,30.485,1.9454120000000001,0.074908,-1.3329719999999998,4
2024-06-14 08:07:07.094,-151.095,-163.765,40.775,1.138992,-1.1284999999999998,-2.952888,0
