time,gyroscope_x,gyroscope_y,gyroscope_z,accelerometer_x,accelerometer_y,accelerometer_z,phase
2024-06-14 08:07:07.800,233.20499999999998,-241.36,0.385,3.8883840000000003,-0.269132,-1.540128,1
2024-06-14 08:07:07.805,238.84,-244.72,-13.405000000000001,1.4247159999999999,-0.372832,-1.2478159999999998,1
2024-06-14 08:07:07.810,182.42000000000002,-256.97,-22.365,0.129564,-0.28792,-1.70068,1
2024-06-14 08:07:07.815,145.04000000000002,-233.275,-13.86,-1.011868,0.23887600000000003,-1.7577759999999998,1
2024-06-14 08:07:07.820,108.08,-215.425,-1.61,-0.928908,0.26596,-1.909544,1
2024-06-14 08:07:07.824,95.235,-215.18,13.125,-0.498248,0.197396,-1.915644,1
2024-06-14 08:07:07.829,86.205,-236.775,25.095,0.044896,0.007564000000000001,-2.149152,1
2024-06-14 08:07:07.834,69.545,-240.275,33.04,0.2684,-0.189344,-2.086444,1
2024-06-14 08:07:07.839,38.08,-240.73000000000002,38.885000000000005,0.17177599999999998,-0.423096,-2.125972,1
2024-06-14 08:07:07.844,16.03,-219.065,38.254999999999995,0.059292,-0.5472919999999999,-2.140368,1
2024-06-14 08:07:07.848,8.015,-192.5,22.89,0.075152,-0.643184,-2.236992,1
2024-06-14 08:07:07.853,3.99,-156.555,-0.6999999999999997,0.062952,-0.449692,-2.10206,1
2024-06-14 08:07:07.858,2.17,-130.865,-17.535,0.018544,-0.276452,-1.901736,1
2024-06-14 08:07:07.863,-1.61,-117.18,-22.435,-0.009272,-0.09223200000000001,-1.71654,1
2024-06-14 08:07:07.868,-1.12,-101.255,-15.855,0.005856,0.137616,-1.6116199999999998,1
2024-06-14 08:07:07.872,-4.55,-98.97999999999999,-5.285,0.025376,0.213012,-1.47864,1
2024-06-14 08:07:07.877,-3.5,-80.63999999999999,2.1,0.027083999999999997,0.17812,-1.493036,1
2024-06-14 08:07:07.882,3.5,-66.71,7.84,0.016836,0.24936799999999998,-1.288076,1
2024-06-14 08:07:07.887,11.445,-60.620000000000005,10.254999999999999,0.018056,0.14396,-1.2370800000000002,1
2024-06-14 08:07:07.892,19.39,-51.73,8.47,0.019032,0.076128,-1.187304,1
2024-06-14 08:07:07.894,24.115000000000002,-47.04,7.49,-0.015372,0.06466,-1.091412,1
2024-06-14 08:07:07.898,25.759999999999998,-38.01,6.965,0.010736,0.0305,-1.0882399999999999,1
2024-06-14 08:07:07.903,27.93,-31.255000000000003,7.455,0.021959999999999997,0.042943999999999996,-1.046516,1
2024-06-14 08:07:07.908,29.785,-23.625,6.545,0.01586,0.022448,-1.057252,2
2024-06-14 08:07:07.913,35.06999999999999,-19.95,4.234999999999999,-0.010003999999999999,0.005856,-1.0906799999999999,2
2024-06-14 08:07:07.918,37.59,-18.69,2.31,0.010248,-0.043188,-1.127036,2
2024-06-14 08:07:07.923,36.225,-20.195,2.205,-0.001464,-0.050752,-1.131184,2
2024-06-14 08:07:07.927,33.11,-22.855,3.115,-0.042944,-0.040504,-1.128012,2
2024-06-14 08:07:07.932,30.485,-25.759999999999998,3.535,-0.050508,-0.02562,-1.1385040000000002,2
2024-06-14 08:07:07.937,28.314999999999998,-27.615000000000002,2.555,-0.068076,-0.033916,-1.128012,2
2024-06-14 08:07:07.942,26.494999999999997,-28.735,0.595,-0.07564,-0.04026,-1.131672,2
2024-06-14 08:07:07.947,24.115000000000002,-29.61,-0.56,-0.051239999999999994,-0.047824,-1.1346,2
2024-06-14 08:07:07.952,20.825,-32.269999999999996,-0.8400000000000001,-0.050508,-0.04367599999999999,-1.123132,2
2024-06-14 08:07:07.956,17.535,-36.400000000000006,-0.8049999999999999,-0.063196,-0.043676000000000006,-1.114348,2
2024-06-14 08:07:07.961,14.245000000000001,-40.31999999999999,-0.98,-0.080764,-0.063928,-1.103124,2
2024-06-14 08:07:07.966,11.235,-43.19,-1.645,-0.08515599999999998,-0.06709999999999999,-1.1016599999999999,2
2024-06-14 08:07:07.971,8.19,-45.08,-1.8900000000000001,-0.06466,-0.057828,-1.106052,2
2024-06-14 08:07:07.976,5.5649999999999995,-45.5,-2.065,-0.049044000000000004,-0.043432,-1.1043439999999998,2
2024-06-14 08:07:07.981,3.465,-44.765,-2.38,-0.036112,-0.039528,-1.0918999999999999,2
2024-06-14 08:07:07.985,1.26,-43.995000000000005,-2.31,-0.038064,-0.041968,-1.0735999999999999,2
2024-06-14 08:07:07.990,-0.525,-43.12,-2.275,-0.040260000000000004,-0.047824,-1.069452,2
2024-06-14 08:07:07.995,-2.45,-42.105000000000004,-2.24,-0.030987999999999995,-0.051484,-1.062864,2
2024-06-14 08:07:08.000,-4.165,-40.915,-2.065,-0.021471999999999998,-0.047092,-1.068476,2
2024-06-14 08:07:08.005,-5.25,-41.195,-1.8900000000000001,-0.014884,-0.039040000000000005,-1.0675,2
2024-06-14 08:07:08.010,-4.62,-37.625,-1.26,-0.00976,-0.03782,-1.0631080000000002,2
2024-06-14 08:07:08.014,-4.095,-35.735,-0.595,-0.014883999999999998,-0.044164,-1.057252,2
2024-06-14 08:07:08.019,-5.845,-36.295,-0.45499999999999996,-0.015372,-0.034892,-1.06384,2
2024-06-14 08:07:08.024,-6.16,-36.26,-0.45499999999999996,-0.01464,-0.019276,-1.063352,2
2024-06-14 08:07:08.029,-6.3,-36.19,-0.665,-0.009271999999999999,-0.005124,-1.054812,2
2024-06-14 08:07:08.034,-5.8100000000000005,-35.35,-0.875,-0.008784,0.00366,-1.051396,2
2024-06-14 08:07:08.039,-5.25,-34.474999999999994,-1.33,-0.0009759999999999999,0.009271999999999999,-1.038708,2
2024-06-14 08:07:08.043,-4.725,-35.735,-1.89,0.00122,0.019276,-1.041636,2
2024-06-14 08:07:08.048,-3.6049999999999995,-33.18,-2.5199999999999996,0.0026839999999999998,0.021472,-1.04188,2
2024-06-14 08:07:08.053,-1.8199999999999998,-34.055,-2.66,0.0068319999999999995,0.023668,-1.046272,2
2024-06-14 08:07:08.058,-0.07,-33.075,-3.1500000000000004,0.009760000000000001,0.017811999999999998,-1.041636,2
2024-06-14 08:07:08.063,0.735,-32.69,-3.465,0.010735999999999999,0.009272,-1.040416,2
2024-06-14 08:07:08.068,1.7850000000000001,-34.65,-3.535,0.016348,-0.005856,-1.040172,2
2024-06-14 08:07:08.072,-0.21000000000000002,-34.125,-3.745,0.016348,-0.022448,-1.042368,2
2024-06-14 08:07:08.077,-1.8199999999999998,-22.715,-4.095000000000001,0.021716,-0.02806,-1.047736,2
2024-06-14 08:07:08.082,-3.255,-33.985,-3.5700000000000003,0.019276,-0.02928,-1.061156,2
2024-06-14 08:07:08.087,-5.145,-35.42,-3.325,0.021471999999999998,-0.023424,-1.06628,2
2024-06-14 08:07:08.092,-2.52,-35.805,-2.9050000000000002,0.0122,-0.01464,-1.0765280000000002,2
2024-06-14 08:07:08.097,-1.75,-36.05,-3.4299999999999997,0.009271999999999999,0.002684,-1.0784799999999999,2
2024-06-14 08:07:08.101,0.56,-36.085,-3.8150000000000004,0.011467999999999999,0.011956000000000001,-1.0804319999999998,2
2024-06-14 08:07:08.106,3.6399999999999997,-36.75,-3.745,0.021716,0.018300000000000004,-1.078236,2
2024-06-14 08:07:08.111,6.055,-36.54,-4.095,0.027572,0.019032,-1.0760399999999999,2
2024-06-14 08:07:08.116,8.365,-36.504999999999995,-4.515000000000001,0.036844,0.019032,-1.0679880000000002,2
2024-06-14 08:07:08.121,10.045,-36.400000000000006,-4.970000000000001,0.042455999999999994,0.016348,-1.05896,2
2024-06-14 08:07:08.126,11.620000000000001,-36.015,-5.074999999999999,0.048799999999999996,0.00732,-1.053348,2
2024-06-14 08:07:08.131,11.899999999999999,-34.86,-5.18,0.0549,0.00024399999999999986,-1.048956,2
2024-06-14 08:07:08.135,12.530000000000001,-34.05500000000001,-5.075,0.057095999999999994,-0.008296,-1.0460279999999997,2
2024-06-14 08:07:08.140,14.28,-31.464999999999996,-5.285,0.054168,-0.016104,-1.0421239999999998,3
2024-06-14 08:07:08.145,12.46,-32.935,-5.355,0.062952,-0.009271999999999999,-1.043832,3
2024-06-14 08:07:08.150,12.530000000000001,-32.97,-4.83,0.066368,-0.018299999999999997,-1.0431,3
2024-06-14 08:07:08.155,12.39,-32.620000000000005,-4.515000000000001,0.066368,-0.028303999999999996,-1.0433439999999998,3
2024-06-14 08:07:08.160,11.829999999999998,-32.410000000000004,-4.305,0.071736,-0.037088,-1.054812,3
2024-06-14 08:07:08.164,11.41,-32.305,-4.34,0.07686,-0.040015999999999996,-1.0570080000000002,3
2024-06-14 08:07:08.169,10.745000000000001,-32.095,-3.8150000000000004,0.07344400000000001,-0.031476,-1.051152,3
2024-06-14 08:07:08.174,10.885,-31.78,-3.465,0.070516,-0.032208,-1.053348,3
2024-06-14 08:07:08.179,9.73,-32.62,-3.325,0.077348,-0.033184,-1.055544,3
2024-06-14 08:07:08.184,10.57,-32.515,-3.395,0.079544,-0.029524,-1.0592039999999998,3
2024-06-14 08:07:08.189,11.165,-32.760000000000005,-3.1500000000000004,0.088816,-0.030987999999999998,-1.063352,3
2024-06-14 08:07:08.193,11.375,-33.18,-2.66,0.08369199999999999,-0.030744,-1.058716,3
2024-06-14 08:07:08.198,11.76,-32.83,-2.45,0.085644,-0.024888,-1.058228,3
2024-06-14 08:07:08.203,11.76,-33.285,-2.3449999999999998,0.088328,-0.019764,-1.0531039999999998,3
2024-06-14 08:07:08.208,12.075,-33.215,-2.66,0.09662399999999999,-0.024156,-1.053348,3
2024-06-14 08:07:08.213,11.445,-33.39,-2.59,0.10248,-0.033428,-1.04798,3
2024-06-14 08:07:08.218,10.115,-33.39,-2.31,0.10516400000000001,-0.040260000000000004,-1.045052,3
2024-06-14 08:07:08.222,8.505,-33.775000000000006,-2.135,0.107116,-0.045384,-1.0470039999999998,3
2024-06-14 08:07:08.227,6.02,-33.845,-2.135,0.1159,-0.056364,-1.050176,3
2024-06-14 08:07:08.232,1.19,-34.195,-1.96,0.119316,-0.065636,-1.056276,3
2024-06-14 08:07:08.237,-2.31,-34.405,-1.6099999999999999,0.12078,-0.073932,-1.0584719999999999,3
2024-06-14 08:07:08.242,-5.915,-34.86,-1.085,0.12273200000000001,-0.08174000000000001,-1.069696,3
2024-06-14 08:07:08.247,-8.12,-35.0,-0.42,0.11760799999999999,-0.080764,-1.076772,3
2024-06-14 08:07:08.251,-9.765,-34.894999999999996,-0.10500000000000001,0.119804,-0.064416,-1.0894599999999999,3
2024-06-14 08:07:08.256,-10.149999999999999,-34.825,0.28,0.116144,-0.060267999999999995,-1.104832,3
2024-06-14 08:07:08.261,-9.835,-36.4,0.63,0.11346,-0.030743999999999997,-1.109712,3
2024-06-14 08:07:08.266,-8.190000000000001,-34.93,0.42,0.119072,-0.013908,-1.1040999999999999,3
2024-06-14 08:07:08.271,-6.65,-35.595,0.07,0.122,0.005856,-1.098488,3
2024-06-14 08:07:08.276,-4.585,-35.945,-0.31500000000000006,0.122244,0.012688,-1.085556,3
2024-06-14 08:07:08.280,-3.36,-36.365,-0.875,0.130784,0.005856,-1.0750640000000002,3
2024-06-14 08:07:08.285,-1.715,-35.385,-1.4700000000000002,0.14713199999999999,-0.002196,-1.063596,3
2024-06-14 08:07:08.290,-0.98,-34.02,-1.96,0.14932800000000002,-0.012444,-1.0570079999999997,3
2024-06-14 08:07:08.295,-0.8400000000000001,-33.32,-2.205,0.152012,-0.030011999999999997,-1.056276,3
2024-06-14 08:07:08.300,-1.225,-32.864999999999995,-2.0999999999999996,0.15176800000000001,-0.038064,-1.06018,3
2024-06-14 08:07:08.305,-2.31,-33.144999999999996,-2.135,0.152256,-0.031964,-1.06628,3
2024-06-14 08:07:08.309,-2.66,-33.46,-2.065,0.15128000000000003,-0.029523999999999998,-1.064816,3
2024-06-14 08:07:08.314,-2.7649999999999997,-34.545,-2.135,0.15201199999999998,-0.019276,-1.074088,3
2024-06-14 08:07:08.319,-2.94,-35.525,-2.38,0.15616,-0.019032,-1.081896,3
2024-06-14 08:07:08.324,-3.185,-36.96,-2.415,0.15884399999999999,-0.029036,-1.0943399999999999,3
2024-06-14 08:07:08.329,-3.9899999999999998,-38.745,-2.24,0.159576,-0.039040000000000005,-1.1114199999999999,3
2024-06-14 08:07:08.334,-5.04,-41.09,-2.065,0.161772,-0.049288,-1.132648,3
2024-06-14 08:07:08.339,-6.16,-43.225,-1.575,0.16006399999999998,-0.046604,-1.145336,3
2024-06-14 08:07:08.343,-7.3149999999999995,-46.129999999999995,-1.295,0.165676,-0.040992,-1.166076,3
2024-06-14 08:07:08.348,-8.120000000000001,-49.14,-1.085,0.15982000000000002,-0.033672,-1.188524,3
2024-06-14 08:07:08.353,-8.61,-52.43,-1.26,0.15811199999999997,-0.013663999999999999,-1.205604,3
2024-06-14 08:07:08.358,-8.190000000000001,-56.06999999999999,-1.435,0.16616399999999998,-0.00976,-1.20658,3
2024-06-14 08:07:08.363,-7.805,-59.849999999999994,-1.8199999999999998,0.163236,-0.004148000000000001,-1.22122,3
2024-06-14 08:07:08.368,-7.175,-63.769999999999996,-1.9249999999999998,0.16713999999999998,-0.013663999999999999,-1.2258559999999998,3
2024-06-14 08:07:08.372,-6.79,-68.32,-1.7850000000000001,0.17592400000000002,-0.008052,-1.233908,3
2024-06-14 08:07:08.377,-6.65,-72.555,-2.17,0.180316,-0.017324,-1.2468400000000002,3
2024-06-14 08:07:08.382,-6.65,-77.28,-2.17,0.184952,-0.0046359999999999995,-1.247328,3
2024-06-14 08:07:08.387,-7.28,-82.03999999999999,-2.8,0.1891,-0.01098,-1.253672,3
2024-06-14 08:07:08.392,-7.875,-87.045,-3.29,0.188612,-0.00976,-1.260992,3
2024-06-14 08:07:08.397,-7.14,-91.805,-3.675,0.189832,-0.002927999999999999,-1.2805119999999999,3
2024-06-14 08:07:08.401,-6.02,-97.22999999999999,-4.199999999999999,0.18690400000000001,-0.0031720000000000008,-1.290516,3
2024-06-14 08:07:08.406,-3.99,-102.75999999999999,-4.27,0.20178799999999997,0.0002440000000000003,-1.3005200000000001,3
2024-06-14 08:07:08.411,-3.955,-109.935,-5.005000000000001,0.200324,0.036844,-1.3232119999999998,3
2024-06-14 08:07:08.416,-4.48,-117.18,-6.475,0.207156,0.041724,-1.345904,3
2024-06-14 08:07:08.421,-4.795,-124.845,-7.734999999999999,0.205936,0.041724,-1.3683519999999998,3
2024-06-14 08:07:08.426,-5.53,-132.86,-9.24,0.210084,0.025132,-1.41154,3
2024-06-14 08:07:08.430,-5.984999999999999,-142.345,-9.905000000000001,0.209596,0.012444,-1.4630239999999999,3
2024-06-14 08:07:08.435,-7.35,-152.075,-10.885,0.214476,0.02196,-1.495232,3
2024-06-14 08:07:08.440,-9.379999999999999,-162.75,-12.145,0.215208,0.009759999999999998,-1.549156,3
2024-06-14 08:07:08.446,-10.325,-173.35500000000002,-12.705,0.20666800000000002,-0.022692,-1.6030799999999998,3
2024-06-14 08:07:08.451,-11.445,-184.8,-13.405000000000001,0.199592,0.008783999999999998,-1.602592,3
2024-06-14 08:07:08.456,-15.12,-197.155,-15.085,0.20569199999999999,0.036356,-1.6287,3
2024-06-14 08:07:08.460,-18.725,-209.86,-17.115000000000002,0.206668,0.02684,-1.656028,3
2024-06-14 08:07:08.465,-21.035,-222.985,-18.9,0.19080799999999998,0.024156,-1.675548,3
2024-06-14 08:07:08.470,-25.515,-236.46,-20.72,0.181048,0.009271999999999999,-1.704584,3
2024-06-14 08:07:08.475,-29.82,-248.255,-22.155,0.177632,0.004636,-1.769976,3
2024-06-14 08:07:08.480,-34.65,-263.2,-23.765,0.18544,-0.006344000000000001,-1.7748560000000002,3
2024-06-14 08:07:08.485,-36.645,-279.475,-24.71,0.1891,-0.018056,-1.8585479999999999,3
2024-06-14 08:07:08.489,-37.55500000000001,-297.675,-25.655,0.20495999999999998,-0.005368,-1.9127159999999999,3
2024-06-14 08:07:08.494,-37.59,-314.055,-26.564999999999998,0.21105999999999997,0.0024400000000000003,-2.035692,3
2024-06-14 08:07:08.499,-37.135,-328.79,-26.985,0.216428,0.09320799999999999,-2.00568,3
2024-06-14 08:07:08.504,-38.535,-348.39,-29.085,0.256932,0.18690400000000001,-2.052284,3
2024-06-14 08:07:08.509,-37.94,-363.09000000000003,-31.744999999999997,0.318908,0.188612,-2.2423599999999997,3
2024-06-14 08:07:08.514,-37.765,-374.57,-33.04,0.414312,0.21984399999999998,-2.35094,3
2024-06-14 08:07:08.518,-38.885,-387.1,-34.93,0.407968,0.31964,-2.481236,3
2024-06-14 08:07:08.523,-43.435,-394.45000000000005,-38.57,0.392108,0.439444,-2.54126,3
2024-06-14 08:07:08.528,-51.17,-399.35,-44.625,0.45384,0.465064,-2.5864000000000003,3
2024-06-14 08:07:08.533,-53.9,-402.71,-50.224999999999994,0.202764,0.494832,-2.542968,3
2024-06-14 08:07:08.538,-58.135,-403.30499999999995,-58.239999999999995,0.007319999999999997,0.536312,-2.4583,3
2024-06-14 08:07:08.542,-56.875,-400.89,-67.935,0.0004880000000000023,0.593652,-2.386564,3
2024-06-14 08:07:08.547,-55.895,-402.815,-78.715,-0.06197599999999999,0.606096,-2.32532,3
2024-06-14 08:07:08.552,-54.25,-402.15,-91.17500000000001,-0.11101999999999998,0.6475759999999999,-2.0683879999999997,3
2024-06-14 08:07:08.557,-50.19,-406.21000000000004,-107.1,0.09028,0.631716,-1.764364,3
2024-06-14 08:07:08.562,-31.534999999999997,-414.82,-116.305,0.337696,0.6405000000000001,-1.7297159999999998,3
2024-06-14 08:07:08.567,-28.735,-422.975,-121.16999999999999,0.389912,0.7522519999999999,-1.663592,3
2024-06-14 08:07:08.571,-50.96,-424.48,-128.31,0.372832,1.02236,-1.573312,3
2024-06-14 08:07:08.576,-92.015,-416.71000000000004,-139.195,0.293532,1.154364,-1.582584,3
2024-06-14 08:07:08.581,-141.05,-403.76,-151.865,0.228872,1.162416,-1.6472440000000002,3
2024-06-14 08:07:08.586,-185.43,-389.62,-167.58,-0.09418399999999999,1.05164,-1.568432,3
2024-06-14 08:07:08.591,-215.565,-366.695,-184.38,-0.28303999999999996,0.8264279999999999,-1.4600959999999998,3
2024-06-14 08:07:08.596,-228.97,-337.4,-201.74,-0.404308,0.595604,-1.309304,3
2024-06-14 08:07:08.600,-224.42000000000002,-308.315,-217.7,-0.571692,0.34843199999999996,-1.094096,3
2024-06-14 08:07:08.605,-202.195,-272.895,-225.785,-0.59902,0.08051999999999998,-0.852048,3
2024-06-14 08:07:08.610,-168.35,-237.23,-213.885,-0.9323239999999999,-0.12322,-0.668804,3
2024-06-14 08:07:08.615,-124.63499999999999,-198.765,-184.065,-0.21984399999999998,-0.26522799999999996,-0.40113600000000005,3
2024-06-14 08:07:08.620,-85.155,-150.605,-155.71499999999997,-0.403332,-0.47262799999999994,-0.842776,3
2024-06-14 08:07:08.625,-52.01,-63.42,-118.26499999999999,-1.0018639999999999,-0.585844,-0.60756,3
2024-06-14 08:07:08.629,-14.385,4.375,-67.41,-1.157048,-0.536312,-0.28669999999999995,3
2024-06-14 08:07:08.634,15.260000000000002,58.660000000000004,-20.405,-0.978928,-0.382348,-0.39161999999999997,3
2024-06-14 08:07:08.639,37.870000000000005,106.53999999999999,14.0,-0.724192,-0.2562,-0.58194,3
2024-06-14 08:07:08.644,53.585,145.845,41.755,-0.631228,-0.136152,-0.64904,3
2024-06-14 08:07:08.649,60.795,175.875,63.07,-0.619028,0.008784,-0.640988,3
2024-06-14 08:07:08.654,58.94,198.275,76.02,-0.550708,0.137128,-0.6283000000000001,3
2024-06-14 08:07:08.658,53.269999999999996,213.78,82.03999999999999,-0.45506,0.20935199999999998,-0.634644,3
2024-06-14 08:07:08.663,46.165,224.10500000000002,83.44,-0.387228,0.252052,-0.66124,3
2024-06-14 08:07:08.668,36.505,229.985,80.815,-0.34282,0.282308,-0.667828,3
2024-06-14 08:07:08.673,25.095,232.75,75.25,-0.304024,0.29158,-0.641964,3
2024-06-14 08:07:08.678,14.98,232.785,67.83,-0.26352,0.26961999999999997,-0.6068279999999999,3
2024-06-14 08:07:08.682,7.140000000000001,230.65,59.36,-0.226432,0.23668,-0.5916999999999999,3
2024-06-14 08:07:08.687,1.575,227.5,50.295,-0.200324,0.207156,-0.595116,3
2024-06-14 08:07:08.692,-2.8,224.56,40.739999999999995,-0.18080400000000002,0.193736,-0.6131719999999999,4
2024-06-14 08:07:08.697,-5.984999999999999,223.47500000000002,31.255000000000003,-0.169824,0.174704,-0.6148799999999999,4
2024-06-14 08:07:08.702,-7.455,224.91,22.189999999999998,-0.183244,0.134444,-0.60024,4
2024-06-14 08:07:08.707,-7.525,229.04000000000002,13.684999999999999,-0.202764,0.09272,-0.593408,4
2024-06-14 08:07:08.711,-5.635,235.55,5.914999999999999,-0.202032,0.05831599999999999,-0.612684,4
2024-06-14 08:07:08.716,-1.715,243.35500000000002,-0.9450000000000001,-0.19397999999999999,0.025132,-0.651724,4
2024-06-14 08:07:08.721,3.255,251.895,-6.859999999999999,-0.192516,-0.00732,-0.6958880000000001,4
2024-06-14 08:07:08.726,8.575,261.765,-11.445,-0.20569199999999999,-0.027327999999999998,-0.73322,4
2024-06-14 08:07:08.731,14.245000000000001,272.44,-14.735,-0.216916,-0.044163999999999995,-0.761768,4
2024-06-14 08:07:08.736,19.950000000000003,283.15,-16.729999999999997,-0.22350399999999998,-0.05978,-0.7969040000000001,4
2024-06-14 08:07:08.740,25.305,293.44,-17.884999999999998,-0.221552,-0.064416,-0.837896,4
2024-06-14 08:07:08.745,29.645,302.015,-18.235,-0.210816,-0.059292,-0.8686400000000001,4
2024-06-14 08:07:08.750,32.305,308.49,-18.2,-0.18178,-0.044652,-0.888648,4
2024-06-14 08:07:08.755,32.655,313.005,-17.884999999999998,-0.15176800000000001,-0.029767999999999996,-0.91988,4
2024-06-14 08:07:08.760,30.66,315.84,-17.115000000000002,-0.126636,-0.008784,-0.942572,4
2024-06-14 08:07:08.765,27.16,317.135,-15.785,-0.095892,0.014884000000000001,-0.9603839999999999,4
2024-06-14 08:07:08.769,22.61,316.505,-14.0,-0.064904,0.016592,-0.9725839999999999,4
2024-06-14 08:07:08.774,17.185000000000002,313.845,-11.55,-0.025864,0.020252,-0.998448,4
2024-06-14 08:07:08.779,10.885,309.085,-8.75,0.012931999999999999,0.031964,-1.023336,4
2024-06-14 08:07:08.784,3.675,302.68,-5.635,0.043188,0.049288,-1.050176,4
2024-06-14 08:07:08.789,-4.970000000000001,295.015,-2.24,0.06831999999999999,0.07246799999999999,-1.078236,4
2024-06-14 08:07:08.794,-14.84,287.595,1.3650000000000002,0.08857199999999998,0.08784,-1.113616,4
2024-06-14 08:07:08.798,-25.060000000000002,280.77,5.18,0.10736,0.09101200000000001,-1.157048,4
2024-06-14 08:07:08.803,-34.3,275.65999999999997,9.73,0.10492,0.071004,-1.1880359999999999,4
2024-06-14 08:07:08.808,-41.195,272.23,15.54,0.102236,0.045628,-1.212924,4
2024-06-14 08:07:08.813,-44.555,270.235,22.015,0.11102,0.024888,-1.257332,4
2024-06-14 08:07:08.818,-45.29,269.045,29.295,0.131272,0.012199999999999999,-1.3171119999999998,4
2024-06-14 08:07:08.823,-44.730000000000004,268.69500000000005,37.345,0.153964,0.009516,-1.3644479999999999,4
2024-06-14 08:07:08.827,-43.89,268.765,45.64,0.16714,0.024156,-1.3929960000000001,4
2024-06-14 08:07:08.832,-43.785,269.53499999999997,53.41,0.173484,0.05124,-1.4254479999999998,4
2024-06-14 08:07:08.837,-45.29,270.9,60.584999999999994,0.19154,0.07808,-1.462536,4
2024-06-14 08:07:08.842,-48.09,272.65,66.99,0.205204,0.104432,-1.498648,4
2024-06-14 08:07:08.847,-51.31,274.365,72.52000000000001,0.215696,0.113948,-1.5325639999999998,4
2024-06-14 08:07:08.851,-54.635,276.255,77.0,0.226676,0.114924,-1.5755080000000001,4
2024-06-14 08:07:08.856,-57.435,277.655,80.815,0.25351599999999996,0.111264,-1.6079599999999998,4
2024-06-14 08:07:08.861,-59.185,278.28499999999997,83.78999999999999,0.27376799999999996,0.09564800000000001,-1.64212,4
2024-06-14 08:07:08.866,-59.92,278.28499999999997,85.995,0.305732,0.075152,-1.674328,4
2024-06-14 08:07:08.871,-59.885000000000005,277.62,87.28999999999999,0.339648,0.060023999999999994,-1.699948,4
2024-06-14 08:07:08.876,-59.64,275.87,87.57,0.37063599999999997,0.047091999999999995,-1.722152,4
2024-06-14 08:07:08.880,-59.43,273.91,86.975,0.40869999999999995,0.029767999999999996,-1.7465519999999999,4
2024-06-14 08:07:08.885,-59.325,271.565,85.68,0.456768,0.004636,-1.769976,4
2024-06-14 08:07:08.890,-58.45,268.24,84.035,0.5253319999999999,-0.02928,-1.7904719999999998,4
2024-06-14 08:07:08.895,-56.7,264.28499999999997,82.11,0.595604,-0.05612,-1.820728,4
2024-06-14 08:07:08.900,-54.81,258.96500000000003,80.04499999999999,0.678808,-0.06709999999999999,-1.847812,4
2024-06-14 08:07:08.905,-53.235,252.665,78.05,0.76982,-0.073444,-1.87392,4
2024-06-14 08:07:08.909,-51.66,245.84,76.33500000000001,0.867908,-0.087352,-1.8971,4
2024-06-14 08:07:08.914,-49.28,238.76999999999998,75.495,0.978196,-0.093208,-1.909544,4
2024-06-14 08:07:08.919,-45.92,230.93,75.775,1.0796999999999999,-0.101748,-1.9215,4
2024-06-14 08:07:08.924,-41.055,222.32,76.93,1.192428,-0.10931199999999999,-1.92028,4
2024-06-14 08:07:08.929,-36.33,214.235,78.64500000000001,1.278804,-0.09540399999999999,-1.9261359999999998,4
2024-06-14 08:07:08.934,-33.879999999999995,208.635,80.28999999999999,1.338828,-0.036844,-1.9283319999999997,4
2024-06-14 08:07:08.938,-33.81,205.835,82.075,1.3854319999999998,0.031476,-1.914424,4
2024-06-14 08:07:08.943,-34.79,205.415,84.49000000000001,1.4327679999999998,0.08881599999999999,-1.888316,4
2024-06-14 08:07:08.948,-35.42,205.31,87.15,1.488156,0.133224,-1.8646479999999999,4
2024-06-14 08:07:08.953,-35.63,204.4,89.495,1.546716,0.18836799999999998,-1.832928,4
2024-06-14 08:07:08.958,-36.155,202.3,90.86,1.5945399999999998,0.265716,-1.776808,4
2024-06-14 08:07:08.963,-37.765,197.54000000000002,90.545,1.639924,0.338916,-1.6884799999999998,4
2024-06-14 08:07:08.967,-42.21,189.735,87.64,1.690432,0.401624,-1.610644,4
2024-06-14 08:07:08.972,-50.89,179.06,81.55,1.77266,0.438712,-1.5645280000000001,4
2024-06-14 08:07:08.977,-61.495,166.04000000000002,72.345,1.852204,0.42602399999999996,-1.5069439999999998,4
2024-06-14 08:07:08.982,-70.735,150.64,61.635,1.921256,0.354288,-1.4632679999999998,4
2024-06-14 08:07:08.987,-77.14,134.32999999999998,50.855,1.987868,0.254492,-1.4171519999999997,4
2024-06-14 08:07:08.991,-80.36,117.53,41.16,2.03618,0.136396,-1.389336,4
2024-06-14 08:07:08.995,-82.005,101.00999999999999,33.215,2.068144,0.02074,-1.353224,4
2024-06-14 08:07:09.000,-82.81,85.12,26.915,2.082052,-0.09052400000000001,-1.308328,4
2024-06-14 08:07:09.005,-82.285,70.455,22.19,2.088396,-0.20666800000000002,-1.275144,4
2024-06-14 08:07:09.010,-80.045,57.224999999999994,18.725,2.093276,-0.325252,-1.238788,4
2024-06-14 08:07:09.015,-75.11,45.535,16.1,2.096204,-0.430416,-1.2002359999999999,4
2024-06-14 08:07:09.020,-67.655,35.28,13.86,2.1045,-0.514352,-1.1807159999999999,4
2024-06-14 08:07:09.024,-58.135,26.564999999999998,12.145,2.1145039999999997,-0.5797439999999999,-1.156316,4
2024-06-14 08:07:09.029,-45.010000000000005,17.115000000000002,10.815,2.3477680000000003,-0.634644,-0.92598,4
2024-06-14 08:07:09.034,59.745000000000005,-77.42,27.545,3.7463759999999997,-1.5606239999999998,-1.870992,4
2024-06-14 08:07:09.039,96.39,-83.93,27.055,2.9733840000000002,-1.081896,-0.703696,4
2024-06-14 08:07:09.044,150.885,-126.07,16.17,3.057076,-0.38893599999999995,-0.6490400000000001,4
2024-06-14 08:07:09.049,159.67,-168.35,-1.0499999999999998,3.765408,-0.343308,-1.3244319999999998,4
