time,gyroscope_x,gyroscope_y,gyroscope_z,accelerometer_x,accelerometer_y,accelerometer_z,phase
2024-06-14 12:56:25.561,165.095,-432.32,53.235,6.056324,-3.1375960000000003,-4.51278,1
2024-06-14 12:56:25.566,119.97999999999999,-344.05,42.42,-0.38259199999999993,-0.021716000000000013,-0.8088599999999999,1
2024-06-14 12:56:25.571,122.99000000000001,-348.88,26.880000000000003,-2.7367039999999996,0.4404199999999999,2.5046599999999994,1
2024-06-14 12:56:25.576,230.54500000000002,-438.235,15.085,-0.38917999999999997,0.574864,-0.9455,1
2024-06-14 12:56:25.581,253.39999999999998,-453.25,11.2,-0.517768,-0.076128,-2.149152,1
2024-06-14 12:56:25.586,230.475,-453.18,16.59,-0.183732,-0.099796,-1.391044,1
2024-06-14 12:56:25.590,197.785,-449.925,24.36,0.5575399999999999,-0.009027999999999998,-1.4793720000000001,1
2024-06-14 12:56:25.595,176.435,-419.72,37.135,0.8120320000000001,-0.16957999999999998,-1.8299999999999998,1
2024-06-14 12:56:25.600,76.37,-390.91499999999996,41.58,0.816668,-0.44432400000000005,-1.688724,1
2024-06-14 12:56:25.605,82.91499999999999,-332.92,39.375,0.495564,-0.559004,-2.086932,1
2024-06-14 12:56:25.610,88.34,-312.58500000000004,20.09,0.17324,-0.49166,-2.1981960000000003,1
2024-06-14 12:56:25.615,109.62,-314.72,8.33,0.073444,-0.55144,-2.790628,1
2024-06-14 12:56:25.619,48.230000000000004,-283.395,2.17,0.32574,-0.359168,-2.80356,1
2024-06-14 12:56:25.624,27.545,-233.065,2.6950000000000003,0.376492,-0.3477,-2.655696,1
2024-06-14 12:56:25.629,5.7749999999999995,-173.53,-0.03500000000000003,0.379908,-0.09759999999999999,-2.347524,1
2024-06-14 12:56:25.634,0.665,-122.42999999999999,-5.18,0.38064,-0.21325599999999997,-1.93858,1
2024-06-14 12:56:25.639,6.405,-81.83,-6.125,0.438468,0.12614799999999998,-1.640168,1
2024-06-14 12:56:25.644,-6.125,-51.03,-2.59,0.315248,-0.010248,-1.271484,1
2024-06-14 12:56:25.648,-0.56,-35.91,1.295,0.25912799999999997,0.028059999999999998,-1.186816,1
2024-06-14 12:56:25.653,-6.3,-26.355,0.9450000000000001,0.09394,0.00976,-1.148996,1
2024-06-14 12:56:25.658,1.19,-17.85,1.96,-0.008296,-0.005856,-1.0821399999999999,2
2024-06-14 12:56:25.663,-2.87,-13.86,2.485,-0.075884,0.013907999999999998,-1.017724,2
2024-06-14 12:56:25.668,0.7,-13.265,1.9249999999999998,-0.07441999999999999,0.032695999999999996,-0.986248,2
2024-06-14 12:56:25.673,-0.49,-8.82,0.38499999999999995,-0.025619999999999997,0.018788,-0.9577,2
2024-06-14 12:56:25.677,-0.805,-0.5249999999999999,0.315,-0.00854,0.013420000000000001,-0.953552,2
2024-06-14 12:56:25.682,0.3849999999999999,8.015,0.28,-0.013664,0.02318,-0.99186,2
2024-06-14 12:56:25.687,-1.295,16.45,0.17500000000000002,0.0034159999999999998,0.0183,-1.006012,2
2024-06-14 12:56:25.692,0.175,17.744999999999997,0.45499999999999996,-0.010004,0.017079999999999998,-1.028948,2
2024-06-14 12:56:25.697,-1.0150000000000001,15.225000000000001,0.35000000000000003,-0.027327999999999998,0.00488,-1.042856,2
2024-06-14 12:56:25.702,-0.77,12.18,0.595,-0.035135999999999994,-0.0075639999999999995,-1.05042,2
2024-06-14 12:56:25.706,-2.415,8.575,0.77,-0.037088,0.0046359999999999995,-1.051884,2
2024-06-14 12:56:25.711,-2.275,5.32,0.8400000000000001,-0.041968000000000005,0.009516,-1.037488,2
2024-06-14 12:56:25.716,-3.1849999999999996,4.655,0.91,-0.038064,0.012199999999999999,-1.020408,2
2024-06-14 12:56:25.721,-3.045,4.62,0.9099999999999999,-0.040748000000000006,0.025619999999999997,-1.019432,2
2024-06-14 12:56:25.726,-2.6950000000000003,3.535,0.665,-0.046604,0.027084,-1.035048,2
2024-06-14 12:56:25.731,-2.38,0.875,0.49,-0.049044000000000004,0.024156,-1.047248,2
2024-06-14 12:56:25.736,-1.8199999999999998,-2.1,0.455,-0.055632,0.02318,-1.049932,2
2024-06-14 12:56:25.740,-1.75,-5.005,0.42,-0.060511999999999996,0.018544,-1.048712,2
2024-06-14 12:56:25.745,-1.26,-7.035,0.35,-0.052216,0.025132,-1.03578,2
2024-06-14 12:56:25.750,-1.05,-9.1,0.21000000000000002,-0.054412,0.028304000000000003,-1.0335839999999998,2
2024-06-14 12:56:25.755,-0.35,-11.06,0.17500000000000002,-0.054655999999999996,0.025375999999999996,-1.030656,2
2024-06-14 12:56:25.760,0.0,-13.16,0.07,-0.052216,0.020984,-1.03334,2
2024-06-14 12:56:25.765,0.245,-14.665,0.07,-0.045871999999999996,0.019763999999999997,-1.029436,2
2024-06-14 12:56:25.769,0.42,-15.89,0.07,-0.048556,0.02074,-1.01992,2
2024-06-14 12:56:25.774,0.56,-16.03,-0.035,-0.044896,0.019764,-1.0157720000000001,2
2024-06-14 12:56:25.779,0.63,-15.645,0.0,-0.039528,0.019276,-1.0165039999999999,2
2024-06-14 12:56:25.784,0.63,-15.504999999999999,-0.14,-0.041724,0.022448000000000003,-1.02114,2
2024-06-14 12:56:25.789,0.84,-15.82,-0.385,-0.043188000000000004,0.024888,-1.024556,2
2024-06-14 12:56:25.794,1.12,-16.38,-0.315,-0.03538,0.020496,-1.0248,2
2024-06-14 12:56:25.798,1.435,-17.255,-0.45499999999999996,-0.039040000000000005,0.021716,-1.023336,2
2024-06-14 12:56:25.803,1.645,-17.85,-0.525,-0.036599999999999994,0.022447999999999996,-1.02724,2
2024-06-14 12:56:25.808,1.9249999999999998,-18.305,-0.56,-0.037576,0.017812,-1.021872,2
2024-06-14 12:56:25.813,2.3449999999999998,-18.9,-0.595,-0.034648,0.021228,-1.0238239999999998,2
2024-06-14 12:56:25.818,3.115,-17.465,-0.315,-0.032208,0.014152,-1.0384639999999998,2
2024-06-14 12:56:25.823,3.045,-9.765,-0.385,-0.030987999999999998,0.019032,-1.027484,2
2024-06-14 12:56:25.827,3.08,-8.120000000000001,-0.525,-0.029768,0.01586,-1.01626,2
2024-06-14 12:56:25.832,3.01,-8.715,-0.56,-0.030988,0.020007999999999998,-1.0126,2
2024-06-14 12:56:25.837,3.325,-8.33,-0.735,-0.028791999999999998,0.018544,-1.0084520000000001,2
2024-06-14 12:56:25.842,3.2199999999999998,-8.33,-0.8049999999999999,-0.030255999999999998,0.013420000000000001,-1.0067439999999999,2
2024-06-14 12:56:25.847,3.045,-8.715,-0.8049999999999999,-0.026596,0.014395999999999999,-1.0006439999999999,2
2024-06-14 12:56:25.852,2.9749999999999996,-8.89,-0.8400000000000001,-0.026595999999999998,0.017812,-1.0043039999999999,2
2024-06-14 12:56:25.856,2.73,-9.135,-0.8400000000000001,-0.027084,0.013908,-1.0084520000000001,2
2024-06-14 12:56:25.861,2.6950000000000003,-9.870000000000001,-0.7,-0.026352,0.016104,-1.011136,2
2024-06-14 12:56:25.866,2.6950000000000003,-10.115,-0.665,-0.023668,0.018788,-1.01504,2
2024-06-14 12:56:25.871,2.52,-10.745000000000001,-0.735,-0.025864,0.016835999999999997,-1.014552,2
2024-06-14 12:56:25.876,3.3949999999999996,-10.535,-0.665,-0.026352,0.01586,-1.01748,2
2024-06-14 12:56:25.881,2.6950000000000003,-17.255000000000003,-0.9099999999999999,-0.020739999999999998,0.014152000000000001,-1.0155279999999998,2
2024-06-14 12:56:25.885,2.415,-11.375,-0.98,-0.017079999999999998,0.011224000000000001,-1.005524,2
2024-06-14 12:56:25.890,2.0300000000000002,-11.165,-0.6649999999999999,-0.02196,0.017812,-1.013576,2
2024-06-14 12:56:25.895,1.19,-10.92,-0.49000000000000005,-0.019764,0.015127999999999999,-1.01138,2
2024-06-14 12:56:25.900,-0.63,-9.66,-0.595,-0.016592,0.014884000000000001,-1.0240679999999998,2
2024-06-14 12:56:25.905,-1.47,-9.45,-1.0150000000000001,-0.01952,0.017079999999999998,-1.011868,2
2024-06-14 12:56:25.910,-2.345,-9.065,-1.05,-0.017324,0.017568,-1.030168,2
2024-06-14 12:56:25.914,2.7649999999999997,10.954999999999998,0.2450000000000001,-0.020252,0.017079999999999998,-1.0323639999999998,2
2024-06-14 12:56:25.919,-2.555,-23.450000000000003,-0.7000000000000002,-0.021471999999999998,0.017324,-1.000888,2
2024-06-14 12:56:25.924,-3.535,-12.389999999999999,-2.94,-0.018544,0.016592000000000003,-1.02236,2
2024-06-14 12:56:25.929,0.20999999999999996,-14.594999999999999,-1.8900000000000001,-0.010248,0.017324,-1.0182120000000001,2
2024-06-14 12:56:25.934,-4.27,-16.205,-0.245,-0.012199999999999999,0.011712,-1.0106480000000002,2
2024-06-14 12:56:25.939,-1.7149999999999999,-17.185,-0.665,-0.010492,0.011712,-1.0187,2
2024-06-14 12:56:25.946,-5.075,-16.45,-2.975,-0.007808,0.01586,-1.014796,2
2024-06-14 12:56:25.950,-2.8,-17.045,-3.465,-0.006588,0.014395999999999999,-1.033096,2
2024-06-14 12:56:25.955,-6.545,-15.190000000000001,-2.31,-0.00488,0.014883999999999998,-1.016748,2
2024-06-14 12:56:25.960,-3.78,-16.94,-1.085,-0.005124,0.013663999999999999,-1.01748,2
2024-06-14 12:56:25.965,-3.675,-18.83,-1.8550000000000002,-0.0017079999999999999,0.005124,-1.028704,2
2024-06-14 12:56:25.970,-3.36,-20.125,-2.835,-0.0036599999999999996,0.018788,-1.035536,2
2024-06-14 12:56:25.974,-2.52,-21.35,-2.17,-0.003172,0.014395999999999999,-1.0448080000000002,2
2024-06-14 12:56:25.979,-2.31,-22.715000000000003,-1.19,-0.002196,0.021716,-1.035536,2
2024-06-14 12:56:25.984,-0.665,-24.57,-1.295,0.00122,0.018788,-1.0396839999999998,2
2024-06-14 12:56:25.989,0.7,-26.775,-1.855,0.009271999999999999,0.019764,-1.045296,2
2024-06-14 12:56:25.994,3.29,-26.95,-1.61,0.0009759999999999997,0.003172,-1.03212,2
2024-06-14 12:56:25.999,4.585,-31.15,-0.77,0.0053679999999999995,-0.0026839999999999998,-1.078968,2
2024-06-14 12:56:26.003,3.4299999999999997,-33.215,-0.42000000000000004,0.004392,0.011224,-1.06994,2
2024-06-14 12:56:26.008,2.59,-36.155,-0.5249999999999999,0.0053679999999999995,-0.0012200000000000002,-1.0777480000000002,2
2024-06-14 12:56:26.013,4.9,-36.89,-0.42000000000000004,0.008052,0.015371999999999999,-1.1211799999999998,2
2024-06-14 12:56:26.018,-5.355,-30.17,-0.63,0.014395999999999999,0.005612,-1.06994,2
2024-06-14 12:56:26.023,-5.25,-32.865,-0.17500000000000004,0.017812,0.00976,-1.103856,2
2024-06-14 12:56:26.027,-6.615,-34.510000000000005,-0.385,0.018056,0.006344,-1.089704,2
2024-06-14 12:56:26.032,-8.015,-35.525,-1.0150000000000001,0.015616,0.012931999999999999,-1.1080039999999998,2
2024-06-14 12:56:26.037,-8.89,-37.099999999999994,-1.225,0.017568,0.008052,-1.1277679999999999,2
2024-06-14 12:56:26.042,-10.219999999999999,-39.375,-1.225,0.017812,0.026596,-1.1297199999999998,2
2024-06-14 12:56:26.047,-10.325,-41.195,-1.295,0.006831999999999999,0.021471999999999998,-1.1284999999999998,2
2024-06-14 12:56:26.052,-10.15,-44.485,-1.435,0.026352,0.023912000000000003,-1.1187399999999998,2
2024-06-14 12:56:26.056,-9.38,-46.55,-2.17,0.023912,0.046116000000000004,-1.145824,2
2024-06-14 12:56:26.061,-9.45,-48.755,-2.31,0.029279999999999997,0.013176,-1.142896,2
2024-06-14 12:56:26.066,-9.03,-51.66,-2.275,0.03172,0.02196,-1.139724,2
2024-06-14 12:56:26.071,-8.085,-54.705,-2.065,0.030011999999999997,0.022448000000000003,-1.152412,2
2024-06-14 12:56:26.076,-8.715,-57.995000000000005,-2.59,0.02806,0.034159999999999996,-1.179252,2
2024-06-14 12:56:26.080,-9.065000000000001,-61.95,-3.01,0.029768,0.029523999999999998,-1.211704,2
2024-06-14 12:56:26.085,-8.75,-67.025,-3.01,0.029768,0.036356,-1.246596,2
2024-06-14 12:56:26.090,-8.68,-72.59,-3.43,0.0305,0.03416,-1.2673359999999998,2
2024-06-14 12:56:26.095,-8.364999999999998,-78.575,-3.605,0.031964,0.027327999999999998,-1.2773400000000001,2
2024-06-14 12:56:26.100,-8.61,-84.42,-3.92,0.036356,0.024399999999999998,-1.2858799999999997,2
2024-06-14 12:56:26.105,-9.275,-89.91499999999999,-3.8499999999999996,0.03904,0.004392,-1.286856,2
2024-06-14 12:56:26.109,-8.61,-95.86500000000001,-3.15,0.047336,0.00244,-1.2722159999999998,2
2024-06-14 12:56:26.114,-9.695,-101.28999999999999,-2.905,0.055144,-0.003416,-1.2670919999999999,3
2024-06-14 12:56:26.119,-10.850000000000001,-106.05,-2.59,0.061976,-0.030255999999999998,-1.251964,3
2024-06-14 12:56:26.124,-11.795,-110.35499999999999,-1.54,0.075152,-0.032208,-1.2295159999999998,3
2024-06-14 12:56:26.129,-13.965,-115.08,-0.9099999999999999,0.074908,-0.025132,-1.243668,3
2024-06-14 12:56:26.133,-16.205,-120.575,-0.14,0.08174,-0.029279999999999997,-1.2792919999999999,3
2024-06-14 12:56:26.138,-17.009999999999998,-127.25999999999999,0.385,0.07686,-0.007076,-1.308328,3
2024-06-14 12:56:26.143,-18.095,-134.645,0.315,0.07686,0.020984,-1.349808,3
2024-06-14 12:56:26.148,-18.095,-143.325,-0.07,0.06734399999999999,0.034648,-1.39934,3
2024-06-14 12:56:26.153,-17.29,-153.08999999999997,-0.28,0.06124399999999999,0.063928,-1.391044,3
2024-06-14 12:56:26.158,-14.77,-163.1,-1.155,0.064416,0.09198799999999999,-1.4400879999999998,3
2024-06-14 12:56:26.162,-12.39,-172.48000000000002,-2.59,0.07075999999999999,0.107604,-1.41398,3
2024-06-14 12:56:26.167,-9.905000000000001,-181.755,-3.955,0.07588400000000001,0.085156,-1.448872,3
2024-06-14 12:56:26.172,-7.455,-191.03,-4.655,0.083936,0.055632,-1.47254,3
2024-06-14 12:56:26.177,-5.18,-202.01999999999998,-5.145,0.08296,0.06880800000000001,-1.524756,3
2024-06-14 12:56:26.182,-1.96,-213.885,-6.16,0.06636800000000001,0.11663199999999999,-1.588196,3
2024-06-14 12:56:26.186,2.275,-225.32999999999998,-7.875,0.063928,0.169824,-1.6189399999999998,3
2024-06-14 12:56:26.191,8.225000000000001,-238.0,-10.36,0.060756000000000004,0.210084,-1.6006399999999998,3
2024-06-14 12:56:26.196,14.805,-250.6,-13.405,0.061975999999999996,0.24692799999999998,-1.610644,3
2024-06-14 12:56:26.201,20.895,-263.69,-16.87,0.06612399999999999,0.285236,-1.62626,3
2024-06-14 12:56:26.206,26.04,-275.87,-20.615,0.068564,0.274988,-1.700924,3
2024-06-14 12:56:26.211,30.415,-288.71500000000003,-23.59,0.073444,0.237412,-1.7697319999999999,3
2024-06-14 12:56:26.215,31.85,-303.135,-25.689999999999998,0.084668,0.20617999999999997,-1.8844119999999998,3
2024-06-14 12:56:26.220,29.435,-318.46500000000003,-27.369999999999997,0.101748,0.169824,-2.0313,3
2024-06-14 12:56:26.225,22.61,-339.115,-29.19,0.139324,0.027815999999999994,-1.679452,3
2024-06-14 12:56:26.230,16.625,-375.445,-23.240000000000002,0.13176,0.198128,-3.1200279999999996,3
2024-06-14 12:56:26.235,15.399999999999999,-365.68,-27.72,0.24302400000000002,0.24034,-2.452932,3
2024-06-14 12:56:26.239,10.185,-381.745,-29.715,0.271816,0.415532,-2.664236,3
2024-06-14 12:56:26.244,1.4000000000000004,-397.32,-33.985,0.29548399999999997,0.52094,-2.781112,3
2024-06-14 12:56:26.249,-15.995000000000001,-410.375,-40.11,0.310368,0.518256,-2.6622839999999997,3
2024-06-14 12:56:26.254,-37.17,-421.26,-43.33,0.30866,0.43798000000000004,-2.5668800000000003,3
2024-06-14 12:56:26.259,-63.42,-428.12,-46.795,0.399184,0.477752,-2.554436,3
2024-06-14 12:56:26.264,-87.85,-434.805,-50.120000000000005,0.387228,0.46506400000000003,-2.6622839999999997,3
2024-06-14 12:56:26.268,-110.285,-433.615,-57.225,0.395768,0.428708,-2.718404,3
2024-06-14 12:56:26.273,-121.905,-424.79499999999996,-67.375,0.433344,0.299144,-2.859192,3
2024-06-14 12:56:26.278,-116.79499999999999,-416.04499999999996,-73.43,0.4575,0.0732,-2.926292,3
2024-06-14 12:56:26.283,-106.925,-411.775,-75.81,0.284748,-0.044163999999999995,-2.989,3
2024-06-14 12:56:26.288,-98.28,-405.78999999999996,-78.015,0.021228,-0.005123999999999998,-2.9577679999999997,3
2024-06-14 12:56:26.292,-92.36500000000001,-398.96500000000003,-81.2,-0.24424400000000002,0.06831999999999999,-2.895548,3
2024-06-14 12:56:26.297,-93.31,-390.74,-89.14500000000001,-0.6695359999999999,0.147864,-2.8426,3
2024-06-14 12:56:26.302,-90.125,-381.255,-100.24000000000001,-1.140456,0.283528,-2.530036,3
2024-06-14 12:56:26.307,-87.5,-379.29499999999996,-106.61,-1.2890519999999999,0.216916,-2.2704199999999997,3
2024-06-14 12:56:26.312,-75.985,-373.41499999999996,-125.685,-1.31638,0.052216,-1.967616,3
2024-06-14 12:56:26.317,-50.084999999999994,-389.27,-132.16,-1.5999079999999999,0.305244,-1.5064559999999998,3
2024-06-14 12:56:26.321,-28.035,-420.03499999999997,-126.0,-1.259772,0.054167999999999994,-1.2563559999999998,4
2024-06-14 12:56:26.326,8.295,-482.09000000000003,-122.85,-0.76006,0.18422,-0.5668120000000001,4
2024-06-14 12:56:26.331,39.305,-525.77,-114.94,-0.408456,0.279136,-0.9301280000000001,4
2024-06-14 12:56:26.336,47.32,-480.44500000000005,-110.495,-0.207156,0.3538,-1.094828,4
2024-06-14 12:56:26.341,44.205,-412.335,-107.24,-0.399184,0.36941599999999997,-1.36518,4
2024-06-14 12:56:26.346,45.465,-349.09000000000003,-97.72,-0.708332,0.312808,-1.504016,4
2024-06-14 12:56:26.350,47.739999999999995,-267.155,-77.525,-0.897432,0.10369999999999999,-1.030412,4
2024-06-14 12:56:26.355,53.34,-167.125,-47.004999999999995,-1.213168,-0.01098,-0.485072,4
2024-06-14 12:56:26.360,69.33500000000001,-63.035,-12.6,-1.5923440000000002,0.019764,-0.261324,4
2024-06-14 12:56:26.365,92.89,34.545,20.72,-1.707756,0.0012199999999999997,-0.24644,4
2024-06-14 12:56:26.370,112.66499999999999,117.67,51.205,-1.5703839999999998,-0.0366,-0.41748399999999997,4
2024-06-14 12:56:26.374,123.725,182.665,77.7,-1.3668879999999999,0.0053679999999999995,-0.6661199999999999,4
2024-06-14 12:56:26.379,130.865,231.0,99.05,-1.175104,0.08784,-0.853512,4
2024-06-14 12:56:26.384,137.34,264.81,114.31,-0.9982039999999999,0.184952,-0.9357399999999999,4
2024-06-14 12:56:26.389,142.17000000000002,287.595,122.99000000000001,-0.8796200000000001,0.284748,-0.9616039999999999,4
2024-06-14 12:56:26.394,144.82999999999998,301.945,125.51,-0.812276,0.391376,-0.947696,4
2024-06-14 12:56:26.399,141.89,310.065,122.43,-0.787388,0.480436,-0.915244,4
2024-06-14 12:56:26.403,133.42000000000002,314.37,114.555,-0.775188,0.560468,-0.8520479999999999,4
2024-06-14 12:56:26.408,120.225,315.90999999999997,103.285,-0.756156,0.620736,-0.77836,4
2024-06-14 12:56:26.413,103.32,315.84000000000003,89.495,-0.72834,0.650748,-0.714676,4
2024-06-14 12:56:26.418,83.965,313.95,74.725,-0.694668,0.6514800000000001,-0.68198,4
2024-06-14 12:56:26.423,64.155,310.59,59.99,-0.6512359999999999,0.6380600000000001,-0.656848,4
2024-06-14 12:56:26.427,44.519999999999996,305.865,45.64,-0.606584,0.624396,-0.6368400000000001,4
2024-06-14 12:56:26.432,25.689999999999998,300.72,32.06,-0.559248,0.607804,-0.627812,4
2024-06-14 12:56:26.437,7.140000000000001,295.4,18.69,-0.5082519999999999,0.586332,-0.629032,4
2024-06-14 12:56:26.442,-10.219999999999999,290.71,5.880000000000001,-0.45676799999999995,0.5404599999999999,-0.637816,4
2024-06-14 12:56:26.447,-25.9,287.28,-6.37,-0.41235999999999995,0.48678,-0.655872,4
2024-06-14 12:56:26.452,-39.655,285.775,-17.22,-0.375272,0.414068,-0.672464,4
2024-06-14 12:56:26.456,-50.89,285.88,-26.53,-0.361364,0.34111199999999997,-0.69662,4
2024-06-14 12:56:26.461,-58.974999999999994,287.665,-34.16,-0.35038400000000003,0.27449999999999997,-0.72956,4
2024-06-14 12:56:26.466,-63.805,290.95500000000004,-39.83,-0.34038,0.205936,-0.7688440000000001,4
2024-06-14 12:56:26.471,-65.695,295.96000000000004,-43.644999999999996,-0.330376,0.131028,-0.8149599999999999,4
2024-06-14 12:56:26.476,-64.47,302.61,-45.85,-0.33110799999999996,0.07075999999999999,-0.872544,4
2024-06-14 12:56:26.480,-60.655,310.79999999999995,-46.655,-0.32574,0.024399999999999998,-0.925492,4
2024-06-14 12:56:26.485,-54.53,320.07500000000005,-46.095,-0.32256799999999997,-0.019275999999999998,-0.9769759999999998,4
2024-06-14 12:56:26.490,-46.935,330.155,-44.555,-0.313784,-0.052704,-1.024556,4
2024-06-14 12:56:26.494,-38.43,340.34000000000003,-41.86,-0.314516,-0.07563999999999999,-1.085556,4
2024-06-14 12:56:26.499,-29.995,350.28,-38.255,-0.308172,-0.088816,-1.138992,4
2024-06-14 12:56:26.504,-22.155,359.38,-33.879999999999995,-0.293288,-0.093696,-1.197308,4
2024-06-14 12:56:26.508,-15.75,367.395,-29.155,-0.27694,-0.079056,-1.250744,4
2024-06-14 12:56:26.513,-11.585,374.36,-24.255000000000003,-0.249612,-0.060756,-1.3000319999999999,4
2024-06-14 12:56:26.518,-10.184999999999999,379.96,-19.95,-0.226676,-0.041968,-1.350296,4
2024-06-14 12:56:26.523,-12.075,384.58000000000004,-15.89,-0.20373999999999998,-0.021471999999999998,-1.386896,4
2024-06-14 12:56:26.528,-16.625,387.765,-12.39,-0.181292,0.003416,-1.427644,4
2024-06-14 12:56:26.533,-23.135,389.725,-9.205,-0.165188,0.01952,-1.47254,4
2024-06-14 12:56:26.537,-30.939999999999998,390.565,-6.545,-0.14517999999999998,0.027816,-1.5184119999999999,4
2024-06-14 12:56:26.542,-39.515,390.145,-4.27,-0.125172,0.025863999999999998,-1.574532,4
2024-06-14 12:56:26.547,-48.055,389.13,-2.03,-0.108092,0.022204,-1.62992,4
2024-06-14 12:56:26.552,-55.79,387.835,-0.175,-0.09784399999999999,0.011224,-1.684088,4
2024-06-14 12:56:26.557,-62.3,386.365,1.715,-0.08784,-0.007076,-1.7531400000000001,4
2024-06-14 12:56:26.562,-67.025,384.96500000000003,3.465,-0.078812,-0.024888,-1.8258519999999998,4
2024-06-14 12:56:26.566,-69.755,384.02,5.25,-0.073688,-0.042943999999999996,-1.9029559999999999,4
2024-06-14 12:56:26.571,-70.805,382.865,7.035,-0.06417199999999999,-0.070028,-2.002264,4
2024-06-14 12:56:26.576,-70.49,382.62,8.4,-0.050996,-0.0793,-2.09352,4
2024-06-14 12:56:26.581,-69.125,382.515,9.52,-0.026839999999999996,-0.08369199999999999,-2.1972199999999997,4
2024-06-14 12:56:26.586,-67.58500000000001,382.06,9.94,0.009516,-0.078568,-2.304824,4
2024-06-14 12:56:26.590,-66.08,381.42999999999995,10.045,0.063928,-0.075152,-2.4204800000000004,4
2024-06-14 12:56:26.595,-65.1,380.65999999999997,9.8,0.11516799999999999,-0.068076,-2.5363800000000003,4
2024-06-14 12:56:26.600,-63.945,379.47,9.765,0.172752,-0.061488,-2.648132,4
2024-06-14 12:56:26.605,-62.230000000000004,378.525,10.535,0.24717199999999998,-0.06222,-2.75598,4
2024-06-14 12:56:26.610,-59.815,377.93,11.725,0.326472,-0.076128,-2.849432,4
2024-06-14 12:56:26.615,-56.91,377.58000000000004,13.65,0.41992399999999996,-0.09076799999999999,-2.933612,4
2024-06-14 12:56:26.619,-53.620000000000005,377.125,16.275,0.531188,-0.100284,-2.993148,4
2024-06-14 12:56:26.624,-49.769999999999996,376.53,19.46,0.658312,-0.111264,-3.0539039999999997,4
2024-06-14 12:56:26.629,-46.41,375.305,22.61,0.820084,-0.104676,-3.106852,4
2024-06-14 12:56:26.634,-43.155,373.135,25.725,0.9989359999999999,-0.09223200000000001,-3.1539439999999996,4
2024-06-14 12:56:26.639,-40.565,369.425,28.665,1.202432,-0.075884,-3.18298,4
2024-06-14 12:56:26.644,-38.15,364.315,31.64,1.4120279999999998,-0.0366,-3.21592,4
2024-06-14 12:56:26.648,-35.980000000000004,357.21000000000004,35.105,1.6250399999999998,0.020007999999999998,-3.21226,4
2024-06-14 12:56:26.653,-32.515,348.635,37.94,1.88002,0.025376,-3.1866399999999997,4
2024-06-14 12:56:26.658,-27.405,338.59000000000003,39.935,2.11182,0.06466,-3.094652,4
2024-06-14 12:56:26.663,-21.630000000000003,326.27,43.435,2.346304,0.08296,-2.9663079999999997,4
2024-06-14 12:56:26.668,-16.064999999999998,311.325,48.405,2.5610239999999997,0.120536,-2.78282,4
2024-06-14 12:56:26.673,-11.690000000000001,294.03499999999997,52.92,2.79746,0.14518,-2.5480919999999996,4
2024-06-14 12:56:26.677,-8.190000000000001,276.115,55.055,3.021696,0.110288,-2.2774959999999997,4
2024-06-14 12:56:26.682,-5.95,256.9,51.870000000000005,3.194204,0.161772,-1.965176,4
2024-06-14 12:56:26.687,-5.915,237.265,48.09,3.45138,0.20666800000000002,-1.627236,4
2024-06-14 12:56:26.692,-8.4,219.555,43.715,3.809328,0.346724,-1.226832,4
2024-06-14 12:56:26.697,-15.715,203.56,33.95,4.3756520000000005,0.200324,-0.910364,4
2024-06-14 12:56:26.702,-38.71,188.405,6.755,4.774592,0.370392,-0.721996,4
2024-06-14 12:56:26.706,-75.14500000000001,169.29500000000002,-20.545,5.098136,0.338916,-0.7595719999999999,4
2024-06-14 12:56:26.711,-111.965,141.12,-48.685,5.231604000000001,0.20569199999999999,-0.9008480000000001,4
2024-06-14 12:56:26.716,-136.745,99.12,-72.485,5.0610479999999995,-0.016592,-1.076772,4
2024-06-14 12:56:26.721,-144.89999999999998,37.17,-88.69,4.706028,-0.25742,-1.1746159999999999,4
2024-06-14 12:56:26.726,-123.235,-16.905,-96.39,4.276588,-0.486536,-1.1565599999999998,4
2024-06-14 12:56:26.730,47.355000000000004,-284.54999999999995,-44.345,5.320176,-3.847636,-6.7256160000000005,4
