time,gyroscope_x,gyroscope_y,gyroscope_z,accelerometer_x,accelerometer_y,accelerometer_z,phase
2024-06-14 12:57:27.497,193.26999999999998,-526.085,52.115,5.5327,-4.53962,-8.612224,1
2024-06-14 12:57:27.502,113.155,-307.86,51.24,-0.7820199999999999,0.39747599999999994,1.8507399999999998,1
2024-06-14 12:57:27.507,187.53,-366.87,43.155,-3.057564,0.128832,2.59372,1
2024-06-14 12:57:27.512,223.3,-462.84,32.76,-0.684908,0.7998319999999999,-1.319552,1
2024-06-14 12:57:27.517,221.97,-463.53999999999996,45.255,-0.50142,-0.182512,-2.5329639999999998,1
2024-06-14 12:57:27.522,147.98000000000002,-460.425,69.93,-0.023180000000000006,0.034892,-1.546472,1
2024-06-14 12:57:27.527,87.465,-459.97,93.625,0.750544,0.130296,-1.433012,1
2024-06-14 12:57:27.531,45.5,-441.63,113.855,1.0689639999999998,-0.300608,-2.079368,1
2024-06-14 12:57:27.536,-3.43,-406.55999999999995,118.965,0.897188,-0.697596,-2.394616,1
2024-06-14 12:57:27.541,13.719999999999999,-378.875,98.175,0.557296,-0.6587999999999999,-2.723528,1
2024-06-14 12:57:27.546,38.57,-343.525,58.765,0.32696,-0.948672,-3.417952,1
2024-06-14 12:57:27.551,39.44499999999999,-286.37,18.83,0.449204,-0.855708,-3.38916,1
2024-06-14 12:57:27.556,20.685,-204.26,-1.82,0.520696,-0.330864,-2.614948,1
2024-06-14 12:57:27.560,12.355,-128.38,-3.955,0.43578399999999995,-0.140788,-2.0110479999999997,1
2024-06-14 12:57:27.565,14.350000000000001,-72.87,-4.0600000000000005,0.35624,-0.007319999999999999,-1.709952,1
2024-06-14 12:57:27.570,13.545,-38.675,-7.805,0.3477,0.04050399999999999,-1.31882,1
2024-06-14 12:57:27.575,6.055,-28.84,-5.67,0.4182159999999999,0.107116,-1.240496,1
2024-06-14 12:57:27.580,-0.42000000000000004,-20.439999999999998,1.47,0.18592799999999998,-0.005856,-1.14924,1
2024-06-14 12:57:27.585,-1.05,-19.18,1.47,0.033184,0.0183,-1.125084,1
2024-06-14 12:57:27.590,-0.49,-16.66,3.045,-0.09247599999999999,-0.0017079999999999994,-1.06384,2
2024-06-14 12:57:27.594,-0.06999999999999999,-16.205,0.595,-0.094916,0.0036599999999999966,-0.99918,2
2024-06-14 12:57:27.599,0.455,-13.475000000000001,-1.435,-0.013176,-0.053924,-0.960628,2
2024-06-14 12:57:27.604,0.735,-7.945,-0.45499999999999996,0.027084,0.028791999999999998,-0.9928359999999999,2
2024-06-14 12:57:27.613,2.415,-3.885,0.7,0.026596,0.026596,-1.036756,2
2024-06-14 12:57:27.618,3.115,-1.54,1.4,0.002683999999999999,0.00732,-1.0311439999999998,2
2024-06-14 12:57:27.623,3.675,-0.35000000000000003,1.225,-0.028791999999999998,-0.003904,-1.042612,2
2024-06-14 12:57:27.627,1.505,-1.05,1.295,-0.03294,-0.020007999999999998,-1.0499319999999999,2
2024-06-14 12:57:27.632,0.14,-2.7300000000000004,1.6800000000000002,-0.024888,0.007076000000000001,-1.057984,2
2024-06-14 12:57:27.637,-0.7350000000000001,-3.92,1.6800000000000002,-0.026108,0.005124,-1.03578,2
2024-06-14 12:57:27.642,-0.45499999999999996,-5.145,1.61,-0.038796,0.027083999999999997,-1.02114,2
2024-06-14 12:57:27.647,0.42,-5.5649999999999995,1.4,-0.040015999999999996,0.020496,-1.031876,2
2024-06-14 12:57:27.651,0.9099999999999999,-6.825,1.295,-0.04196799999999999,0.02318,-1.05164,2
2024-06-14 12:57:27.656,1.47,-8.015,1.085,-0.047336,0.017324,-1.054568,2
2024-06-14 12:57:27.661,1.4,-9.59,0.84,-0.042455999999999994,0.017324,-1.052128,2
2024-06-14 12:57:27.666,1.855,-11.235,0.49,-0.044896,0.021228,-1.043832,2
2024-06-14 12:57:27.671,1.995,-12.145,0.28,-0.040016,0.011712,-1.0335839999999998,2
2024-06-14 12:57:27.675,2.205,-12.844999999999999,0.28,-0.04148,0.005612,-1.038708,2
2024-06-14 12:57:27.680,2.065,-13.65,0.17500000000000002,-0.042456,-0.017812,-1.0518839999999998,2
2024-06-14 12:57:27.685,1.505,-14.875,0.175,-0.03660000000000001,-0.004392,-1.038708,2
2024-06-14 12:57:27.690,0.7350000000000001,-15.68,0.21000000000000002,-0.035868,-0.011712,-1.0372439999999998,2
2024-06-14 12:57:27.695,-0.455,-16.66,0.28,-0.036112,-0.008539999999999999,-1.04188,2
2024-06-14 12:57:27.699,-1.33,-17.85,0.315,-0.038552,-0.0017079999999999999,-1.037976,2
2024-06-14 12:57:27.704,-2.065,-19.285,0.21,-0.037087999999999996,0.005124,-1.0411480000000002,2
2024-06-14 12:57:27.709,-2.5549999999999997,-21.314999999999998,-0.035,-0.033671999999999994,0.0075639999999999995,-1.0350479999999997,2
2024-06-14 12:57:27.714,-2.45,-21.56,-0.21,-0.030255999999999998,0.01342,-1.0279719999999999,2
2024-06-14 12:57:27.719,-2.17,-22.05,-0.385,-0.029524,0.010248,-1.019676,2
2024-06-14 12:57:27.724,-1.7850000000000001,-22.085,-0.665,-0.027816,0.008783999999999998,-1.015284,2
2024-06-14 12:57:27.728,-1.505,-21.245,-0.8400000000000001,-0.020984000000000003,0.00366,-1.0145520000000001,2
2024-06-14 12:57:27.733,-1.54,-21.07,-0.875,-0.01708,0.000976,-1.0084520000000001,2
2024-06-14 12:57:27.738,-1.54,-20.615000000000002,-0.9450000000000001,-0.01952,-0.0024400000000000003,-1.016016,2
2024-06-14 12:57:27.743,-1.785,-21.244999999999997,-1.0150000000000001,-0.01952,0.0024399999999999995,-1.017968,2
2024-06-14 12:57:27.748,-2.415,-22.54,-1.085,-0.014884000000000001,-0.0014639999999999998,-1.0218720000000001,2
2024-06-14 12:57:27.752,-2.24,-20.299999999999997,-1.085,-0.016835999999999997,0.00244,-1.0228479999999998,2
2024-06-14 12:57:27.757,-3.2199999999999998,-12.32,-1.995,-0.0019520000000000002,0.0068319999999999995,-1.03334,2
2024-06-14 12:57:27.762,-2.59,-21.805,-1.085,-0.013420000000000001,0.0039039999999999995,-1.01504,2
2024-06-14 12:57:27.767,-2.31,-21.490000000000002,-1.225,-0.011467999999999999,0.007076,-1.014308,2
2024-06-14 12:57:27.772,-1.7149999999999999,-21.455,-1.26,-0.011223999999999998,0.004392,-1.00894,2
2024-06-14 12:57:27.776,-2.065,-21.21,-0.8400000000000001,-0.007808,0.0026839999999999998,-1.009916,2
2024-06-14 12:57:27.781,-2.835,-20.335,-0.63,-0.003904,0.004147999999999999,-1.019676,2
2024-06-14 12:57:27.786,-7.385,-18.27,-1.0150000000000001,-0.00366,0.002928,-1.012356,2
2024-06-14 12:57:27.791,-6.720000000000001,-3.64,0.525,-0.004148,0.025863999999999998,-1.0362680000000002,2
2024-06-14 12:57:27.796,-8.015,-4.655,-2.1000000000000005,-0.002928,0.007808000000000001,-1.0121120000000001,2
2024-06-14 12:57:27.801,-7.629999999999999,-19.145000000000003,-4.13,-0.0060999999999999995,0.010492,-1.0492,2
2024-06-14 12:57:27.805,-6.09,-13.685,-2.5900000000000003,-0.007076,0.013176,-1.05042,2
2024-06-14 12:57:27.810,-9.379999999999999,-19.705,-1.0499999999999998,-0.009028,0.01586,-1.016016,2
2024-06-14 12:57:27.815,-6.4399999999999995,-24.745,-1.925,-0.004392,0.006344,-1.0521280000000002,2
2024-06-14 12:57:27.820,-6.369999999999999,-27.965,-4.025,-0.004392,0.0009760000000000001,-1.048224,2
2024-06-14 12:57:27.825,-3.92,-29.82,-3.675,-0.0012200000000000002,0.003904,-1.070916,2
2024-06-14 12:57:27.829,-1.645,-34.545,-1.6099999999999999,0.005612000000000001,-0.007807999999999999,-1.06018,2
2024-06-14 12:57:27.834,0.385,-37.765,-0.35,0.009516,-0.016348,-1.071648,2
2024-06-14 12:57:27.839,1.4,-37.94,-0.875,0.010248,0.0046359999999999995,-1.109956,2
2024-06-14 12:57:27.844,1.365,-40.32,-2.065,0.011956000000000001,-0.002196,-1.080432,2
2024-06-14 12:57:27.849,1.925,-42.629999999999995,-1.1549999999999998,0.0122,0.0060999999999999995,-1.067256,2
2024-06-14 12:57:27.853,0.665,-42.595,-0.245,0.018056,0.007076,-1.060424,2
2024-06-14 12:57:27.858,2.625,-41.825,0.03500000000000003,0.025376,0.0,-1.07116,2
2024-06-14 12:57:27.863,-5.005,-35.14,-1.3650000000000002,0.026596,0.008051999999999998,-1.044076,2
2024-06-14 12:57:27.868,-4.865,-36.05,-1.47,0.028547999999999997,0.005124,-1.055056,2
2024-06-14 12:57:27.873,-5.705,-36.260000000000005,-1.0150000000000001,0.030988,0.010491999999999998,-1.04676,2
2024-06-14 12:57:27.877,-6.4399999999999995,-36.959999999999994,-1.085,0.035136,0.007076000000000001,-1.049688,2
2024-06-14 12:57:27.882,-5.984999999999999,-37.555,-1.8199999999999998,0.03904,0.012931999999999999,-1.056032,2
2024-06-14 12:57:27.887,-6.475,-38.08,-2.45,0.04148,0.016104,-1.0492,3
2024-06-14 12:57:27.892,-6.4399999999999995,-38.43,-2.275,0.051972000000000004,0.01586,-1.053592,3
2024-06-14 12:57:27.897,-7.035,-39.025,-2.065,0.047824,0.01342,-1.05896,3
2024-06-14 12:57:27.902,-7.385,-39.935,-2.45,0.051972,0.015127999999999999,-1.067744,3
2024-06-14 12:57:27.906,-7.7,-40.32,-2.9050000000000002,0.05368,0.008539999999999999,-1.068232,3
2024-06-14 12:57:27.911,-8.33,-41.44,-3.01,0.055388,0.013663999999999999,-1.075552,3
2024-06-14 12:57:27.916,-8.855,-42.805,-2.695,0.059292,0.012931999999999999,-1.077748,3
2024-06-14 12:57:27.921,-8.96,-43.925,-2.87,0.063928,0.014395999999999999,-1.094096,3
2024-06-14 12:57:27.926,-9.1,-45.605000000000004,-3.29,0.05978,0.023668,-1.0997080000000001,3
2024-06-14 12:57:27.930,-8.855,-47.95,-3.7800000000000002,0.061731999999999995,0.030255999999999998,-1.118496,3
2024-06-14 12:57:27.935,-8.4,-50.785,-3.92,0.061488,0.030011999999999997,-1.132404,3
2024-06-14 12:57:27.940,-7.7,-53.725,-4.095,0.061976,0.030744,-1.142408,3
2024-06-14 12:57:27.945,-6.545,-57.19,-4.41,0.06222,0.03440399999999999,-1.1580239999999997,3
2024-06-14 12:57:27.950,-5.285,-61.355,-4.9350000000000005,0.06368399999999999,0.031476000000000004,-1.1758359999999999,3
2024-06-14 12:57:27.954,-3.815,-67.515,-5.25,0.06124399999999999,0.033672,-1.1904759999999999,3
2024-06-14 12:57:27.959,-3.675,-70.315,-5.25,0.066368,0.034648,-1.2248799999999997,3
2024-06-14 12:57:27.964,-2.975,-75.6,-5.495,0.06612399999999999,0.032451999999999995,-1.2731919999999999,3
2024-06-14 12:57:27.969,-2.24,-81.75999999999999,-5.705,0.061976,0.019763999999999997,-1.3085719999999998,3
2024-06-14 12:57:27.974,-1.645,-89.03999999999999,-5.949999999999999,0.065148,0.027327999999999998,-1.354444,3
2024-06-14 12:57:27.979,-1.75,-96.74000000000001,-6.23,0.059292,0.027816,-1.362984,3
2024-06-14 12:57:27.983,-1.575,-104.65,-6.300000000000001,0.070516,0.013176,-1.375184,3
2024-06-14 12:57:27.988,-1.715,-112.245,-6.16,0.074176,0.0,-1.375428,3
2024-06-14 12:57:27.993,-2.625,-119.455,-6.02,0.079788,-0.021228,-1.362984,3
2024-06-14 12:57:27.998,-3.6050000000000004,-126.105,-5.109999999999999,0.085644,-0.054412,-1.3451719999999998,3
2024-06-14 12:57:28.003,-6.475,-132.08999999999997,-3.955,0.100772,-0.064416,-1.303204,3
2024-06-14 12:57:28.007,-8.75,-137.41,-2.59,0.113216,-0.10003999999999999,-1.281976,3
2024-06-14 12:57:28.012,-12.25,-142.73000000000002,-1.225,0.116632,-0.095648,-1.2829519999999999,3
2024-06-14 12:57:28.017,-14.7,-148.75,0.14,0.11224,-0.057339999999999995,-1.3012519999999999,3
2024-06-14 12:57:28.022,-17.29,-157.43,0.84,0.103944,-0.041968,-1.4195920000000002,3
2024-06-14 12:57:28.027,-19.215,-168.66500000000002,1.4,0.088084,-0.024156,-1.5411039999999998,3
2024-06-14 12:57:28.031,-20.335,-181.405,1.19,0.072224,0.024156,-1.611864,3
2024-06-14 12:57:28.036,-19.145000000000003,-195.3,0.28,0.068076,0.07564,-1.5984439999999998,3
2024-06-14 12:57:28.041,-17.15,-208.21499999999997,-1.645,0.069296,0.092476,-1.5689199999999999,3
2024-06-14 12:57:28.046,-14.455,-222.425,-3.255,0.075152,0.10052799999999999,-1.602592,3
2024-06-14 12:57:28.051,-12.25,-237.01999999999998,-5.390000000000001,0.075152,0.07076,-1.5811199999999999,3
2024-06-14 12:57:28.055,-14.98,-259.41999999999996,-6.6850000000000005,0.066368,0.094672,-1.829024,3
2024-06-14 12:57:28.060,-5.355,-264.32,-6.615,0.059048,0.067344,-1.806332,3
2024-06-14 12:57:28.065,-1.295,-282.8,-7.699999999999999,0.039284,0.134444,-1.937848,3
2024-06-14 12:57:28.070,4.235,-301.90999999999997,-10.22,0.0075639999999999995,0.220576,-2.03374,3
2024-06-14 12:57:28.075,10.254999999999999,-322.03499999999997,-13.825,0.000732,0.305244,-2.0903479999999997,3
2024-06-14 12:57:28.080,14.21,-344.04999999999995,-17.92,0.01708,0.37673599999999996,-2.257488,3
2024-06-14 12:57:28.084,16.275,-360.01,-23.205,0.05002,0.399428,-2.3467919999999998,3
2024-06-14 12:57:28.089,15.96,-379.995,-27.965,0.072224,0.336476,-2.450736,3
2024-06-14 12:57:28.094,12.46,-400.29499999999996,-29.75,0.14518,0.26547199999999993,-2.646424,3
2024-06-14 12:57:28.099,2.905,-419.58,-31.465000000000003,0.295728,0.336232,-2.9577679999999997,3
2024-06-14 12:57:28.104,-5.04,-437.28999999999996,-33.985,0.37551599999999996,0.5028839999999999,-3.314984,3
2024-06-14 12:57:28.108,-19.355,-454.475,-39.69,0.41577600000000003,0.7137,-3.5455639999999997,3
2024-06-14 12:57:28.113,-35.945,-474.70500000000004,-46.34,0.28767600000000004,0.846436,-3.4831,3
2024-06-14 12:57:28.118,-69.37,-488.03999999999996,-54.915,0.285236,0.914512,-3.256668,3
2024-06-14 12:57:28.123,-103.11,-500.15,-63.42,0.30036399999999996,0.8842559999999999,-3.23544,3
2024-06-14 12:57:28.128,-143.185,-500.675,-74.86500000000001,0.264984,0.74908,-3.406484,3
2024-06-14 12:57:28.132,-172.235,-491.96,-91.595,0.33428,0.583404,-3.61852,3
2024-06-14 12:57:28.137,-174.16,-484.12,-102.75999999999999,0.18666,0.27547600000000005,-3.7615039999999995,3
2024-06-14 12:57:28.142,-171.115,-477.225,-110.425,-0.068808,0.11687600000000001,-3.811524,3
2024-06-14 12:57:28.147,-161.63,-471.765,-117.215,-0.498248,0.14615599999999998,-3.824456,3
2024-06-14 12:57:28.152,-150.43,-456.71500000000003,-135.83499999999998,-1.072624,0.194468,-3.654388,3
2024-06-14 12:57:28.154,-147.735,-453.81,-146.23000000000002,-1.2670919999999999,0.191052,-3.477244,3
2024-06-14 12:57:28.158,-143.85,-441.7,-170.765,-1.79096,0.6863719999999999,-2.7471959999999997,4
2024-06-14 12:57:28.163,-116.75999999999999,-451.395,-172.165,-1.9561480000000002,0.149328,-2.324588,4
2024-06-14 12:57:28.168,-84.315,-471.52,-178.255,-1.98372,-0.092476,-1.8246319999999998,4
2024-06-14 12:57:28.173,-43.120000000000005,-533.855,-174.86,-1.378844,0.039527999999999994,-0.7644519999999999,4
2024-06-14 12:57:28.178,21.315,-634.5150000000001,-160.685,-0.890112,0.18324400000000002,-1.045296,4
2024-06-14 12:57:28.183,51.485,-602.98,-145.25,-0.46433199999999997,0.054412,-1.37982,4
2024-06-14 12:57:28.187,71.295,-523.18,-126.21000000000001,-0.44822799999999996,-0.0009759999999999986,-1.680428,4
2024-06-14 12:57:28.192,89.39,-455.21000000000004,-100.345,-0.719312,0.0915,-2.0047040000000003,4
2024-06-14 12:57:28.197,99.29499999999999,-364.595,-63.595,-0.9733160000000001,0.0,-1.600152,4
2024-06-14 12:57:28.202,105.945,-241.535,-14.805,-1.488888,-0.144448,-0.7893399999999999,4
2024-06-14 12:57:28.207,121.555,-111.16,36.33,-2.118652,-0.113948,-0.264984,4
2024-06-14 12:57:28.212,135.1,11.865000000000002,80.39500000000001,-2.3302,-0.08784,-0.12224400000000002,4
2024-06-14 12:57:28.216,139.615,116.375,116.795,-2.180628,-0.019520000000000003,-0.36941599999999997,4
2024-06-14 12:57:28.221,139.055,196.98,146.615,-1.905152,0.09296399999999999,-0.72956,4
2024-06-14 12:57:28.226,138.11,255.115,168.28,-1.6409,0.194712,-1.0165039999999999,4
2024-06-14 12:57:28.231,136.185,294.41999999999996,180.18,-1.4120279999999998,0.287432,-1.1653440000000002,4
2024-06-14 12:57:28.236,132.685,320.03999999999996,182.875,-1.2221959999999998,0.39601200000000003,-1.218048,4
2024-06-14 12:57:28.241,129.92000000000002,335.125,178.325,-1.107272,0.5106919999999999,-1.192428,4
2024-06-14 12:57:28.245,124.075,342.72,167.44,-1.043832,0.593896,-1.1516800000000003,4
2024-06-14 12:57:28.250,112.035,345.83500000000004,151.58499999999998,-1.0230920000000001,0.622444,-1.112152,4
2024-06-14 12:57:28.255,94.28999999999999,348.075,132.195,-1.001376,0.6329359999999999,-1.0299239999999998,4
2024-06-14 12:57:28.260,76.265,349.755,111.61500000000001,-0.97112,0.621224,-0.9201239999999999,4
2024-06-14 12:57:28.265,61.39,350.945,91.28,-0.924272,0.595604,-0.8337479999999999,4
2024-06-14 12:57:28.270,49.0,351.71500000000003,71.715,-0.8747400000000001,0.571936,-0.793488,4
2024-06-14 12:57:28.274,37.31,351.92499999999995,52.43,-0.81496,0.5465599999999999,-0.7871440000000001,4
2024-06-14 12:57:28.279,24.85,351.4,33.004999999999995,-0.748348,0.526308,-0.8027599999999999,4
2024-06-14 12:57:28.284,12.879999999999999,350.595,13.754999999999999,-0.6792959999999999,0.500688,-0.813252,4
2024-06-14 12:57:28.289,2.695,350.455,-4.7250000000000005,-0.608048,0.456036,-0.81862,4
2024-06-14 12:57:28.294,-5.215,351.295,-21.875,-0.5502199999999999,0.401868,-0.809836,4
2024-06-14 12:57:28.299,-11.41,353.22,-37.1,-0.507032,0.330132,-0.8091039999999999,4
2024-06-14 12:57:28.303,-15.785,355.91499999999996,-50.015,-0.47872800000000004,0.25961599999999996,-0.823744,4
2024-06-14 12:57:28.308,-19.005000000000003,359.345,-60.515,-0.449204,0.199104,-0.8483879999999999,4
2024-06-14 12:57:28.313,-21.42,363.37,-68.81,-0.430416,0.155184,-0.887428,4
2024-06-14 12:57:28.318,-23.17,368.795,-74.935,-0.408456,0.11663199999999999,-0.936716,4
2024-06-14 12:57:28.323,-24.744999999999997,375.13,-79.48500000000001,-0.390888,0.075884,-0.9816119999999999,4
2024-06-14 12:57:28.328,-25.55,382.2,-82.67,-0.381616,0.050996,-1.03212,4
2024-06-14 12:57:28.332,-25.515,390.005,-84.875,-0.371368,0.03538,-1.0894599999999999,4
2024-06-14 12:57:28.337,-24.395000000000003,398.09000000000003,-86.17,-0.362096,0.022204,-1.15534,4
2024-06-14 12:57:28.342,-22.54,405.895,-86.625,-0.346968,0.007807999999999999,-1.21268,4
2024-06-14 12:57:28.347,-20.545,412.72,-86.52,-0.332084,0.0034159999999999998,-1.2756319999999999,4
2024-06-14 12:57:28.352,-18.340000000000003,418.635,-85.82,-0.311832,0.0046359999999999995,-1.33102,4
2024-06-14 12:57:28.357,-17.15,423.43,-84.525,-0.28377199999999997,0.011956,-1.392264,4
2024-06-14 12:57:28.361,-17.57,426.86,-82.81,-0.256444,0.021227999999999997,-1.4457,4
2024-06-14 12:57:28.366,-19.915,429.065,-80.71000000000001,-0.229604,0.037332,-1.4952320000000001,4
2024-06-14 12:57:28.371,-23.835,430.28999999999996,-78.33,-0.205204,0.05002,-1.562576,4
2024-06-14 12:57:28.376,-29.575,430.605,-75.705,-0.181536,0.061975999999999996,-1.627236,4
2024-06-14 12:57:28.381,-36.504999999999995,430.57,-72.625,-0.15738,0.068076,-1.688968,4
2024-06-14 12:57:28.386,-43.75,430.46500000000003,-69.3,-0.137616,0.069052,-1.75436,4
2024-06-14 12:57:28.391,-51.275000000000006,430.32500000000005,-65.66,-0.134932,0.070028,-1.823168,4
2024-06-14 12:57:28.395,-58.415000000000006,429.94,-61.565,-0.12907599999999997,0.069052,-1.90564,4
2024-06-14 12:57:28.400,-65.38,430.08,-57.015,-0.11834,0.055875999999999995,-1.990796,4
2024-06-14 12:57:28.405,-71.435,430.64,-51.870000000000005,-0.113216,0.037332,-2.0852239999999997,4
2024-06-14 12:57:28.410,-76.65,430.78,-46.06,-0.108824,0.026596,-2.202832,4
2024-06-14 12:57:28.415,-80.5,431.305,-39.34,-0.091256,0.016347999999999998,-2.3424,4
2024-06-14 12:57:28.420,-82.705,431.58500000000004,-31.5,-0.06368399999999999,0.009516,-2.507344,4
2024-06-14 12:57:28.424,-83.125,431.025,-22.575,-0.028304,0.00732,-2.684976,4
2024-06-14 12:57:28.429,-81.83,429.905,-12.425,0.030744,-0.0046359999999999995,-2.872612,4
2024-06-14 12:57:28.434,-79.38,428.155,-1.085,0.10833599999999999,-0.0029279999999999996,-3.061712,4
2024-06-14 12:57:28.439,-76.965,426.19500000000005,11.34,0.203496,0.0053679999999999995,-3.232024,4
2024-06-14 12:57:28.444,-76.16,424.34000000000003,24.115000000000002,0.32598400000000005,0.02806,-3.372324,4
2024-06-14 12:57:28.449,-78.435,422.835,36.995000000000005,0.465308,0.044652,-3.483832,4
2024-06-14 12:57:28.453,-85.435,421.89,48.755,0.620004,0.056364,-3.571428,4
2024-06-14 12:57:28.458,-96.11,420.7,58.765,0.780312,0.056852,-3.659756,4
2024-06-14 12:57:28.463,-108.00999999999999,419.29999999999995,66.88499999999999,0.9752679999999999,0.02684,-3.7236839999999995,4
2024-06-14 12:57:28.468,-119.0,417.97,74.095,1.221952,-0.027816,-3.7524759999999997,4
2024-06-14 12:57:28.473,-126.66499999999999,415.415,82.25,1.47864,-0.056852,-3.766628,4
2024-06-14 12:57:28.478,-129.85000000000002,410.725,91.38499999999999,1.77144,-0.11760800000000002,-3.8049359999999997,4
2024-06-14 12:57:28.482,-127.68,405.82500000000005,104.89500000000001,2.045696,-0.068564,-3.791516,4
2024-06-14 12:57:28.487,-119.28,395.605,118.685,2.6086039999999997,-0.596336,-3.9130279999999997,4
2024-06-14 12:57:28.492,-100.975,388.22,114.17,2.8487,-0.308172,-3.559716,4
2024-06-14 12:57:28.497,-73.39500000000001,373.06500000000005,126.73499999999999,3.200548,-0.24570799999999998,-3.4069719999999997,4
2024-06-14 12:57:28.502,-33.985,353.53499999999997,137.89999999999998,3.568256,-0.11834,-3.091236,4
2024-06-14 12:57:28.507,12.565,329.805,144.06,3.8598359999999996,0.029036,-2.724504,4
2024-06-14 12:57:28.511,56.28,301.56,142.695,4.08822,0.172996,-2.286524,4
2024-06-14 12:57:28.516,83.72,272.895,132.79,4.455684,0.34867600000000004,-1.7821760000000002,4
2024-06-14 12:57:28.521,90.195,245.07,111.78999999999999,5.055923999999999,0.620004,-1.124108,4
2024-06-14 12:57:28.526,58.345,217.805,73.39500000000001,5.753032,0.862296,-0.721508,4
2024-06-14 12:57:28.531,-14.524999999999999,193.515,20.125,6.425252,1.017968,-0.587796,4
2024-06-14 12:57:28.536,-102.55,160.895,-34.44,6.761728,0.8278919999999999,-0.750544,4
2024-06-14 12:57:28.540,-179.445,114.1,-79.72999999999999,6.568479999999999,0.3960119999999999,-1.018944,4
2024-06-14 12:57:28.545,-221.515,51.38,-110.285,6.052664,-0.046848,-1.210972,4
2024-06-14 12:57:28.550,-217.35000000000002,-22.33,-126.455,5.4412,-0.43066000000000004,-1.2892959999999998,4
2024-06-14 12:57:28.555,-173.075,-97.125,-129.955,4.7641,-0.73078,-1.2785600000000001,4
2024-06-14 12:57:28.560,-102.16499999999999,-163.41500000000002,-122.78,4.126528,-0.8832800000000001,-1.212192,4
2024-06-14 12:57:28.565,194.81,-483.945,-35.35,1.457656,-5.988735999999999,-8.519016,4
