time,gyroscope_x,gyroscope_y,gyroscope_z,accelerometer_x,accelerometer_y,accelerometer_z,phase
2024-06-14 12:21:41.029,-183.47,-270.27,68.11,3.4726079999999997,-5.370439999999999,-5.858928,1
2024-06-14 12:21:41.033,-123.2,-266.07,119.7,-0.096136,0.8003199999999999,3.407704,1
2024-06-14 12:21:41.038,-236.18,-223.51,136.22,-1.6772559999999999,-0.487024,-0.06783199999999999,1
2024-06-14 12:21:41.043,-348.74,-302.33,128.1,-0.8988959999999999,-0.39576799999999995,-2.288232,1
2024-06-14 12:21:41.048,-336.14,-330.19,106.05,-0.43188,-0.41968,-2.175504,1
2024-06-14 12:21:41.053,-268.66,-347.55,62.37,0.057095999999999994,-0.687104,-2.1925839999999996,1
2024-06-14 12:21:41.058,-186.76,-339.64,2.03,0.515328,-0.51728,-2.42048,1
2024-06-14 12:21:41.063,-105.42,-323.05,-48.3,0.552904,0.049775999999999994,-2.49856,1
2024-06-14 12:21:41.067,-72.24,-301.42,-69.86,0.49776,0.24790399999999999,-2.607384,2
2024-06-14 12:21:41.072,-48.51,-275.45,-74.55,0.26839999999999997,0.34111199999999997,-2.790872,2
2024-06-14 12:21:41.077,-47.88,-240.87,-62.16,0.111264,0.5973120000000001,-2.4487840000000003,2
2024-06-14 12:21:41.082,-38.71,-205.31,-35.77,0.167872,0.618296,-2.268224,2
2024-06-14 12:21:41.087,-19.74,-187.95,-18.55,0.195688,0.39820799999999995,-1.95932,2
2024-06-14 12:21:41.092,2.52,-170.66,-10.92,0.21032800000000001,0.26596,-1.802184,2
2024-06-14 12:21:41.096,17.57,-147.49,-9.94,0.13566399999999998,0.047824,-1.7324,2
2024-06-14 12:21:41.101,20.37,-130.13,-17.85,0.025376,-0.099064,-1.480104,2
2024-06-14 12:21:41.106,14.0,-113.33,-29.54,0.05856,-0.06588,-1.491816,2
2024-06-14 12:21:41.111,11.06,-88.76,-36.54,0.037576,-0.017079999999999998,-1.333216,2
2024-06-14 12:21:41.116,8.75,-73.01,-36.12,0.008296,0.06734399999999999,-1.215608,2
2024-06-14 12:21:41.121,9.1,-60.2,-30.1,0.021472,0.132736,-1.151192,2
2024-06-14 12:21:41.125,12.04,-49.07,-21.63,0.000488,0.13078399999999998,-1.117032,2
2024-06-14 12:21:41.130,11.9,-42.91,-14.63,-0.00244,0.077104,-1.086288,2
2024-06-14 12:21:41.135,11.06,-37.24,-12.25,-0.024399999999999998,0.031232,-1.158024,2
2024-06-14 12:21:41.140,7.42,-29.26,-13.65,0.05124,-0.037576,-1.092632,2
2024-06-14 12:21:41.145,4.13,-23.66,-14.63,0.192272,-0.103456,-1.123376,2
2024-06-14 12:21:41.150,0.49,-22.68,-13.3,0.162992,-0.06539199999999999,-1.1350879999999999,2
2024-06-14 12:21:41.154,-1.4,-17.85,-9.45,0.041968,0.032695999999999996,-1.138504,2
2024-06-14 12:21:41.159,-0.84,-15.05,-5.46,-0.00732,0.048312,-1.117032,2
2024-06-14 12:21:41.164,0.35,-13.65,-2.94,-0.013176,0.044408,-1.104344,2
2024-06-14 12:21:41.169,1.33,-12.11,-2.38,-0.016592,0.020984,-1.1067839999999998,2
2024-06-14 12:21:41.174,2.1,-11.69,-2.17,-0.019032,0.020984,-1.1102,2
2024-06-14 12:21:41.179,2.24,-12.46,-1.82,-0.027327999999999998,0.019032,-1.1102,2
2024-06-14 12:21:41.183,1.68,-12.95,-0.98,-0.038064,0.01952,-1.106296,2
2024-06-14 12:21:41.188,1.61,-14.14,-0.28,-0.049288,0.020984,-1.106296,2
2024-06-14 12:21:41.193,1.4,-16.87,0.14,-0.052216,0.02196,-1.104344,2
2024-06-14 12:21:41.198,1.68,-20.3,0.7,-0.054655999999999996,0.033184,-1.111664,2
2024-06-14 12:21:41.203,2.45,-23.17,0.91,-0.058072,0.048799999999999996,-1.113128,2
2024-06-14 12:21:41.208,3.64,-24.57,0.98,-0.047335999999999996,0.0366,-1.11752,2
2024-06-14 12:21:41.212,5.32,-27.44,1.61,-0.042455999999999994,0.040504,-1.113616,2
2024-06-14 12:21:41.217,7.14,-28.98,0.7,-0.007808,0.004391999999999999,-1.094096,2
2024-06-14 12:21:41.222,8.05,-31.71,1.54,-0.040504,0.042455999999999994,-1.1082480000000001,2
2024-06-14 12:21:41.227,9.73,-33.46,0.49,0.04392,-0.022448,-1.06384,2
2024-06-14 12:21:41.232,10.64,-34.72,1.89,-0.032208,0.035135999999999994,-1.105808,2
2024-06-14 12:21:41.237,11.97,-36.12,0.63,0.045384,-0.005856,-1.0657919999999999,2
2024-06-14 12:21:41.241,13.02,-38.78,1.68,-0.042944,0.047335999999999996,-1.120936,2
2024-06-14 12:21:41.246,14.56,-40.67,0.91,-0.043432000000000005,-0.004391999999999999,-1.0984880000000001,2
2024-06-14 12:21:41.251,14.56,-54.04,0.63,0.052704,0.002928,-1.067256,2
2024-06-14 12:21:41.256,9.94,-59.01,0.07,-0.016592,0.059048,-1.099952,2
2024-06-14 12:21:41.261,17.64,-77.7,0.07,-0.03172,0.077592,-1.1150799999999998,2
2024-06-14 12:21:41.266,11.34,-56.84,0.21,0.01464,0.052704,-1.100928,2
2024-06-14 12:21:41.271,11.83,-56.7,1.05,0.08491199999999999,0.0034159999999999998,-1.094584,2
2024-06-14 12:21:41.275,15.05,-47.11,1.33,0.083448,-0.077104,-1.04432,2
2024-06-14 12:21:41.280,8.12,-48.09,1.19,-0.11712,0.034648,-1.12972,2
2024-06-14 12:21:41.285,7.28,-48.93,0.77,0.0034159999999999998,0.01464,-1.099952,2
2024-06-14 12:21:41.290,5.25,-56.42,0.91,0.037576,-0.010248,-1.072136,2
2024-06-14 12:21:41.295,3.01,-54.11,1.19,0.046848,-0.012199999999999999,-1.062376,2
2024-06-14 12:21:41.300,7.91,-62.72,1.75,0.032695999999999996,-0.00732,-1.07848,2
2024-06-14 12:21:41.304,-0.49,-58.8,1.47,0.061975999999999996,-0.020007999999999998,-1.054568,2
2024-06-14 12:21:41.309,-1.33,-59.29,0.98,-0.014152,0.00244,-1.086776,2
2024-06-14 12:21:41.314,-1.12,-57.47,0.7,0.08637600000000001,0.006344,-1.051152,2
2024-06-14 12:21:41.319,-4.62,-57.54,1.12,0.0366,-0.027327999999999998,-1.0760399999999999,2
2024-06-14 12:21:41.324,-3.5,-57.89,2.03,0.054168,0.00488,-1.074576,2
2024-06-14 12:21:41.329,-4.97,-58.8,2.87,0.06831999999999999,-0.008296,-1.063352,2
2024-06-14 12:21:41.333,-5.6,-59.78,2.59,0.041968,0.01952,-1.099464,2
2024-06-14 12:21:41.338,-3.78,-59.43,2.1,0.08003199999999999,0.000976,-1.0755519999999998,2
2024-06-14 12:21:41.343,-4.34,-58.31,1.96,0.06588,0.015616,-1.092632,2
2024-06-14 12:21:41.348,-3.01,-59.57,2.52,0.066856,0.014152,-1.089216,2
2024-06-14 12:21:41.353,-2.66,-58.17,3.01,0.08491199999999999,0.010736,-1.0853119999999998,2
2024-06-14 12:21:41.358,-3.22,-58.24,3.36,0.085888,0.005368,-1.08824,2
2024-06-14 12:21:41.362,-2.24,-57.82,3.08,0.098088,0.022448,-1.0887280000000001,2
2024-06-14 12:21:41.367,-0.7,-57.33,3.22,0.09467199999999999,0.013176,-1.103368,2
2024-06-14 12:21:41.372,1.05,-57.26,2.94,0.099064,0.011224,-1.098976,2
2024-06-14 12:21:41.377,2.31,-56.84,3.29,0.09759999999999999,0.002928,-1.123376,2
2024-06-14 12:21:41.382,-1.47,-54.46,3.01,0.106872,0.009272,-1.1350879999999999,2
2024-06-14 12:21:41.387,-2.66,-56.35,3.08,0.099064,0.008783999999999998,-1.1326479999999999,2
2024-06-14 12:21:41.391,-4.2,-59.15,3.01,0.10492,-0.010736,-1.111176,2
2024-06-14 12:21:41.396,-4.76,-60.27,3.5,0.115656,-0.015128,-1.090192,2
2024-06-14 12:21:41.401,-3.08,-61.95,4.55,0.13566399999999998,-0.02684,-1.102392,2
2024-06-14 12:21:41.406,-4.48,-60.69,4.97,0.136152,-0.014152,-1.10044,2
2024-06-14 12:21:41.411,-4.62,-61.88,5.53,0.14152,-0.026352,-1.112152,2
2024-06-14 12:21:41.416,-3.29,-63.42,6.58,0.13956799999999997,-0.022448,-1.143872,2
2024-06-14 12:21:41.420,-1.61,-64.75,6.86,0.15372,-0.010248,-1.152656,2
2024-06-14 12:21:41.425,6.23,-67.9,8.82,0.150792,-0.048799999999999996,-1.192184,2
2024-06-14 12:21:41.430,6.44,-73.36,8.96,0.158112,0.055144,-1.22732,2
2024-06-14 12:21:41.435,2.94,-80.22,8.4,0.157624,-0.05368,-1.235128,2
2024-06-14 12:21:41.440,5.6,-83.23,9.45,0.17812,-0.0366,-1.21756,2
2024-06-14 12:21:41.445,11.55,-78.19,10.15,0.176656,0.03904,-1.230248,2
2024-06-14 12:21:41.449,13.09,-80.36,9.59,0.180072,0.07466400000000001,-1.230248,2
2024-06-14 12:21:41.454,17.29,-83.3,8.54,0.189832,0.036112000000000005,-1.2526959999999998,2
2024-06-14 12:21:41.459,19.67,-87.22,8.12,0.19519999999999998,0.01952,-1.277096,2
2024-06-14 12:21:41.464,22.96,-91.0,7.77,0.184952,0.018544,-1.319064,3
2024-06-14 12:21:41.469,22.47,-97.02,8.05,0.199592,-0.038064,-1.321504,3
2024-06-14 12:21:41.474,23.87,-100.87,7.91,0.197152,0.05368,-1.321992,3
2024-06-14 12:21:41.478,25.34,-106.68,6.79,0.200568,0.015616,-1.356152,3
2024-06-14 12:21:41.482,26.53,-112.63,6.3,0.20496,0.02928,-1.343464,3
2024-06-14 12:21:41.487,27.16,-118.09,5.53,0.21716,0.021472,-1.375672,3
2024-06-14 12:21:41.492,27.44,-124.74,4.97,0.220088,0.03904,-1.369816,3
2024-06-14 12:21:41.497,31.08,-130.9,4.27,0.227408,0.047335999999999996,-1.379576,3
2024-06-14 12:21:41.502,34.86,-137.41,2.8,0.229848,0.09272,-1.3981199999999998,3
2024-06-14 12:21:41.507,38.71,-143.5,1.19,0.235216,0.08003199999999999,-1.403488,3
2024-06-14 12:21:41.511,43.05,-150.85,0.0,0.23179999999999998,0.06734399999999999,-1.432768,3
2024-06-14 12:21:41.516,46.83,-159.04,-0.98,0.23326399999999997,0.06734399999999999,-1.453752,3
2024-06-14 12:21:41.521,49.56,-168.14,-2.03,0.22691999999999998,0.06734399999999999,-1.501576,3
2024-06-14 12:21:41.526,51.66,-178.01,-2.87,0.23668,0.033671999999999994,-1.5342719999999999,3
2024-06-14 12:21:41.531,54.04,-187.88,-2.73,0.23668,0.003904,-1.549888,3
2024-06-14 12:21:41.536,55.93,-198.24,-2.87,0.240584,-0.014152,-1.599176,3
2024-06-14 12:21:41.540,53.55,-211.33,-2.8,0.238144,-0.027327999999999998,-1.653832,3
2024-06-14 12:21:41.545,46.2,-229.88,-1.26,0.255712,-0.018056000000000003,-1.772416,3
2024-06-14 12:21:41.550,57.75,-239.68,-0.21,0.240584,-0.06831999999999999,-1.714344,3
2024-06-14 12:21:41.555,57.68,-255.64,1.26,0.23082399999999997,-0.044408,-1.796816,3
2024-06-14 12:21:41.560,56.91,-273.21,2.52,0.242048,-0.032695999999999996,-1.8773360000000001,3
2024-06-14 12:21:41.565,57.89,-290.64,3.5,0.236192,-0.061975999999999996,-1.95932,3
2024-06-14 12:21:41.569,58.03,-308.28,4.9,0.217648,-0.079056,-2.021296,3
2024-06-14 12:21:41.574,57.05,-327.39,6.3,0.19519999999999998,-0.096136,-2.048624,3
2024-06-14 12:21:41.579,54.6,-350.14,7.84,0.18544,-0.11419199999999999,-2.1550079999999996,3
2024-06-14 12:21:41.584,54.25,-371.98,8.89,0.192272,-0.056119999999999996,-2.298968,3
2024-06-14 12:21:41.589,50.54,-395.08,8.26,0.27864799999999995,0.00732,-2.44976,3
2024-06-14 12:21:41.594,49.7,-416.99,5.53,0.357704,-0.045872,-2.785992,3
2024-06-14 12:21:41.599,47.95,-440.09,6.23,0.37088,-0.078568,-2.89628,3
2024-06-14 12:21:41.603,44.66,-457.94,5.11,0.376736,-0.13176,-3.218848,3
2024-06-14 12:21:41.608,47.11,-484.82,6.79,0.338672,-0.31476,-3.256912,3
2024-06-14 12:21:41.613,46.9,-505.89,8.61,0.3172,-0.27571999999999997,-3.551176,3
2024-06-14 12:21:41.618,40.6,-522.83,9.1,0.46115999999999996,-0.231312,-3.8122559999999996,3
2024-06-14 12:21:41.623,36.68,-542.01,13.37,0.32744799999999996,-0.121512,-3.8322640000000003,3
2024-06-14 12:21:41.628,10.29,-557.27,11.69,0.34794400000000003,0.042455999999999994,-3.8620319999999997,3
2024-06-14 12:21:41.632,3.92,-572.46,6.86,0.145424,-0.172264,-3.585824,3
2024-06-14 12:21:41.637,6.44,-580.37,3.08,-0.11663199999999999,-0.305,-3.27936,3
2024-06-14 12:21:41.642,13.44,-584.01,6.72,-0.31768799999999997,-0.26400799999999996,-3.194936,3
2024-06-14 12:21:41.647,1.82,-593.46,7.98,-0.433832,-0.039528,-3.4774879999999997,3
2024-06-14 12:21:41.652,-2.38,-594.3,2.87,-0.5958479999999999,-0.03172,-2.938248,3
2024-06-14 12:21:41.657,-1.33,-582.75,-1.47,-1.073112,-0.189832,-2.489776,3
2024-06-14 12:21:41.661,6.51,-556.43,2.66,-1.4083679999999998,-0.45676799999999995,-1.761192,3
2024-06-14 12:21:41.666,12.6,-501.97,7.98,-1.774856,-0.616832,-1.511824,3
2024-06-14 12:21:41.671,33.25,-443.1,21.42,-1.520608,-0.772992,-1.726056,3
2024-06-14 12:21:41.676,49.98,-381.22,30.73,-1.657248,-0.61,-1.646512,3
2024-06-14 12:21:41.681,58.66,-312.2,29.19,-0.8535119999999999,-0.36844,-0.83936,3
2024-06-14 12:21:41.686,52.22,-224.42,19.67,-0.9764879999999999,-0.19910399999999998,-1.431792,3
2024-06-14 12:21:41.691,33.88,-70.63,10.92,-2.340448,0.29377600000000004,-1.6133279999999999,4
2024-06-14 12:21:41.695,-1.89,44.17,-7.84,-2.302872,0.611952,-1.258552,4
2024-06-14 12:21:41.700,-50.82,122.5,-23.03,-1.49084,0.40259999999999996,-1.5220719999999999,4
2024-06-14 12:21:41.705,-93.59,167.44,-28.84,-1.12972,0.26352,-1.859768,4
2024-06-14 12:21:41.710,-116.97,188.37,-29.68,-1.11996,0.112728,-1.784616,4
2024-06-14 12:21:41.715,-127.47,199.64,-24.85,-1.11752,-0.06783199999999999,-1.492792,4
2024-06-14 12:21:41.720,-130.41,209.65,-14.28,-1.074088,-0.211792,-1.255624,4
2024-06-14 12:21:41.724,-125.72,219.52,0.28,-1.032608,-0.320616,-1.1067839999999998,4
2024-06-14 12:21:41.729,-114.1,233.31,17.29,-0.9916159999999999,-0.39967199999999997,-1.0043039999999999,4
2024-06-14 12:21:41.734,-98.84,249.2,35.28,-0.945744,-0.42212,-0.931592,4
2024-06-14 12:21:41.739,-83.65,265.58,53.27,-0.90524,-0.409432,-0.8681519999999999,4
2024-06-14 12:21:41.744,-69.72,283.29,70.77,-0.876936,-0.37088,-0.842776,4
2024-06-14 12:21:41.749,-60.13,302.26,87.29,-0.848144,-0.296704,-0.847656,4
2024-06-14 12:21:41.753,-55.37,321.16,102.27,-0.805688,-0.19763999999999998,-0.8583919999999999,4
2024-06-14 12:21:41.758,-55.51,336.63,115.36,-0.755912,-0.115656,-0.8857200000000001,4
2024-06-14 12:21:41.763,-59.43,349.02,126.49,-0.7032079999999999,-0.061975999999999996,-0.9184159999999999,4
2024-06-14 12:21:41.768,-64.82,357.28,135.52,-0.643672,-0.033184,-0.9394,4
2024-06-14 12:21:41.773,-69.86,363.65,142.52,-0.581208,-0.02684,-0.960384,4
2024-06-14 12:21:41.778,-71.96,368.9,147.84,-0.528504,-0.037088,-0.99552,4
2024-06-14 12:21:41.783,-70.63,371.28,151.27,-0.486536,-0.061,-1.047248,4
2024-06-14 12:21:41.787,-65.17,374.71,152.81,-0.43432,-0.06831999999999999,-1.0677439999999998,4
2024-06-14 12:21:41.792,-58.17,379.61,152.04,-0.40845600000000004,-0.06734399999999999,-1.079456,4
2024-06-14 12:21:41.797,-51.03,384.79,149.52,-0.394304,-0.06734399999999999,-1.1223999999999998,4
2024-06-14 12:21:41.802,-43.61,390.18,145.39,-0.367952,-0.049775999999999994,-1.1746159999999999,4
2024-06-14 12:21:41.807,-37.52,396.69,139.3,-0.330864,-0.023912,-1.2214639999999999,4
2024-06-14 12:21:41.812,-33.67,404.04,131.25,-0.305,-0.016592,-1.277584,4
2024-06-14 12:21:41.816,-31.29,410.62,122.01,-0.27620799999999995,-0.021472,-1.3468799999999999,4
2024-06-14 12:21:41.821,-29.33,416.15,112.0,-0.23668,-0.03904,-1.409832,4
2024-06-14 12:21:41.826,-25.97,421.4,101.57,-0.200568,-0.07222400000000001,-1.45912,4
2024-06-14 12:21:41.831,-20.37,426.09,90.93,-0.154208,-0.11858400000000001,-1.5006,4
2024-06-14 12:21:41.836,-12.88,429.66,80.29,-0.09955199999999999,-0.16591999999999998,-1.559648,4
2024-06-14 12:21:41.841,-3.71,430.85,69.93,-0.04636,-0.2196,-1.624552,4
2024-06-14 12:21:41.845,6.44,430.01,60.2,0.000976,-0.25912799999999997,-1.668472,4
2024-06-14 12:21:41.850,17.71,426.93,51.03,0.042455999999999994,-0.299144,-1.711904,4
2024-06-14 12:21:41.855,28.42,424.97,42.63,0.093208,-0.31964,-1.7777839999999998,4
2024-06-14 12:21:41.860,37.94,421.12,34.37,0.14103200000000002,-0.328912,-1.855864,4
2024-06-14 12:21:41.865,48.3,418.25,26.6,0.17275200000000002,-0.355264,-1.8768479999999998,4
2024-06-14 12:21:41.870,57.4,417.83,19.25,0.180072,-0.366,-1.9153999999999998,4
2024-06-14 12:21:41.874,62.72,416.78,12.25,0.22204,-0.354288,-2.004216,4
2024-06-14 12:21:41.879,67.13,416.85,4.83,0.272304,-0.34208799999999995,-2.0744879999999997,4
2024-06-14 12:21:41.884,70.21,416.43,-2.87,0.289872,-0.35136,-2.1384160000000003,4
2024-06-14 12:21:41.889,73.22,416.36,-10.43,0.306464,-0.360144,-2.197952,4
2024-06-14 12:21:41.894,76.65,416.85,-17.78,0.331352,-0.380152,-2.290672,4
2024-06-14 12:21:41.899,80.5,417.97,-25.06,0.37332,-0.391376,-2.3912,4
2024-06-14 12:21:41.904,84.98,417.41,-32.62,0.427,-0.396744,-2.4878240000000003,4
2024-06-14 12:21:41.908,89.74,417.76,-40.32,0.496296,-0.409432,-2.573224,4
2024-06-14 12:21:41.913,94.71,417.48,-48.02,0.579744,-0.427976,-2.6586239999999997,4
2024-06-14 12:21:41.918,100.03,415.03,-55.37,0.681248,-0.445056,-2.733288,4
2024-06-14 12:21:41.923,105.77,412.3,-62.44,0.795928,-0.47189600000000004,-2.79868,4
2024-06-14 12:21:41.928,110.95,408.1,-69.23,0.909632,-0.496784,-2.852848,4
2024-06-14 12:21:41.933,116.27,402.85,-75.39,1.029192,-0.53192,-2.903112,4
2024-06-14 12:21:41.937,121.1,395.99,-80.71,1.1575360000000001,-0.564616,-2.93288,4
2024-06-14 12:21:41.942,126.7,388.85,-85.33,1.304912,-0.57828,-2.858216,4
2024-06-14 12:21:41.947,138.53,381.5,-90.16,1.3093039999999998,-0.384544,-2.745488,4
2024-06-14 12:21:41.952,175.84,373.03,-95.83,1.402024,-0.28548,-2.826008,4
2024-06-14 12:21:41.957,204.19,366.87,-98.7,1.717272,-0.193248,-2.907504,4
2024-06-14 12:21:41.962,213.15,358.68,-99.82,1.9822559999999998,0.031232,-2.988024,4
2024-06-14 12:21:41.966,210.49,349.86,-102.76,2.234064,0.188856,-2.9036,4
2024-06-14 12:21:41.971,197.75,340.62,-106.47,2.525888,0.35868,-2.795264,4
2024-06-14 12:21:41.976,176.54,329.07,-111.58,2.823568,0.46164799999999995,-2.665944,4
2024-06-14 12:21:41.981,149.31,312.27,-117.04,3.140768,0.491904,-2.524424,4
2024-06-14 12:21:41.986,118.3,289.24,-120.12,3.468216,0.433344,-2.364848,4
2024-06-14 12:21:41.991,87.5,263.69,-117.32,3.8064,0.21716,-2.1525679999999996,4
2024-06-14 12:21:41.996,63.42,234.78,-104.72,4.136776,-0.049775999999999994,-1.9266240000000001,4
2024-06-14 12:21:42.000,53.55,206.43,-81.41,4.471544,-0.313784,-1.719712,4
2024-06-14 12:21:42.005,56.98,177.1,-48.86,4.8102160000000005,-0.48312,-1.570384,4
2024-06-14 12:21:42.010,72.31,145.32,-10.78,5.110336,-0.46603999999999995,-1.461072,4
2024-06-14 12:21:42.015,93.45,111.65,27.02,5.291872000000001,-0.250344,-1.380552,4
2024-06-14 12:21:42.020,108.22,75.04,59.29,5.347504,0.149816,-1.353224,4
2024-06-14 12:21:42.025,109.76,37.52,79.66,5.2655199999999995,0.635864,-1.315648,4
2024-06-14 12:21:42.029,90.37,-2.8,87.92,5.057632,1.037,-1.362984,4
2024-06-14 12:21:42.034,55.72,-40.88,85.33,4.8004560000000005,1.3644479999999999,-1.374208,4
2024-06-14 12:21:42.039,9.31,-77.28,73.22,4.455928,1.430328,-1.399096,4
2024-06-14 12:21:42.044,-38.15,-105.77,57.96,4.099688,1.2424479999999998,-1.479616,0
2024-06-14 12:21:42.049,-264.81,-325.57,44.03,5.6769039999999995,-0.394792,-7.34684,0
