time,gyroscope_x,gyroscope_y,gyroscope_z,accelerometer_x,accelerometer_y,accelerometer_z,phase
2024-06-14 09:33:24.057,274.715,-443.065,66.325,0.26815599999999995,-1.028216,-7.324147999999999,1
2024-06-14 09:33:24.061,204.75,-279.3,51.135000000000005,-3.2017679999999995,-0.399428,0.03318399999999999,1
2024-06-14 09:33:24.066,311.57,-217.66500000000002,51.905,-3.8578840000000003,0.496784,0.606584,1
2024-06-14 09:33:24.071,289.345,-295.53999999999996,34.230000000000004,-1.9232079999999998,-0.31183199999999994,-1.4400879999999998,1
2024-06-14 09:33:24.076,269.18499999999995,-313.04,28.98,0.24351199999999998,-0.554856,-2.4370719999999997,1
2024-06-14 09:33:24.081,233.065,-300.05499999999995,34.3,1.31882,0.093452,-1.564284,1
2024-06-14 09:33:24.085,195.57999999999998,-313.425,45.955,1.4891320000000001,0.262544,-1.166076,1
2024-06-14 09:33:24.090,119.945,-313.075,63.245,0.428952,-0.013663999999999999,-1.9446800000000002,1
2024-06-14 09:33:24.095,47.459999999999994,-292.145,83.37,-0.50508,0.005612,-2.31312,1
2024-06-14 09:33:24.100,17.71,-278.28499999999997,89.705,-0.43602799999999997,-0.282308,-2.193072,1
2024-06-14 09:33:24.105,19.915,-273.595,75.565,0.12956399999999998,-0.63928,-2.076684,1
2024-06-14 09:33:24.109,34.370000000000005,-280.80499999999995,49.665000000000006,0.317932,-0.8027599999999999,-2.127924,1
2024-06-14 09:33:24.113,33.355,-265.65,22.75,0.106872,-0.5846239999999999,-2.0244679999999997,1
2024-06-14 09:33:24.118,38.71,-238.595,1.925,-0.046604,-0.48287599999999997,-1.928088,1
2024-06-14 09:33:24.123,43.505,-210.245,-11.935,0.028303999999999996,-0.14884,-1.857084,1
2024-06-14 09:33:24.128,50.260000000000005,-174.3,-13.684999999999999,0.08418,0.068076,-1.62748,1
2024-06-14 09:33:24.133,42.455,-134.47,-2.835,0.103212,0.26888799999999996,-1.574776,1
2024-06-14 09:33:24.137,33.39,-95.515,14.629999999999999,0.026108,0.292556,-1.3610319999999998,1
2024-06-14 09:33:24.142,23.275,-70.875,22.855,0.01586,0.039284000000000006,-1.281976,1
2024-06-14 09:33:24.147,16.8,-59.57,24.08,0.0366,0.11223999999999999,-1.18828,1
2024-06-14 09:33:24.152,12.355,-47.32,22.12,0.09735599999999998,-0.094672,-1.189012,2
2024-06-14 09:33:24.157,9.485,-37.03,17.255,-0.037332000000000004,-0.09076799999999999,-1.075552,2
2024-06-14 09:33:24.162,8.190000000000001,-30.1,10.955,-0.08515600000000001,-0.052216,-1.05774,2
2024-06-14 09:33:24.166,6.58,-22.82,7.665000000000001,-0.054167999999999994,0.005612000000000001,-1.031632,2
2024-06-14 09:33:24.171,5.109999999999999,-19.25,7.385,-0.037088,0.0060999999999999995,-1.032608,2
2024-06-14 09:33:24.176,2.87,-15.785,7.84,-0.04514,-0.012444,-1.0291919999999999,2
2024-06-14 09:33:24.181,2.065,-14.280000000000001,7.035,-0.069784,-0.017079999999999998,-1.016748,2
2024-06-14 09:33:24.186,1.7149999999999999,-12.075,5.32,-0.058804,-0.0036599999999999996,-1.022848,2
2024-06-14 09:33:24.190,1.33,-9.975,4.199999999999999,-0.046116000000000004,0.00854,-1.022848,2
2024-06-14 09:33:24.195,1.19,-8.26,3.92,-0.06075599999999999,0.027327999999999998,-1.009428,2
2024-06-14 09:33:24.200,1.365,-7.455,3.675,-0.074908,0.037088,-0.999668,2
2024-06-14 09:33:24.205,2.275,-7.035,3.29,-0.081252,0.029524,-0.99552,2
2024-06-14 09:33:24.210,2.835,-6.825,2.6950000000000003,-0.070028,0.024644,-1.0023520000000001,2
2024-06-14 09:33:24.215,3.15,-5.984999999999999,2.31,-0.065636,0.020252,-1.016748,2
2024-06-14 09:33:24.219,3.1849999999999996,-5.04,1.75,-0.059292,0.022692,-1.0108920000000001,2
2024-06-14 09:33:24.224,3.43,-4.83,1.4,-0.06222,0.016104,-1.0091839999999999,2
2024-06-14 09:33:24.229,3.675,-4.585,1.19,-0.071492,0.018788,-1.009916,2
2024-06-14 09:33:24.234,3.92,-4.27,0.98,-0.078324,0.016592,-1.0023520000000001,2
2024-06-14 09:33:24.239,4.199999999999999,-3.71,0.525,-0.078812,0.011467999999999999,-1.00284,2
2024-06-14 09:33:24.243,4.375,-3.5700000000000003,0.07,-0.072712,0.004880000000000001,-0.999668,2
2024-06-14 09:33:24.248,4.445,-3.8499999999999996,-0.06999999999999999,-0.07076,0.0053679999999999995,-0.9986919999999999,2
2024-06-14 09:33:24.253,4.27,-3.885,-0.14,-0.06783199999999999,0.0034159999999999998,-0.99674,2
2024-06-14 09:33:24.258,4.13,-4.025,-0.245,-0.06612399999999999,0.004148,-1.00162,2
2024-06-14 09:33:24.263,3.885,-3.955,-0.27999999999999997,-0.06588,0.006344000000000001,-1.000888,2
2024-06-14 09:33:24.268,3.535,-4.34,-0.315,-0.062952,0.005611999999999999,-0.9964959999999998,2
2024-06-14 09:33:24.272,3.185,-4.83,-0.10500000000000001,-0.067588,0.005856,-0.999668,2
2024-06-14 09:33:24.277,2.94,-5.32,-0.14,-0.06734399999999999,-0.000244,-1.0011320000000001,2
2024-06-14 09:33:24.282,2.835,-6.23,-0.21,-0.06734399999999999,0.002196,-1.00528,2
2024-06-14 09:33:24.287,2.59,-7.140000000000001,-0.175,-0.06612399999999999,0.00488,-1.0011320000000001,2
2024-06-14 09:33:24.292,2.415,-8.26,-0.175,-0.065148,0.0075639999999999995,-1.0004,2
2024-06-14 09:33:24.296,2.31,-9.205,-0.28,-0.071004,0.0026839999999999998,-1.004548,2
2024-06-14 09:33:24.301,2.415,-10.29,-0.35,-0.06612399999999999,0.011712,-0.999668,2
2024-06-14 09:33:24.306,2.5549999999999997,-11.025,-0.315,-0.07466400000000001,0.0122,-1.000888,2
2024-06-14 09:33:24.311,2.94,-11.620000000000001,-0.56,-0.07075999999999999,0.011712,-0.9982039999999999,2
2024-06-14 09:33:24.316,3.185,-11.76,-0.665,-0.06466,0.014884000000000001,-0.9950319999999999,2
2024-06-14 09:33:24.321,3.5,-11.795,-0.7,-0.06222,0.012688,-0.9916159999999999,2
2024-06-14 09:33:24.325,3.675,-11.27,-0.9450000000000001,-0.063196,0.012931999999999999,-0.9974719999999999,2
2024-06-14 09:33:24.330,3.92,-11.235,-1.225,-0.062464,0.01708,-1.000888,2
2024-06-14 09:33:24.335,4.165,-11.13,-1.4,-0.059536000000000006,0.016835999999999997,-0.999912,2
2024-06-14 09:33:24.340,4.27,-11.969999999999999,-1.505,-0.059048,0.009271999999999999,-0.995276,2
2024-06-14 09:33:24.345,5.355,-12.075,-1.6800000000000002,-0.05978,0.019763999999999997,-1.000888,2
2024-06-14 09:33:24.349,4.62,-12.635000000000002,-1.8900000000000001,-0.058072,0.00854,-1.00162,2
2024-06-14 09:33:24.354,4.9,-12.844999999999999,-1.96,-0.048312,0.015616,-1.0004,2
2024-06-14 09:33:24.359,4.795,-13.370000000000001,-2.135,-0.049532,0.011467999999999999,-1.0035720000000001,2
2024-06-14 09:33:24.364,4.795,-14.629999999999999,-2.24,-0.055388,0.008296,-1.0065,2
2024-06-14 09:33:24.369,-4.865,-23.8,-2.835,-0.06099999999999999,0.009272,-1.017968,2
2024-06-14 09:33:24.374,2.38,-18.235000000000003,-2.5549999999999997,-0.055632,0.010735999999999999,-1.0072320000000001,2
2024-06-14 09:33:24.378,7.875,-18.655,-2.205,-0.044652,0.010248,-1.0116239999999999,2
2024-06-14 09:33:24.383,2.8,-18.76,-3.5,-0.045384,0.009516,-1.006988,2
2024-06-14 09:33:24.388,7.21,-20.369999999999997,-3.64,-0.04392,0.008539999999999999,-1.013576,2
2024-06-14 09:33:24.393,4.48,-21.77,-3.465,-0.046848,0.009272,-1.013576,2
2024-06-14 09:33:24.398,6.475,-23.8,-3.045,-0.045628,0.007807999999999999,-1.017236,2
2024-06-14 09:33:24.402,7.7,-29.05,-3.745,-0.05246,0.008784,-1.0250439999999998,2
2024-06-14 09:33:24.407,6.404999999999999,-26.32,-4.48,-0.044652000000000004,0.01342,-1.0230920000000001,2
2024-06-14 09:33:24.412,9.975,-30.065,-4.025,-0.044408,0.010735999999999999,-1.0352919999999999,2
2024-06-14 09:33:24.417,8.75,-32.34,-4.095,-0.035379999999999995,0.010735999999999999,-1.0348039999999998,2
2024-06-14 09:33:24.422,11.97,-36.33,-3.99,-0.034404000000000004,0.01464,-1.0311439999999998,2
2024-06-14 09:33:24.427,16.835,-37.66,-3.815,-0.027572,0.0075639999999999995,-1.047492,2
2024-06-14 09:33:24.431,21.805,-45.955,-3.5,-0.03781999999999999,0.00854,-1.054324,2
2024-06-14 09:33:24.436,26.95,-44.065,-3.045,-0.027572,0.029524,-1.077748,2
2024-06-14 09:33:24.441,37.974999999999994,-47.845,-1.435,-0.024399999999999998,0.009271999999999999,-1.0579839999999998,2
2024-06-14 09:33:24.446,42.875,-54.67,-1.19,-0.012199999999999999,0.0075639999999999995,-1.0511519999999999,2
2024-06-14 09:33:24.451,48.405,-64.82,-0.7,0.0,0.008539999999999999,-1.026996,2
2024-06-14 09:33:24.455,50.19,-74.86500000000001,-0.28,0.0031719999999999995,-0.045384,-1.064816,2
2024-06-14 09:33:24.460,50.120000000000005,-87.85,1.96,-0.006344,-0.027816,-1.104832,2
2024-06-14 09:33:24.465,47.04,-95.55000000000001,3.045,-0.022448,-0.110288,-1.228784,2
2024-06-14 09:33:24.470,29.470000000000002,-92.36500000000001,2.0300000000000002,-0.054167999999999994,-0.09223200000000001,-1.47742,2
2024-06-14 09:33:24.475,8.855,-86.275,-1.68,0.000976,-0.017324000000000006,-1.1580240000000002,2
2024-06-14 09:33:24.480,7.244999999999999,-90.965,-0.245,0.007807999999999999,-0.09930800000000001,-1.237324,2
2024-06-14 09:33:24.484,5.390000000000001,-95.16499999999999,0.77,0.005612000000000001,-0.031232,-1.2175600000000002,2
2024-06-14 09:33:24.489,1.05,-100.765,0.525,0.016592,-0.063928,-1.2600159999999998,2
2024-06-14 09:33:24.494,-1.2599999999999998,-105.07,0.91,0.014152,-0.077104,-1.3027159999999998,2
2024-06-14 09:33:24.499,-4.76,-110.6,1.54,0.017811999999999998,-0.060023999999999994,-1.30662,2
2024-06-14 09:33:24.504,-7.84,-116.16499999999999,2.24,0.017568,-0.08149599999999999,-1.35664,2
2024-06-14 09:33:24.509,-8.855,-121.905,3.325,0.025132,-0.060756,-1.341756,2
2024-06-14 09:33:24.513,-10.745000000000001,-127.505,3.71,0.037332000000000004,-0.047336,-1.353468,2
2024-06-14 09:33:24.518,-13.58,-133.45499999999998,3.185,0.041968000000000005,-0.06344,-1.341756,2
2024-06-14 09:33:24.523,-17.57,-139.3,3.7800000000000002,0.04636,-0.093696,-1.3668879999999999,2
2024-06-14 09:33:24.528,-21.28,-144.79500000000002,4.76,0.050752,-0.101016,-1.354932,3
2024-06-14 09:33:24.533,-26.705,-150.535,5.53,0.053924,-0.095892,-1.364204,3
2024-06-14 09:33:24.537,-35.209999999999994,-157.08,5.8100000000000005,0.06222,-0.12468399999999999,-1.4015360000000001,3
2024-06-14 09:33:24.542,-38.92,-164.95499999999998,6.859999999999999,0.057096,-0.12175599999999999,-1.44814,3
2024-06-14 09:33:24.547,-43.364999999999995,-173.74,7.5600000000000005,0.046604,-0.082228,-1.499868,3
2024-06-14 09:33:24.552,-45.78,-184.27499999999998,7.595,0.056852,-0.040260000000000004,-1.544276,3
2024-06-14 09:33:24.557,-49.175,-195.72,6.545,0.04392,-0.01342,-1.5847799999999999,3
2024-06-14 09:33:24.562,-47.879999999999995,-209.44,5.53,0.042212,0.010248000000000002,-1.6011279999999999,3
2024-06-14 09:33:24.566,-45.010000000000005,-223.195,4.025,0.039527999999999994,0.06222,-1.638704,3
2024-06-14 09:33:24.571,-42.105000000000004,-238.07,1.68,0.031232,0.096868,-1.6362640000000002,3
2024-06-14 09:33:24.576,-37.975,-252.76999999999998,-1.26,0.017812,0.096136,-1.646268,3
2024-06-14 09:33:24.581,-36.33,-269.71,-4.41,0.010492,0.13298000000000001,-1.647244,3
2024-06-14 09:33:24.586,-38.465,-286.405,-8.469999999999999,-0.003904,0.11516799999999999,-1.6552959999999999,3
2024-06-14 09:33:24.590,-41.195,-305.34000000000003,-11.305,-0.010492000000000001,0.021472,-1.80438,3
2024-06-14 09:33:24.595,-44.765,-329.49,-12.39,-0.013420000000000001,-0.06514800000000001,-1.9393120000000001,3
2024-06-14 09:33:24.600,-41.965,-353.99,-12.565,0.003659999999999999,-0.01342,-2.02764,3
2024-06-14 09:33:24.605,-37.379999999999995,-378.595,-14.350000000000001,-0.0068319999999999995,0.09881999999999999,-2.059604,3
2024-06-14 09:33:24.610,-31.5,-402.53499999999997,-18.060000000000002,-0.015372,0.218868,-2.008852,3
2024-06-14 09:33:24.615,-25.375,-426.09000000000003,-22.47,0.018788,0.24375599999999997,-2.0403279999999997,3
2024-06-14 09:33:24.619,-21.945,-447.86,-24.185000000000002,0.101992,0.034648,-2.203076,3
2024-06-14 09:33:24.624,-17.92,-466.095,-18.41,0.218136,-0.189344,-2.49124,3
2024-06-14 09:33:24.629,-20.79,-480.935,-9.905,0.36234,-0.270108,-2.76208,3
2024-06-14 09:33:24.634,-24.78,-494.16499999999996,-0.20999999999999996,0.46799199999999996,-0.275232,-3.0973360000000003,3
2024-06-14 09:33:24.639,-33.25,-502.88,5.845,0.410164,-0.135908,-2.959476,3
2024-06-14 09:33:24.643,-24.534999999999997,-508.515,11.305,0.40747999999999995,0.06124399999999999,-3.201036,3
2024-06-14 09:33:24.648,-30.03,-511.07,11.83,0.35038400000000003,0.171044,-3.085136,3
2024-06-14 09:33:24.653,-51.730000000000004,-511.07,8.295,0.2623,0.284992,-2.9553279999999997,3
2024-06-14 09:33:24.655,-57.224999999999994,-510.15999999999997,0.63,0.154208,0.273524,-3.056832,3
2024-06-14 09:33:24.660,-52.71,-508.935,-3.6750000000000003,0.16567600000000002,0.19178399999999998,-2.93166,3
2024-06-14 09:33:24.665,-53.620000000000005,-507.99,-10.99,0.05978,0.16104000000000002,-2.6986399999999997,3
2024-06-14 09:33:24.669,-49.56,-503.895,-18.025,0.051239999999999994,0.005611999999999999,-2.84992,3
2024-06-14 09:33:24.674,-36.015,-499.345,-24.08,0.245952,0.029036000000000003,-2.944104,3
2024-06-14 09:33:24.679,-8.434999999999999,-477.365,-21.28,0.145668,0.11516799999999999,-3.001932,3
2024-06-14 09:33:24.684,5.985,-456.12,-22.855,0.018788,0.309392,-2.76818,3
2024-06-14 09:33:24.689,23.205,-423.71000000000004,-25.585,-0.575108,0.3965,-2.262856,3
2024-06-14 09:33:24.694,31.92,-374.605,-31.36,-1.2404959999999998,0.366,-1.98494,3
2024-06-14 09:33:24.699,25.865,-314.93,-46.41,-1.7748559999999998,0.349896,-1.501576,3
2024-06-14 09:33:24.703,9.38,-263.83,-51.66,-2.24968,0.513864,-1.432524,3
2024-06-14 09:33:24.708,-28.174999999999997,-217.49,-91.525,-1.59332,0.561932,-1.28466,3
2024-06-14 09:33:24.713,-25.235,-230.51,-105.7,-1.00772,0.8227679999999999,-0.09467199999999999,4
2024-06-14 09:33:24.718,-14.559999999999999,-175.91000000000003,-110.985,-1.3134519999999998,0.380884,-1.891,4
2024-06-14 09:33:24.723,-37.519999999999996,-75.495,-122.28999999999999,-1.5547680000000001,0.18324400000000002,-1.7660719999999999,4
2024-06-14 09:33:24.728,-40.144999999999996,-25.935000000000002,-128.03,-1.307108,-0.010491999999999998,-1.3114999999999999,4
2024-06-14 09:33:24.732,-14.280000000000001,1.6799999999999997,-122.15,-1.103856,-0.145424,-1.2197559999999998,4
2024-06-14 09:33:24.737,17.15,26.005,-110.845,-1.040416,-0.15079199999999998,-1.316624,4
2024-06-14 09:33:24.742,42.07,39.725,-98.97999999999999,-0.9506239999999999,-0.09638,-1.274656,4
2024-06-14 09:33:24.747,55.510000000000005,45.71,-87.43,-0.86864,-0.016592,-1.130696,4
2024-06-14 09:33:24.752,60.34,52.045,-75.355,-0.864004,0.06368399999999999,-0.964532,4
2024-06-14 09:33:24.757,59.255,60.795,-63.489999999999995,-0.893284,0.12932,-0.823256,4
2024-06-14 09:33:24.762,53.724999999999994,71.575,-52.745000000000005,-0.893528,0.186416,-0.7202879999999999,4
2024-06-14 09:33:24.766,45.675,85.155,-43.295,-0.884744,0.21667199999999998,-0.653432,4
2024-06-14 09:33:24.771,36.82,100.695,-34.615,-0.882548,0.224236,-0.60878,4
2024-06-14 09:33:24.776,28.21,117.11,-26.215,-0.881572,0.203252,-0.570716,4
2024-06-14 09:33:24.781,21.0,134.05,-18.235,-0.869372,0.17665599999999998,-0.5358240000000001,4
2024-06-14 09:33:24.786,16.94,151.445,-10.57,-0.8532679999999999,0.14835199999999998,-0.518744,4
2024-06-14 09:33:24.791,15.05,168.35,-3.5,-0.8313079999999999,0.11224,-0.512888,4
2024-06-14 09:33:24.795,15.05,184.73000000000002,3.325,-0.809836,0.08710799999999999,-0.504348,4
2024-06-14 09:33:24.800,16.17,200.515,9.555,-0.7844599999999999,0.071736,-0.518988,4
2024-06-14 09:33:24.805,17.71,216.09,14.77,-0.76006,0.069052,-0.52582,4
2024-06-14 09:33:24.810,19.810000000000002,230.755,18.34,-0.732488,0.07905599999999999,-0.539484,4
2024-06-14 09:33:24.815,21.07,244.93,20.615000000000002,-0.709796,0.096624,-0.555832,4
2024-06-14 09:33:24.820,20.86,258.58,21.7,-0.677832,0.129808,-0.5807200000000001,4
2024-06-14 09:33:24.825,18.55,271.74,21.104999999999997,-0.6527000000000001,0.159088,-0.620736,4
2024-06-14 09:33:24.829,14.385,284.585,19.285,-0.6258599999999999,0.180072,-0.6551400000000001,4
2024-06-14 09:33:24.834,9.52,297.115,16.17,-0.5970679999999999,0.18958799999999998,-0.6927160000000001,4
2024-06-14 09:33:24.839,4.095,309.43499999999995,12.74,-0.567544,0.19276,-0.7363919999999999,4
2024-06-14 09:33:24.844,-0.9099999999999999,321.02,8.96,-0.5382639999999999,0.189344,-0.782996,4
2024-06-14 09:33:24.849,-5.215,332.255,5.04,-0.5106919999999999,0.172508,-0.833016,4
2024-06-14 09:33:24.854,-8.399999999999999,343.7,1.19,-0.49288,0.15738,-0.8830359999999999,4
2024-06-14 09:33:24.858,-10.78,355.145,-2.94,-0.482632,0.14029999999999998,-0.9347639999999999,4
2024-06-14 09:33:24.863,-12.39,366.38,-7.175,-0.462136,0.12932,-0.982588,4
2024-06-14 09:33:24.868,-13.09,376.88,-11.165,-0.445056,0.122976,-1.0445639999999998,4
2024-06-14 09:33:24.873,-13.825,386.19,-15.469999999999999,-0.414312,0.12736799999999998,-1.103856,4
2024-06-14 09:33:24.878,-15.015,393.89,-20.055,-0.386252,0.139568,-1.162172,4
2024-06-14 09:33:24.883,-17.22,400.04999999999995,-24.674999999999997,-0.34843199999999996,0.14640000000000003,-1.2163399999999998,4
2024-06-14 09:33:24.888,-19.215,404.28499999999997,-29.505000000000003,-0.29133600000000004,0.142252,-1.2634319999999999,4
2024-06-14 09:33:24.892,-20.545,407.33,-33.739999999999995,-0.24766,0.143716,-1.324676,4
2024-06-14 09:33:24.897,-26.495,409.22,-38.010000000000005,-0.23814400000000002,0.18056,-1.443504,4
2024-06-14 09:33:24.902,-32.06,410.76,-42.349999999999994,-0.20666800000000002,0.188124,-1.481568,4
2024-06-14 09:33:24.907,-39.620000000000005,411.6,-46.655,-0.209596,0.203984,-1.572824,4
2024-06-14 09:33:24.912,-47.81,413.245,-51.519999999999996,-0.193248,0.215208,-1.643584,4
2024-06-14 09:33:24.917,-56.28,415.83500000000004,-56.315,-0.18324400000000002,0.206424,-1.7260559999999998,4
2024-06-14 09:33:24.921,-62.790000000000006,418.6,-60.095,-0.174216,0.188856,-1.816824,4
2024-06-14 09:33:24.926,-68.075,421.96000000000004,-63.525,-0.152012,0.172752,-1.915888,4
2024-06-14 09:33:24.931,-73.00999999999999,425.53,-66.605,-0.13590799999999997,0.16494399999999998,-2.003972,4
2024-06-14 09:33:24.936,-77.35,429.065,-69.825,-0.117364,0.16543199999999997,-2.1010839999999997,4
2024-06-14 09:33:24.941,-80.99000000000001,432.03999999999996,-72.83500000000001,-0.083204,0.16860399999999998,-2.211372,4
2024-06-14 09:33:24.946,-84.56,434.875,-75.42500000000001,-0.018056,0.174704,-2.303604,4
2024-06-14 09:33:24.951,-90.475,437.43,-78.855,0.049775999999999994,0.214964,-2.3997400000000004,4
2024-06-14 09:33:24.955,-100.03,438.69,-84.63,0.102968,0.288896,-2.523204,4
2024-06-14 09:33:24.960,-113.33,438.41,-92.92500000000001,0.166408,0.333792,-2.663016,4
2024-06-14 09:33:24.965,-130.72500000000002,438.305,-102.095,0.25986,0.33208399999999993,-2.762324,4
2024-06-14 09:33:24.970,-149.73,438.375,-110.425,0.38869200000000004,0.288896,-2.858948,4
2024-06-14 09:33:24.975,-166.075,437.115,-115.815,0.5565640000000001,0.185196,-2.99144,4
2024-06-14 09:33:24.980,-176.26,436.55499999999995,-115.675,0.764208,0.05538800000000001,-3.092456,4
2024-06-14 09:33:24.984,-179.375,433.96500000000003,-108.745,0.9913719999999999,-0.078324,-3.192984,4
2024-06-14 09:33:24.989,-176.82,429.275,-95.69,1.206092,-0.182512,-3.257644,4
2024-06-14 09:33:24.994,-170.555,422.275,-77.91,1.4266679999999998,-0.251564,-3.3081519999999998,4
2024-06-14 09:33:24.999,-163.59,413.42,-56.769999999999996,1.633092,-0.237168,-3.3562199999999995,4
2024-06-14 09:33:25.004,-154.0,401.87,-13.195,2.2152760000000002,-1.00284,-3.355976,4
2024-06-14 09:33:25.009,-149.38,388.91999999999996,-10.85,2.054236,-0.324764,-3.5419039999999997,4
2024-06-14 09:33:25.014,-143.46499999999997,376.81,12.74,2.212348,-0.332572,-3.4179519999999997,4
2024-06-14 09:33:25.018,-140.735,360.815,35.595,2.390468,-0.316224,-3.385988,4
2024-06-14 09:33:25.023,-137.515,345.45000000000005,57.47,2.553216,-0.32744799999999996,-3.254472,4
2024-06-14 09:33:25.028,-135.38,328.72,77.315,2.72182,-0.32696,-3.1109999999999998,4
2024-06-14 09:33:25.033,-131.285,313.39,95.025,2.90482,-0.371124,-2.7891639999999995,4
2024-06-14 09:33:25.038,-136.43,292.88,109.86500000000001,2.962892,-0.471408,-2.624708,4
2024-06-14 09:33:25.043,-146.615,272.86,119.77,3.117832,-0.495808,-2.5217400000000003,4
2024-06-14 09:33:25.047,-140.875,250.98499999999999,127.47,3.2830199999999996,-0.6161,-2.239432,4
2024-06-14 09:33:25.052,-114.87,226.555,137.58499999999998,3.426736,-0.786168,-1.96664,4
2024-06-14 09:33:25.057,-72.45,200.97,150.92000000000002,3.5272639999999997,-0.829356,-1.6713999999999998,4
2024-06-14 09:33:25.062,-31.605000000000004,177.1,162.22500000000002,3.8395840000000003,-0.738588,-1.4935239999999999,4
2024-06-14 09:33:25.067,-20.58,163.94,163.555,4.474472,-0.509716,-1.4823,4
2024-06-14 09:33:25.072,-22.924999999999997,149.59,154.52499999999998,4.925628,-0.386008,-1.3000319999999999,4
2024-06-14 09:33:25.077,-34.825,129.325,141.435,5.36678,-0.382104,-1.1834,4
2024-06-14 09:33:25.081,-53.305,99.05,124.98500000000001,5.703744,-0.428708,-1.1482640000000002,4
2024-06-14 09:33:25.086,-69.895,53.62,105.91,5.71692,-0.5443640000000001,-1.207068,4
2024-06-14 09:33:25.091,-71.36500000000001,-1.0149999999999997,86.31,5.384836,-0.719068,-1.227076,4
2024-06-14 09:33:25.096,-53.13,-59.22,67.935,4.877072,-0.884744,-1.2495239999999999,4
2024-06-14 09:33:25.101,90.16,-296.17,65.625,5.541728,-1.110688,-2.9929040000000002,4
