time,gyroscope_x,gyroscope_y,gyroscope_z,accelerometer_x,accelerometer_y,accelerometer_z,phase
2024-06-14 12:54:44.454,259.42,-497.84000000000003,59.56999999999999,-0.09564799999999996,-1.214632,-6.048027999999999,1
2024-06-14 12:54:44.459,186.76,-284.095,17.64,-1.31638,0.25498,0.954528,1
2024-06-14 12:54:44.464,193.69,-304.185,43.47,-2.1447599999999998,1.231712,1.7646080000000002,1
2024-06-14 12:54:44.468,259.70000000000005,-358.61,56.455,-0.6339119999999999,0.71126,-1.043588,1
2024-06-14 12:54:44.473,255.395,-369.495,69.475,0.350872,-0.038796,-1.802428,1
2024-06-14 12:54:44.478,211.995,-362.74,83.72,0.127856,-0.107848,-1.295884,1
2024-06-14 12:54:44.483,171.115,-362.005,97.30000000000001,0.383568,-0.043432,-1.062132,1
2024-06-14 12:54:44.488,133.945,-358.61,108.71000000000001,0.7400519999999999,-0.133712,-1.395192,1
2024-06-14 12:54:44.493,205.1,-375.48,115.64,0.5863320000000001,-0.245708,-1.7126359999999998,1
2024-06-14 12:54:44.497,87.08,-329.41999999999996,116.47999999999999,0.331596,-0.30280399999999996,-1.803404,1
2024-06-14 12:54:44.502,100.94,-311.71000000000004,106.08500000000001,-0.041235999999999995,-0.48434,-2.064484,1
2024-06-14 12:54:44.507,76.475,-297.395,83.965,-0.043676000000000006,-0.8076399999999999,-2.1062079999999996,1
2024-06-14 12:54:44.512,82.03999999999999,-271.95,59.56999999999999,0.073444,-1.144848,-2.52418,1
2024-06-14 12:54:44.517,35.7,-236.075,33.95,0.3599,-0.808128,-2.221864,1
2024-06-14 12:54:44.522,29.049999999999997,-200.09500000000003,12.67,0.31890799999999997,-0.65636,-2.428044,1
2024-06-14 12:54:44.526,4.13,-154.035,-5.565,0.31744399999999995,-0.332328,-1.9671279999999998,1
2024-06-14 12:54:44.531,6.194999999999999,-114.975,-14.245000000000001,0.2013,-0.068564,-1.67262,1
2024-06-14 12:54:44.536,0.14000000000000012,-86.065,-12.46,0.24985599999999997,0.106628,-1.6401679999999998,1
2024-06-14 12:54:44.541,-0.385,-60.2,-4.62,0.293044,0.077592,-1.264408,1
2024-06-14 12:54:44.546,-0.17499999999999993,-46.305,1.05,0.19568799999999997,0.005855999999999998,-1.15412,1
2024-06-14 12:54:44.550,-5.460000000000001,-27.825000000000003,-0.35,0.21862399999999999,-0.012932,-1.212924,1
2024-06-14 12:54:44.555,-3.955,5.53,0.0,0.09003599999999999,-0.0004879999999999997,-1.053104,1
2024-06-14 12:54:44.560,-2.17,8.015,0.7000000000000001,0.013907999999999998,-0.00366,-1.03456,1
2024-06-14 12:54:44.565,1.505,6.16,1.12,-0.042212,-0.008052,-1.0521279999999997,1
2024-06-14 12:54:44.570,0.385,4.76,-0.56,-0.050508,-0.038552,-1.0313879999999997,1
2024-06-14 12:54:44.575,0.49,5.425,-0.8400000000000001,-0.040992,-0.040992,-1.028216,1
2024-06-14 12:54:44.579,-0.665,5.25,-0.63,-0.020984000000000003,-0.037088,-1.0348039999999998,1
2024-06-14 12:54:44.584,-2.205,4.655,0.21000000000000002,-0.021228,-0.036844,-1.040904,1
2024-06-14 12:54:44.589,-2.8,3.15,0.8400000000000001,-0.027572,-0.022692,-1.03578,1
2024-06-14 12:54:44.594,-3.36,0.805,0.63,-0.042212,-0.014395999999999999,-1.0372439999999998,2
2024-06-14 12:54:44.599,-3.115,-1.155,0.63,-0.043188000000000004,-0.012688000000000001,-1.0287039999999998,2
2024-06-14 12:54:44.604,-3.535,-2.73,0.77,-0.03294,-0.00732,-1.02602,2
2024-06-14 12:54:44.608,-2.835,-3.64,1.05,-0.038796,-0.003904,-1.0179680000000002,2
2024-06-14 12:54:44.613,-2.59,-3.8150000000000004,1.015,-0.04392,0.000488,-1.020164,2
2024-06-14 12:54:44.618,-1.6099999999999999,-4.41,0.7,-0.044408,0.0060999999999999995,-1.02724,2
2024-06-14 12:54:44.623,-0.735,-5.8100000000000005,0.385,-0.04514,0.00366,-1.0423680000000002,2
2024-06-14 12:54:44.628,-0.10500000000000001,-8.365,0.385,-0.048555999999999995,-0.0009759999999999999,-1.051396,2
2024-06-14 12:54:44.633,0.525,-11.48,0.35,-0.05002,-0.012199999999999999,-1.045296,2
2024-06-14 12:54:44.637,1.12,-14.105,0.035,-0.048556,0.002928,-1.03212,2
2024-06-14 12:54:44.642,2.065,-16.03,-0.27999999999999997,-0.049288,0.0026839999999999998,-1.0311439999999998,2
2024-06-14 12:54:44.647,2.73,-16.94,-0.385,-0.044163999999999995,-0.00366,-1.0243120000000001,2
2024-06-14 12:54:44.652,3.045,-17.57,-0.27999999999999997,-0.037332000000000004,-0.010248,-1.022848,2
2024-06-14 12:54:44.657,3.01,-17.64,-0.245,-0.034648,-0.015371999999999999,-1.01748,2
2024-06-14 12:54:44.662,2.73,-17.43,-0.175,-0.035624,-0.025376,-1.0157720000000001,2
2024-06-14 12:54:44.666,2.5549999999999997,-17.08,-0.10500000000000001,-0.035868000000000004,-0.016104,-1.0206520000000001,2
2024-06-14 12:54:44.671,2.2750000000000004,-17.36,-0.06999999999999999,-0.035379999999999995,-0.014395999999999999,-1.0274839999999998,2
2024-06-14 12:54:44.676,2.205,-18.095,-0.14,-0.03782,-0.010003999999999999,-1.029436,2
2024-06-14 12:54:44.681,2.52,-19.005,-0.245,-0.032208,-0.0053679999999999995,-1.02846,2
2024-06-14 12:54:44.686,2.52,-19.985,-0.45499999999999996,-0.030987999999999998,-0.009272,-1.027728,2
2024-06-14 12:54:44.691,2.625,-20.475,-0.35,-0.027816,-0.013663999999999999,-1.026508,2
2024-06-14 12:54:44.695,4.234999999999999,-19.845,-0.17500000000000002,-0.029524,-0.010735999999999999,-1.02602,2
2024-06-14 12:54:44.700,5.46,-19.6,0.17500000000000002,-0.028059999999999998,-0.014884,-1.02358,2
2024-06-14 12:54:44.705,1.82,-7.945,-0.245,-0.020252,-0.010003999999999999,-1.0616439999999998,2
2024-06-14 12:54:44.710,0.63,-6.02,-0.385,-0.021716,-0.014395999999999999,-1.0213839999999998,2
2024-06-14 12:54:44.715,-0.17500000000000004,-7.0,-0.42,-0.025131999999999998,-0.017324,-1.019188,2
2024-06-14 12:54:44.719,-0.07,-7.455,-0.21,-0.024888,-0.016835999999999997,-1.019188,2
2024-06-14 12:54:44.724,-0.49,-7.3149999999999995,-0.21,-0.023424,-0.011956,-1.016016,2
2024-06-14 12:54:44.729,-0.245,-7.3149999999999995,-0.385,-0.02318,-0.014395999999999999,-1.0108920000000001,2
2024-06-14 12:54:44.734,-0.455,-6.755,-0.56,-0.022935999999999998,-0.016836,-1.007964,2
2024-06-14 12:54:44.739,-0.56,-7.734999999999999,-0.49,-0.020252,-0.01098,-1.00772,2
2024-06-14 12:54:44.744,0.595,-8.68,-0.21000000000000002,-0.019276,-0.010492,-1.007476,2
2024-06-14 12:54:44.748,-0.385,-7.42,-0.7,-0.0183,-0.003904,-1.0216279999999998,2
2024-06-14 12:54:44.753,-0.735,-8.54,-0.9099999999999999,-0.019032,-0.005612,-1.015528,2
2024-06-14 12:54:44.758,0.42,-8.995000000000001,-0.9450000000000001,-0.016348,-0.005856,-1.0189439999999998,2
2024-06-14 12:54:44.763,0.21,-9.205,-1.0150000000000001,-0.017812,-0.008784,-1.0106479999999998,2
2024-06-14 12:54:44.768,0.49,-9.17,-1.0150000000000001,-0.013176,-0.01098,-1.0091839999999999,2
2024-06-14 12:54:44.773,0.14,-9.239999999999998,-1.19,-0.013908,-0.010003999999999999,-1.002596,2
2024-06-14 12:54:44.777,0.03499999999999999,-9.485,-1.26,-0.011956,-0.010003999999999999,-1.002108,2
2024-06-14 12:54:44.782,-26.810000000000002,71.4,-6.8950000000000005,0.019275999999999998,-0.019032,-0.96868,2
2024-06-14 12:54:44.787,1.1199999999999999,18.305,1.295,-0.00976,-0.010735999999999999,-0.998204,2
2024-06-14 12:54:44.792,-1.0499999999999998,0.4899999999999949,-2.135,-0.012931999999999999,-0.011467999999999999,-1.006988,2
2024-06-14 12:54:44.797,1.89,6.474999999999994,-3.78,-0.010248,-0.01098,-1.002596,2
2024-06-14 12:54:44.802,-1.6800000000000002,-6.055,-1.82,-0.011467999999999999,-0.011712,-1.00284,2
2024-06-14 12:54:44.806,0.27999999999999997,-16.310000000000002,0.41999999999999993,-0.005612000000000001,-0.009272,-1.006256,2
2024-06-14 12:54:44.811,-1.085,-15.785000000000004,-0.8050000000000002,-0.00854,-0.009271999999999999,-1.0116239999999999,2
2024-06-14 12:54:44.816,0.84,-15.015,-2.835,-0.003172,-0.011467999999999999,-1.011136,2
2024-06-14 12:54:44.821,0.034999999999999976,-14.665000000000001,-2.87,-0.0068319999999999995,-0.00854,-1.0218720000000001,2
2024-06-14 12:54:44.826,-0.28,-13.790000000000001,-1.085,-0.006344,-0.009028,-1.0169920000000001,2
2024-06-14 12:54:44.831,-0.21000000000000002,-13.37,-0.77,-0.004392,-0.008539999999999999,-1.018456,2
2024-06-14 12:54:44.835,-0.175,-12.915000000000001,-2.275,-0.000488,-0.010735999999999999,-1.014796,2
2024-06-14 12:54:44.840,0.385,-12.844999999999999,-3.1849999999999996,-0.000976,-0.008784,-1.016016,2
2024-06-14 12:54:44.845,0.035,-12.809999999999999,-2.345,-0.001464,-0.014395999999999999,-1.0133320000000001,2
2024-06-14 12:54:44.850,0.35,-12.95,-1.4,0.0014639999999999998,-0.009028,-1.014796,2
2024-06-14 12:54:44.855,0.385,-13.195,-1.645,0.00366,-0.017568,-1.016016,2
2024-06-14 12:54:44.859,1.015,-12.845,-2.38,0.0046359999999999995,-0.018543999999999998,-1.0157720000000001,2
2024-06-14 12:54:44.864,1.295,-13.335,-2.3449999999999998,0.00488,-0.013663999999999999,-1.0218720000000001,2
2024-06-14 12:54:44.869,1.6099999999999999,-13.895,-1.33,0.004392,-0.018544,-1.0218720000000001,2
2024-06-14 12:54:44.874,1.995,-14.7,-0.8049999999999999,0.003172,-0.010003999999999999,-1.030656,2
2024-06-14 12:54:44.879,2.52,-15.785,-1.2249999999999999,0.004392,-0.015616,-1.037,2
2024-06-14 12:54:44.884,2.5549999999999997,-17.009999999999998,-1.75,0.00732,-0.019520000000000003,-1.0411479999999997,2
2024-06-14 12:54:44.888,2.3449999999999998,-18.655,-1.435,0.001952,-0.013663999999999999,-1.0352919999999999,2
2024-06-14 12:54:44.893,3.01,-21.245,-0.98,0.00244,-0.015616000000000001,-1.0431,2
2024-06-14 12:54:44.898,5.005,-24.605,-1.225,0.0031719999999999995,-0.014395999999999999,-1.058716,2
2024-06-14 12:54:44.903,5.495,-27.475,-1.6800000000000002,0.004392,-0.020008,-1.066036,2
2024-06-14 12:54:44.908,9.73,-30.1,-0.7,0.009516,-0.021959999999999997,-1.1058080000000001,2
2024-06-14 12:54:44.913,-1.0499999999999998,-25.76,-1.085,0.011224000000000001,-0.014396,-1.123132,2
2024-06-14 12:54:44.917,-1.61,-26.950000000000003,-0.77,0.010492,-0.014884,-1.1033680000000001,2
2024-06-14 12:54:44.922,-2.94,-29.435000000000002,-1.4,0.006588,-0.01952,-1.118008,2
2024-06-14 12:54:44.927,-3.815,-31.57,-1.6099999999999999,0.010003999999999999,-0.017568,-1.11752,2
2024-06-14 12:54:44.932,-3.7800000000000002,-34.755,-1.54,0.01098,-0.01098,-1.1275239999999997,2
2024-06-14 12:54:44.937,-5.18,-38.010000000000005,-1.96,0.00488,-0.017324,-1.160708,2
2024-06-14 12:54:44.942,-4.83,-40.739999999999995,-1.6800000000000002,0.011956,-0.032208,-1.170468,2
2024-06-14 12:54:44.946,-4.305,-43.68,-1.575,0.010003999999999999,-0.014151999999999998,-1.178032,2
2024-06-14 12:54:44.951,-5.18,-47.145,-1.9249999999999998,0.012199999999999999,-0.018056,-1.1726640000000002,2
2024-06-14 12:54:44.956,-4.9350000000000005,-50.925,-1.575,0.020984000000000003,-0.024399999999999998,-1.180228,2
2024-06-14 12:54:44.961,-5.984999999999999,-54.775,-1.6800000000000002,0.021228,-0.025863999999999998,-1.2234159999999998,3
2024-06-14 12:54:44.966,-6.58,-58.519999999999996,-1.75,0.019032,-0.020496,-1.228784,3
2024-06-14 12:54:44.971,-6.545,-63.595,-1.7850000000000001,0.018788,-0.03294,-1.247084,3
2024-06-14 12:54:44.975,-6.93,-68.81,-1.645,0.018544,-0.016835999999999997,-1.25782,3
2024-06-14 12:54:44.980,-7.035,-73.99000000000001,-1.54,0.021228,-0.026352,-1.27124,3
2024-06-14 12:54:44.985,-6.6850000000000005,-78.82,-1.365,0.026352,-0.021471999999999998,-1.278316,3
2024-06-14 12:54:44.990,-8.120000000000001,-85.05,-1.505,0.033428,-0.045628,-1.2539159999999998,3
2024-06-14 12:54:44.995,-7.5600000000000005,-89.635,-0.7,0.042455999999999994,-0.06417199999999999,-1.234152,3
2024-06-14 12:54:45.000,-9.135,-93.555,0.315,0.04636,-0.07344400000000001,-1.254892,3
2024-06-14 12:54:45.004,-10.885,-98.525,1.155,0.045871999999999996,-0.064416,-1.254648,3
2024-06-14 12:54:45.009,-12.145,-103.46000000000001,1.6099999999999999,0.05368,-0.053191999999999996,-1.2505,3
2024-06-14 12:54:45.014,-13.86,-109.095,1.7850000000000001,0.05246,-0.044652,-1.283684,3
2024-06-14 12:54:45.019,-15.645,-116.13,1.995,0.052216,-0.02196,-1.3185759999999997,3
2024-06-14 12:54:45.024,-16.87,-124.495,1.645,0.050019999999999995,-0.0026839999999999993,-1.327848,3
2024-06-14 12:54:45.028,-17.045,-133.28,1.33,0.043432,0.009516,-1.3717679999999999,3
2024-06-14 12:54:45.033,-15.855,-142.765,0.49,0.045383999999999994,0.021471999999999998,-1.4217879999999998,3
2024-06-14 12:54:45.038,-14.489999999999998,-152.35500000000002,-0.315,0.048068,0.024399999999999998,-1.4583879999999998,3
2024-06-14 12:54:45.043,-12.95,-162.61,-1.05,0.050752,0.015128,-1.500112,3
2024-06-14 12:54:45.048,-10.64,-173.95,-1.47,0.040992,0.031476,-1.525732,3
2024-06-14 12:54:45.053,-7.91,-185.815,-2.835,0.033671999999999994,0.075396,-1.556476,3
2024-06-14 12:54:45.057,-4.34,-198.905,-4.550000000000001,0.02196,0.118828,-1.615768,3
2024-06-14 12:54:45.062,0.8400000000000001,-212.345,-7.07,0.018788,0.165188,-1.6421199999999998,3
2024-06-14 12:54:45.067,6.825,-225.785,-10.01,0.01708,0.17934,-1.643828,3
2024-06-14 12:54:45.072,13.3,-238.385,-12.915,0.024399999999999998,0.171288,-1.6433400000000002,3
2024-06-14 12:54:45.077,19.985,-252.07,-15.505,0.026108,0.17202,-1.6594440000000001,3
2024-06-14 12:54:45.082,25.725,-265.09000000000003,-17.955,0.024155999999999997,0.15494,-1.663348,3
2024-06-14 12:54:45.086,14.07,-305.83,-14.21,-0.05709600000000001,0.12322,-1.93736,3
2024-06-14 12:54:45.091,32.13,-290.745,-23.45,0.0009759999999999994,0.19593200000000002,-1.918328,3
2024-06-14 12:54:45.096,37.625,-308.245,-22.505,0.030255999999999998,0.055632,-1.8160919999999998,3
2024-06-14 12:54:45.101,36.82,-323.82,-22.75,0.061488,0.056852,-1.924916,3
2024-06-14 12:54:45.106,37.135,-340.935,-22.89,0.069784,0.11224,-2.143296,3
2024-06-14 12:54:45.111,37.870000000000005,-359.03,-23.799999999999997,0.08832799999999999,0.24497599999999997,-2.38754,3
2024-06-14 12:54:45.115,37.55500000000001,-377.475,-26.95,0.095648,0.365024,-2.522716,3
2024-06-14 12:54:45.120,32.375,-397.11,-30.73,0.113704,0.383324,-2.597868,3
2024-06-14 12:54:45.125,19.18,-414.575,-34.93,0.168116,0.3721,-2.544676,3
2024-06-14 12:54:45.130,-2.94,-428.645,-37.59,0.27791599999999994,0.337208,-2.5695639999999997,3
2024-06-14 12:54:45.135,-29.575000000000003,-438.83,-40.775000000000006,0.38917999999999997,0.33354799999999996,-2.5485800000000003,3
2024-06-14 12:54:45.140,-59.43,-447.96500000000003,-41.230000000000004,0.41601999999999995,0.32720400000000005,-2.683756,3
2024-06-14 12:54:45.144,-93.065,-451.57000000000005,-42.315,0.426268,0.37332,-2.692296,3
2024-06-14 12:54:45.149,-126.28,-450.345,-46.025000000000006,0.40381999999999996,0.390888,-2.731092,3
2024-06-14 12:54:45.154,-156.975,-439.845,-56.105000000000004,0.460184,0.321592,-2.84504,3
2024-06-14 12:54:45.159,-168.84,-427.245,-64.68,0.49483199999999994,0.0732,-2.940444,3
2024-06-14 12:54:45.164,-171.39499999999998,-417.235,-69.545,0.307196,-0.08125199999999999,-3.066104,3
2024-06-14 12:54:45.168,-169.22500000000002,-405.15999999999997,-74.27,0.193736,-0.099064,-3.053904,3
2024-06-14 12:54:45.173,-161.63,-394.205,-80.185,-0.1586,-0.046848,-3.0468279999999996,3
2024-06-14 12:54:45.178,-152.77499999999998,-385.245,-88.75999999999999,-0.5590040000000001,-0.003659999999999999,-2.977288,3
2024-06-14 12:54:45.183,-144.025,-374.46500000000003,-99.295,-1.0455400000000001,0.05831600000000001,-2.801364,3
2024-06-14 12:54:45.188,-128.31,-360.85,-111.265,-1.402512,0.094916,-2.54248,3
2024-06-14 12:54:45.193,-103.03999999999999,-349.02,-128.45,-1.5508639999999998,-0.034404000000000004,-1.924672,3
2024-06-14 12:54:45.197,-74.9,-365.54,-132.44,-1.7994999999999999,0.341112,-1.4110519999999998,4
2024-06-14 12:54:45.202,-35.175,-392.21000000000004,-126.49,-1.466928,-0.051972,-1.112152,4
2024-06-14 12:54:45.207,18.445,-451.815,-119.63,-1.03212,0.065636,-0.44554399999999994,4
2024-06-14 12:54:45.212,74.795,-502.775,-108.395,-0.6902760000000001,0.063196,-0.655628,4
2024-06-14 12:54:45.217,104.755,-457.65999999999997,-98.35,-0.461404,-0.05246,-0.6846639999999999,4
2024-06-14 12:54:45.222,126.84,-392.35,-87.43,-0.7293160000000001,0.110044,-0.898652,4
2024-06-14 12:54:45.226,147.035,-339.115,-73.28999999999999,-1.0067439999999999,0.255468,-1.1775440000000001,4
2024-06-14 12:54:45.231,151.34,-269.885,-52.185,-1.052372,0.19324799999999998,-0.9384239999999999,4
2024-06-14 12:54:45.236,140.385,-181.755,-24.955,-1.1934040000000001,0.13883600000000001,-0.5285040000000001,4
2024-06-14 12:54:45.241,122.01,-86.485,2.59,-1.4779079999999998,0.22204,-0.26474,4
2024-06-14 12:54:45.246,101.88499999999999,7.489999999999999,26.04,-1.65188,0.30353600000000003,-0.136152,4
2024-06-14 12:54:45.251,81.27,93.41499999999999,45.5,-1.620648,0.32452000000000003,-0.204228,4
2024-06-14 12:54:45.255,61.11,164.325,63.35,-1.447164,0.31768799999999997,-0.388204,4
2024-06-14 12:54:45.260,44.975,219.905,79.065,-1.2478159999999998,0.302804,-0.574864,4
2024-06-14 12:54:45.265,33.985,260.995,90.65,-1.077992,0.28792,-0.695156,4
2024-06-14 12:54:45.270,28.7,289.20500000000004,98.21000000000001,-0.924272,0.29377600000000004,-0.76128,4
2024-06-14 12:54:45.275,27.545,308.315,102.34,-0.8064199999999999,0.3233,-0.779824,4
2024-06-14 12:54:45.280,29.785,320.005,103.005,-0.723948,0.362096,-0.786656,4
2024-06-14 12:54:45.284,33.18,325.815,100.625,-0.671732,0.385764,-0.795684,4
2024-06-14 12:54:45.289,34.3,328.09000000000003,95.375,-0.6380600000000001,0.39283999999999997,-0.7859240000000001,4
2024-06-14 12:54:45.294,34.894999999999996,327.81,87.67500000000001,-0.599996,0.40113599999999994,-0.748104,4
2024-06-14 12:54:45.299,35.0,325.5,78.57499999999999,-0.568032,0.39283999999999997,-0.70882,4
2024-06-14 12:54:45.304,36.085,321.685,68.95,-0.537288,0.37942,-0.66978,4
2024-06-14 12:54:45.309,38.08,316.785,59.325,-0.505568,0.37088,-0.641964,4
2024-06-14 12:54:45.313,40.215,311.5,49.629999999999995,-0.47165199999999996,0.36404800000000004,-0.6226879999999999,4
2024-06-14 12:54:45.318,40.46,306.25,39.900000000000006,-0.432856,0.366244,-0.610732,4
2024-06-14 12:54:45.323,38.255,301.66499999999996,29.855000000000004,-0.39283999999999997,0.373564,-0.6099999999999999,4
2024-06-14 12:54:45.328,33.39,298.235,19.6,-0.3477,0.38552,-0.6239079999999999,4
2024-06-14 12:54:45.333,26.11,296.415,9.24,-0.31646799999999997,0.38722799999999996,-0.640988,4
2024-06-14 12:54:45.337,16.66,296.59000000000003,-0.8749999999999999,-0.301584,0.38064,-0.662704,4
2024-06-14 12:54:45.342,5.67,298.655,-10.535,-0.2928,0.36526800000000004,-0.697352,4
2024-06-14 12:54:45.347,-5.705,302.89,-19.005000000000003,-0.291824,0.33672,-0.735416,4
2024-06-14 12:54:45.352,-16.1,309.155,-26.425,-0.28694400000000003,0.306952,-0.7749440000000001,4
2024-06-14 12:54:45.357,-24.395,316.645,-32.27,-0.285968,0.26449599999999995,-0.824232,4
2024-06-14 12:54:45.362,-30.064999999999998,324.835,-36.75,-0.281088,0.215696,-0.879132,4
2024-06-14 12:54:45.366,-32.620000000000005,332.85,-39.620000000000005,-0.277672,0.170312,-0.9276880000000001,4
2024-06-14 12:54:45.371,-32.375,340.13,-40.985,-0.27181599999999995,0.13176,-0.976,4
2024-06-14 12:54:45.376,-29.4,346.255,-40.985,-0.256932,0.09808800000000001,-1.022116,4
2024-06-14 12:54:45.381,-24.85,351.505,-39.620000000000005,-0.230092,0.07783599999999999,-1.0675,4
2024-06-14 12:54:45.386,-19.32,355.21500000000003,-37.099999999999994,-0.201544,0.06612399999999999,-1.120448,4
2024-06-14 12:54:45.391,-13.755,358.19,-33.95,-0.1647,0.064416,-1.167784,4
2024-06-14 12:54:45.395,-9.275,359.94,-30.205,-0.12688,0.07002799999999998,-1.2185359999999998,4
2024-06-14 12:54:45.400,-6.475,361.025,-26.285,-0.098332,0.08881599999999999,-1.269044,4
2024-06-14 12:54:45.405,-5.915,361.445,-22.505,-0.077348,0.11053199999999999,-1.320284,4
2024-06-14 12:54:45.410,-7.91,361.9,-18.9,-0.06222,0.12980799999999998,-1.3644479999999999,4
2024-06-14 12:54:45.415,-12.425,362.25,-15.75,-0.054655999999999996,0.152744,-1.412516,4
2024-06-14 12:54:45.420,-19.215,362.845,-12.844999999999999,-0.046116000000000004,0.172508,-1.469856,4
2024-06-14 12:54:45.424,-27.509999999999998,363.65,-10.36,-0.037088,0.185196,-1.518412,4
2024-06-14 12:54:45.429,-36.61,364.595,-7.77,-0.031964,0.186172,-1.584536,4
2024-06-14 12:54:45.434,-45.92,365.435,-5.18,-0.020007999999999998,0.181536,-1.660664,4
2024-06-14 12:54:45.439,-54.495000000000005,366.20500000000004,-2.38,-0.008296000000000001,0.16982399999999997,-1.73484,4
2024-06-14 12:54:45.444,-61.915000000000006,366.8,0.7,0.0026839999999999998,0.15128000000000003,-1.8178,4
2024-06-14 12:54:45.449,-68.285,366.94,4.025,0.009516,0.134688,-1.9075920000000002,4
2024-06-14 12:54:45.453,-73.08,366.83500000000004,7.664999999999999,0.024888,0.113216,-1.9947,4
2024-06-14 12:54:45.458,-76.195,366.135,11.445,0.039284,0.092476,-2.082784,4
2024-06-14 12:54:45.463,-78.155,364.91,15.260000000000002,0.054655999999999996,0.08369199999999999,-2.1859960000000003,4
2024-06-14 12:54:45.468,-78.925,362.355,18.9,0.07075999999999999,0.079056,-2.3058,4
2024-06-14 12:54:45.473,-79.03,358.96000000000004,22.225,0.102724,0.094428,-2.4456119999999997,4
2024-06-14 12:54:45.478,-78.08500000000001,355.285,25.48,0.160064,0.101504,-2.590792,4
2024-06-14 12:54:45.482,-76.44,352.065,28.7,0.238388,0.106872,-2.718404,4
2024-06-14 12:54:45.487,-73.535,350.525,32.095,0.335256,0.11638799999999999,-2.813808,4
2024-06-14 12:54:45.492,-70.21000000000001,351.12,35.385,0.450424,0.10467599999999999,-2.8667559999999996,4
2024-06-14 12:54:45.497,-68.53,353.42999999999995,38.150000000000006,0.561688,0.106628,-2.91702,4
2024-06-14 12:54:45.502,-69.58,356.545,39.9,0.6771,0.130052,-2.9770440000000002,4
2024-06-14 12:54:45.506,-72.45,360.185,40.075,0.840092,0.141032,-3.0187679999999997,4
2024-06-14 12:54:45.511,-76.405,363.51,39.095,1.0165039999999999,0.14152000000000003,-3.0492679999999996,4
2024-06-14 12:54:45.516,-80.185,365.505,37.415,1.219268,0.145424,-3.0802560000000003,4
2024-06-14 12:54:45.521,-83.055,365.855,35.595,1.445944,0.13468799999999997,-3.07806,4
2024-06-14 12:54:45.526,-83.72,364.105,34.125,1.6701799999999998,0.11809599999999999,-3.044388,4
2024-06-14 12:54:45.531,-81.13,359.695,33.74,1.894416,0.09881999999999999,-2.98168,4
2024-06-14 12:54:45.535,-75.14500000000001,351.995,34.510000000000005,2.089372,0.0488,-2.87798,4
2024-06-14 12:54:45.540,-67.445,341.03999999999996,36.365,2.279936,0.008296,-2.7537839999999996,4
2024-06-14 12:54:45.545,-58.485,326.13,39.129999999999995,2.453664,-0.026108,-2.5961600000000002,4
2024-06-14 12:54:45.550,-49.315,308.21000000000004,41.86,2.623,-0.053191999999999996,-2.391444,4
2024-06-14 12:54:45.555,-40.915,287.35,43.925,2.8042920000000002,-0.073688,-2.153788,4
2024-06-14 12:54:45.560,-33.144999999999996,264.495,43.82,2.96948,-0.068564,-1.881484,4
2024-06-14 12:54:45.564,-25.865000000000002,239.64499999999998,42.105000000000004,3.153212,-0.022447999999999996,-1.595516,4
2024-06-14 12:54:45.569,-19.564999999999998,213.5,39.69,3.3891599999999995,0.098576,-1.2946639999999998,4
2024-06-14 12:54:45.574,-19.32,187.495,32.935,3.9066840000000003,-0.07783600000000002,-1.13582,4
2024-06-14 12:54:45.579,-29.47,166.88,2.415,4.172644,0.14005599999999999,-0.856684,4
2024-06-14 12:54:45.584,-50.96,141.75,-20.405,4.503019999999999,0.11712,-0.8532679999999999,4
2024-06-14 12:54:45.589,-76.44,113.75,-43.785,4.668208,-0.006831999999999998,-0.8954799999999999,4
2024-06-14 12:54:45.593,-99.96000000000001,77.35,-63.489999999999995,4.5915919999999995,-0.208376,-0.97722,4
2024-06-14 12:54:45.598,-115.185,42.035,-77.035,4.335148,-0.42358399999999996,-1.034072,4
2024-06-14 12:54:45.603,-109.97,-14.07,-81.9,3.98086,-0.6156119999999999,-1.075064,4
2024-06-14 12:54:45.608,-88.935,-65.345,-79.59,3.58436,-0.752496,-1.083848,4
2024-06-14 12:54:45.613,-62.685,-203.175,-38.43,2.567856,-3.4186840000000003,-2.5500439999999998,4
