time,gyroscope_x,gyroscope_y,gyroscope_z,accelerometer_x,accelerometer_y,accelerometer_z,phase
2024-06-14 12:15:44.055,292.915,-181.09,-3.01,-2.592012,0.791048,3.6604879999999995,1
2024-06-14 12:15:44.060,314.86,-146.51,-2.6950000000000003,-1.330288,0.51118,-1.957856,1
2024-06-14 12:15:44.065,365.89,-226.73000000000002,20.825000000000003,-0.20227599999999998,0.33306,-1.2051159999999999,1
2024-06-14 12:15:44.069,324.485,-281.05,40.145,0.281576,0.22691999999999998,-1.692872,1
2024-06-14 12:15:44.074,254.555,-311.395,65.065,0.152744,-0.193004,-2.107428,1
2024-06-14 12:15:44.079,124.74,-311.43,89.705,0.0061,-0.504348,-2.163548,1
2024-06-14 12:15:44.084,32.55,-293.265,108.00999999999999,0.080276,-0.675148,-1.991528,1
2024-06-14 12:15:44.089,-10.71,-266.56,95.97,0.26034799999999997,-1.0909239999999998,-2.303116,1
2024-06-14 12:15:44.094,-4.97,-244.02,54.25,0.22325999999999996,-1.213168,-2.187704,2
2024-06-14 12:15:44.098,13.3,-225.82,1.75,0.19617600000000002,-1.0906799999999999,-2.307264,2
2024-06-14 12:15:44.103,15.96,-208.74,-35.21,0.069052,-0.526552,-1.951268,2
2024-06-14 12:15:44.108,8.225,-191.485,-45.43,0.017079999999999998,-0.0017080000000000012,-1.9195479999999998,2
2024-06-14 12:15:44.113,-8.61,-165.375,-33.845,0.09955199999999999,0.365268,-1.7528959999999998,2
2024-06-14 12:15:44.118,-15.54,-146.3,-10.885,0.12273200000000001,0.46164799999999995,-1.6577359999999999,2
2024-06-14 12:15:44.123,-21.490000000000002,-127.715,10.99,0.038796,0.317444,-1.532808,2
2024-06-14 12:15:44.127,-20.02,-117.565,20.65,0.0039039999999999995,0.04758,-1.415444,2
2024-06-14 12:15:44.132,-13.23,-97.545,15.365,-0.0048800000000000015,-0.157624,-1.339316,2
2024-06-14 12:15:44.137,-9.45,-82.81,1.5750000000000002,-0.0031719999999999995,-0.14274,-1.200968,2
2024-06-14 12:15:44.142,-8.26,-70.66499999999999,-6.755,-0.06124399999999999,-0.061976,-1.352004,2
2024-06-14 12:15:44.147,-10.92,-59.22,-6.02,-0.047824,0.067588,-1.28344,2
2024-06-14 12:15:44.152,-10.219999999999999,-51.625,0.3849999999999999,-0.084912,0.155428,-1.353468,2
2024-06-14 12:15:44.156,-8.61,-40.285,6.93,0.027571999999999992,0.183732,-1.30418,2
2024-06-14 12:15:44.161,-3.57,-32.76,9.835,0.15933199999999997,0.16299200000000003,-1.06384,2
2024-06-14 12:15:44.166,1.89,-29.925,9.695,0.011712,0.004392,-1.0897040000000002,2
2024-06-14 12:15:44.171,2.87,-23.939999999999998,6.475,0.042212,0.008539999999999999,-1.109224,2
2024-06-14 12:15:44.176,3.185,-18.130000000000003,3.325,-0.01464,-0.0009760000000000012,-1.085312,2
2024-06-14 12:15:44.180,3.535,-16.205,1.9249999999999998,0.010003999999999999,0.043188000000000004,-1.0748199999999999,2
2024-06-14 12:15:44.185,5.18,-14.77,2.73,0.020252,0.066368,-1.05408,2
2024-06-14 12:15:44.190,6.51,-14.105,3.395,-0.0039040000000000004,0.056608,-1.0511519999999999,2
2024-06-14 12:15:44.195,7.525,-14.105,2.87,-0.034159999999999996,0.032695999999999996,-1.04432,2
2024-06-14 12:15:44.200,7.944999999999999,-14.805,1.75,-0.04636,0.02318,-1.048956,2
2024-06-14 12:15:44.205,7.91,-16.485,0.14,-0.055388,0.012199999999999999,-1.05652,2
2024-06-14 12:15:44.209,7.21,-19.495,-0.63,-0.058803999999999995,0.015616000000000001,-1.063352,2
2024-06-14 12:15:44.214,6.72,-22.119999999999997,-0.77,-0.03904,0.014884,-1.0582280000000002,2
2024-06-14 12:15:44.219,5.845,-24.535,-1.365,-0.123708,-0.022204,-1.118496,2
2024-06-14 12:15:44.224,3.92,-26.494999999999997,-2.17,-0.057095999999999994,0.001952,-1.07848,2
2024-06-14 12:15:44.229,2.065,-28.805,-2.66,-0.115412,-0.007075999999999999,-1.121424,2
2024-06-14 12:15:44.234,0.175,-31.045,-2.9050000000000002,-0.163724,-0.0183,-1.148752,2
2024-06-14 12:15:44.238,-1.085,-33.25,-3.01,-0.055631999999999994,-0.010492,-1.0309,2
2024-06-14 12:15:44.243,-2.485,-34.370000000000005,-3.255,0.030012000000000004,0.020739999999999995,-1.048956,2
2024-06-14 12:15:44.248,-3.71,-34.825,-3.5700000000000003,0.02269199999999999,0.036599999999999994,-1.01504,2
2024-06-14 12:15:44.253,-3.885,-39.269999999999996,-3.5,-0.17519199999999996,0.0039039999999999995,-1.067988,2
2024-06-14 12:15:44.258,-4.305,-39.165,-3.535,0.18104800000000001,0.04660399999999999,-0.9681919999999999,2
2024-06-14 12:15:44.263,-3.43,-43.400000000000006,-4.095000000000001,-0.130052,-0.012688,-1.04798,2
2024-06-14 12:15:44.267,-3.395,-44.065,-4.41,-0.179096,0.01342,-1.107516,2
2024-06-14 12:15:44.272,-2.73,-46.41,-4.655,-0.12492800000000001,0.015127999999999999,-1.082384,2
2024-06-14 12:15:44.277,-1.96,-46.34,-4.795,0.036112000000000005,0.026108,-0.98576,2
2024-06-14 12:15:44.282,-1.19,-45.955,-5.04,-0.007075999999999999,0.05856,-1.017236,2
2024-06-14 12:15:44.287,0.0,-45.57,-5.075,0.024643999999999996,0.044163999999999995,-1.021872,2
2024-06-14 12:15:44.292,1.12,-44.59,-5.005000000000001,0.016835999999999997,0.042456,-1.023336,2
2024-06-14 12:15:44.296,2.24,-43.05,-4.9350000000000005,0.020008,0.03904,-1.016748,2
2024-06-14 12:15:44.301,2.3449999999999998,-43.365,-4.970000000000001,0.026840000000000003,0.039040000000000005,-1.0108920000000001,2
2024-06-14 12:15:44.306,3.675,-40.18,-5.04,0.032208,0.036356,-1.01504,2
2024-06-14 12:15:44.311,4.025,-38.605000000000004,-4.9350000000000005,0.030011999999999997,0.028791999999999998,-1.016016,2
2024-06-14 12:15:44.316,4.41,-37.205,-4.970000000000001,0.031476,0.032208,-1.0179680000000002,2
2024-06-14 12:15:44.321,4.62,-35.91,-4.865,0.032451999999999995,0.027084,-1.0243120000000001,2
2024-06-14 12:15:44.325,4.83,-39.34,-4.515000000000001,0.029523999999999998,0.02318,-1.03334,2
2024-06-14 12:15:44.330,4.76,-35.14,-4.795,0.031964,0.022448000000000003,-1.037244,2
2024-06-14 12:15:44.335,20.72,-84.525,-2.135,0.026108,0.027816,-1.133624,2
2024-06-14 12:15:44.340,10.955,-17.570000000000004,-3.36,0.036356,0.021228,-1.0360239999999998,2
2024-06-14 12:15:44.345,1.925,-26.950000000000003,-7.175000000000001,0.039772,0.022447999999999996,-1.043832,2
2024-06-14 12:15:44.349,10.219999999999999,-32.9,-5.5649999999999995,0.038796,0.018788,-1.0462719999999999,2
2024-06-14 12:15:44.354,3.465,-35.665,-3.2550000000000003,0.0427,0.020252,-1.047736,2
2024-06-14 12:15:44.359,8.4,-35.735,-2.73,0.049532,0.02196,-1.040904,2
2024-06-14 12:15:44.364,5.845,-35.699999999999996,-4.83,0.046604,0.026108,-1.045784,2
2024-06-14 12:15:44.369,8.504999999999999,-35.629999999999995,-5.145,0.058803999999999995,0.031476,-1.046516,2
2024-06-14 12:15:44.374,7.734999999999999,-36.26,-3.71,0.05734,0.032696,-1.031632,2
2024-06-14 12:15:44.378,8.26,-36.68,-3.4299999999999997,0.064416,0.033428,-1.036756,2
2024-06-14 12:15:44.383,10.08,-37.835,-4.76,0.062952,0.033672,-1.036756,2
2024-06-14 12:15:44.388,9.8,-39.025,-5.88,0.067832,0.038796,-1.0472479999999997,2
2024-06-14 12:15:44.393,12.075,-40.95,-5.39,0.067832,0.031476,-1.04066,2
2024-06-14 12:15:44.398,10.5,-43.75,-5.3549999999999995,0.072224,0.050019999999999995,-1.0616439999999998,2
2024-06-14 12:15:44.403,12.355,-51.099999999999994,-6.16,0.074176,0.027083999999999997,-1.027972,2
2024-06-14 12:15:44.407,5.775,-53.76,-7.5600000000000005,0.07075999999999999,0.012932,-1.060424,2
2024-06-14 12:15:44.412,5.915,-56.595,-7.525,0.07685999999999998,0.007564000000000001,-1.107516,2
2024-06-14 12:15:44.417,6.859999999999999,-58.065,-6.6499999999999995,0.08174000000000001,0.014883999999999998,-1.138992,2
2024-06-14 12:15:44.422,3.01,-59.465,-7.5600000000000005,0.09101200000000001,0.027327999999999998,-1.092144,2
2024-06-14 12:15:44.427,0.6300000000000001,-62.72,-9.45,0.09930800000000001,0.049044000000000004,-1.120448,2
2024-06-14 12:15:44.432,-0.525,-66.00999999999999,-10.675,0.09394,0.019032,-1.1016599999999999,2
2024-06-14 12:15:44.436,-0.245,-67.2,-10.149999999999999,0.101992,0.027327999999999998,-1.118008,2
2024-06-14 12:15:44.441,0.595,-69.65,-9.765,0.09784399999999999,0.022448,-1.142164,2
2024-06-14 12:15:44.446,6.475,-70.42,-9.31,0.11516799999999999,0.020984000000000003,-1.141676,2
2024-06-14 12:15:44.451,3.71,-76.055,-10.36,0.114436,-0.005612000000000001,-1.1858399999999998,2
2024-06-14 12:15:44.456,-3.255,-85.57499999999999,-12.075,0.108092,0.11346,-1.198772,2
2024-06-14 12:15:44.461,-8.015,-90.405,-13.09,0.102236,0.016592,-1.197308,2
2024-06-14 12:15:44.465,-7.664999999999999,-91.805,-13.405,0.130296,0.06246399999999999,-1.1909640000000001,2
2024-06-14 12:15:44.470,-10.045,-94.43,-14.7,0.14200800000000002,0.025864,-1.2004799999999998,2
2024-06-14 12:15:44.475,-11.655000000000001,-100.275,-15.015,0.14932800000000002,0.002928,-1.204872,2
2024-06-14 12:15:44.480,-13.23,-102.375,-14.945,0.138592,0.028791999999999998,-1.2331759999999998,2
2024-06-14 12:15:44.485,-14.805,-107.345,-15.225,0.13566399999999998,0.012444,-1.238788,2
2024-06-14 12:15:44.489,-16.45,-112.63,-15.435,0.138592,0.009028,-1.259284,2
2024-06-14 12:15:44.494,-19.04,-117.285,-15.715,0.149328,0.016347999999999998,-1.2773400000000001,2
2024-06-14 12:15:44.499,-19.32,-123.025,-16.17,0.143716,0.039040000000000005,-1.30052,2
2024-06-14 12:15:44.504,-19.88,-129.43,-16.415,0.155184,0.019276,-1.3024719999999999,2
2024-06-14 12:15:44.509,-17.57,-136.815,-16.52,0.156404,0.036112,-1.318088,2
2024-06-14 12:15:44.514,-18.725,-145.775,-17.5,0.17543599999999998,0.043432,-1.2963719999999999,2
2024-06-14 12:15:44.518,-20.335,-154.315,-18.549999999999997,0.167628,0.036599999999999994,-1.320284,2
2024-06-14 12:15:44.523,-22.155,-163.24,-19.18,0.17812,0.026108,-1.329068,2
2024-06-14 12:15:44.528,-23.1,-172.375,-19.705,0.18056,0.022935999999999998,-1.33468,2
2024-06-14 12:15:44.533,-24.22,-181.33499999999998,-20.3,0.189832,0.028791999999999998,-1.3478560000000002,3
2024-06-14 12:15:44.538,-24.99,-191.1,-21.0,0.197396,0.027816,-1.3478560000000002,3
2024-06-14 12:15:44.543,-26.494999999999997,-200.41,-21.840000000000003,0.202032,0.035136,-1.373964,3
2024-06-14 12:15:44.547,-26.494999999999997,-208.14499999999998,-22.33,0.210572,0.022936,-1.4488720000000002,3
2024-06-14 12:15:44.552,-26.95,-217.63,-22.995,0.215696,0.01586,-1.414468,3
2024-06-14 12:15:44.557,-28.91,-228.935,-23.31,0.205692,0.000976,-1.48962,3
2024-06-14 12:15:44.562,-29.68,-243.565,-23.205,0.20374,0.036844,-1.5154839999999998,3
2024-06-14 12:15:44.567,-29.4,-259.245,-23.03,0.20252,0.097356,-1.7531399999999997,3
2024-06-14 12:15:44.572,-24.955,-267.575,-24.64,0.208376,0.114924,-1.5825839999999998,3
2024-06-14 12:15:44.576,-27.545,-284.375,-27.405,0.198616,0.11638799999999999,-1.785348,3
2024-06-14 12:15:44.581,-32.55,-308.90999999999997,-29.575,0.23131200000000002,0.13176,-1.8612319999999998,3
2024-06-14 12:15:44.586,-35.980000000000004,-328.125,-31.080000000000002,0.194468,0.08906,-1.7624119999999999,3
2024-06-14 12:15:44.591,-42.105000000000004,-355.425,-33.46,0.264496,0.07466400000000001,-2.0757079999999997,3
2024-06-14 12:15:44.596,-44.974999999999994,-377.895,-32.76,0.300852,-0.031232,-2.112064,3
2024-06-14 12:15:44.601,-44.415,-407.53999999999996,-31.255000000000003,0.244244,-0.047335999999999996,-2.30824,3
2024-06-14 12:15:44.605,-44.239999999999995,-433.58000000000004,-27.615000000000002,0.297192,0.030011999999999994,-2.639592,3
2024-06-14 12:15:44.610,-46.375,-453.915,-23.240000000000002,0.443592,0.110288,-2.942152,3
2024-06-14 12:15:44.615,-46.795,-467.495,-19.04,0.49605199999999994,-0.012443999999999998,-3.2591080000000003,3
2024-06-14 12:15:44.620,-29.47,-490.875,-12.915,0.605364,-0.21618400000000002,-3.177368,3
2024-06-14 12:15:44.625,-27.79,-503.405,-7.734999999999999,0.406504,0.20325200000000002,-3.436496,3
2024-06-14 12:15:44.630,-45.36,-512.8199999999999,-10.675,0.32696000000000003,0.386008,-3.549468,3
2024-06-14 12:15:44.634,-45.709999999999994,-520.835,-14.455,0.24961200000000003,0.089548,-3.4094119999999997,3
2024-06-14 12:15:44.639,-14.595,-526.855,-17.744999999999997,0.353556,-0.23936399999999997,-3.440888,3
2024-06-14 12:15:44.644,27.72,-535.5350000000001,-10.22,0.224968,-0.14957199999999998,-3.5136,3
2024-06-14 12:15:44.649,52.815,-550.97,-3.8499999999999996,0.149328,0.344528,-3.44772,3
2024-06-14 12:15:44.654,47.67,-562.24,-2.625,-0.017323999999999992,0.7412719999999999,-3.205672,3
2024-06-14 12:15:44.658,31.15,-555.765,-10.780000000000001,-0.23033599999999999,0.8300879999999999,-2.72426,3
2024-06-14 12:15:44.663,17.465,-532.8050000000001,-18.165,-0.342576,0.647576,-2.545164,3
2024-06-14 12:15:44.668,-2.8,-506.625,-34.615,-1.093364,1.4391119999999997,-2.180384,3
2024-06-14 12:15:44.673,-24.395,-476.0,-28.105,-0.963312,0.972828,-1.8697720000000002,3
2024-06-14 12:15:44.678,-47.985,-446.6,-43.26,-1.291004,1.0826280000000001,-2.046916,3
2024-06-14 12:15:44.683,-73.00999999999999,-422.8,-62.615,-1.4073920000000002,1.3256519999999998,-2.406084,3
2024-06-14 12:15:44.687,-112.28,-392.875,-87.255,-1.721908,1.144116,-2.2696880000000004,3
2024-06-14 12:15:44.692,-149.135,-342.125,-109.55,-1.533296,0.90158,-1.852936,3
2024-06-14 12:15:44.697,-165.16500000000002,-323.68,-126.21000000000001,-0.754448,0.95892,-1.073356,3
2024-06-14 12:15:44.702,-146.37,-277.58500000000004,-124.14500000000001,-1.3298,0.537776,-1.6533440000000001,3
2024-06-14 12:15:44.707,-134.435,-147.175,-103.25,-2.373144,0.037576,-1.6374840000000002,4
2024-06-14 12:15:44.712,-90.89500000000001,-26.005000000000003,-60.724999999999994,-2.1606199999999998,-0.21789199999999997,-1.189012,4
2024-06-14 12:15:44.716,-23.17,59.5,-13.86,-1.681648,-0.360144,-1.338828,4
2024-06-14 12:15:44.721,27.86,131.46,23.94,-1.6704240000000001,-0.312076,-1.463512,4
2024-06-14 12:15:44.726,65.83500000000001,187.775,56.525000000000006,-1.586488,-0.14688800000000002,-1.341024,4
2024-06-14 12:15:44.731,96.67,224.91,78.19,-1.372256,-0.002440000000000001,-1.262456,4
2024-06-14 12:15:44.736,112.105,251.57999999999998,87.85,-1.2575759999999998,0.123708,-1.2348839999999999,4
2024-06-14 12:15:44.741,114.17,272.615,89.81,-1.1833999999999998,0.257664,-1.14436,4
2024-06-14 12:15:44.745,107.555,289.625,84.595,-1.1119080000000001,0.389424,-1.029436,4
2024-06-14 12:15:44.750,91.66499999999999,304.46500000000003,72.555,-1.068476,0.461648,-0.9713639999999999,4
2024-06-14 12:15:44.755,68.845,317.83500000000004,57.120000000000005,-1.003816,0.483852,-0.938912,4
2024-06-14 12:15:44.760,45.99,329.7,39.55,-0.92964,0.48848800000000003,-0.910364,4
2024-06-14 12:15:44.765,25.095,340.095,20.79,-0.887672,0.449204,-0.885964,4
2024-06-14 12:15:44.770,7.42,349.65,1.8199999999999998,-0.830576,0.37576,-0.877424,4
2024-06-14 12:15:44.774,-6.125,358.82,-16.03,-0.7639640000000001,0.288652,-0.895968,4
2024-06-14 12:15:44.779,-14.665000000000001,368.095,-32.235,-0.6966199999999999,0.199592,-0.92476,4
2024-06-14 12:15:44.784,-17.57,378.455,-45.64,-0.6329359999999999,0.08979200000000001,-0.9391560000000001,4
2024-06-14 12:15:44.789,-15.645,389.235,-55.86,-0.5860879999999999,-0.025131999999999998,-0.9730719999999999,4
2024-06-14 12:15:44.794,-9.765,400.12,-62.545,-0.53314,-0.124196,-1.028948,4
2024-06-14 12:15:44.798,0.665,411.005,-65.1,-0.47458,-0.216184,-1.0826280000000001,4
2024-06-14 12:15:44.803,15.75,420.80499999999995,-63.84,-0.42187600000000003,-0.27425599999999994,-1.132648,4
2024-06-14 12:15:44.808,34.019999999999996,428.71500000000003,-60.095,-0.3721,-0.270352,-1.181692,4
2024-06-14 12:15:44.813,51.17,434.63,-55.965,-0.320372,-0.219356,-1.2358599999999997,4
2024-06-14 12:15:44.818,62.754999999999995,438.83000000000004,-52.5,-0.261812,-0.132492,-1.297348,4
2024-06-14 12:15:44.823,67.41,441.0,-50.47,-0.209596,-0.036356,-1.361764,4
2024-06-14 12:15:44.827,65.52000000000001,441.98,-49.525000000000006,-0.17177599999999998,0.05246000000000001,-1.4144679999999998,4
2024-06-14 12:15:44.832,58.275,441.91,-49.28,-0.14932800000000002,0.12395199999999998,-1.433744,4
2024-06-14 12:15:44.837,48.019999999999996,441.66499999999996,-49.07,-0.127124,0.177632,-1.45302,4
2024-06-14 12:15:44.842,35.595,441.0,-48.79,-0.10491999999999999,0.223504,-1.48718,4
2024-06-14 12:15:44.847,21.595,439.81,-48.44,-0.088084,0.25717599999999996,-1.538908,4
2024-06-14 12:15:44.852,5.46,438.97,-47.95,-0.04514,0.304024,-1.566236,4
2024-06-14 12:15:44.856,-8.959999999999999,437.32500000000005,-46.760000000000005,0.005612,0.266448,-1.58722,4
2024-06-14 12:15:44.861,-24.009999999999998,435.505,-45.36,-0.0012200000000000023,0.311588,-1.664324,4
2024-06-14 12:15:44.866,-35.489999999999995,434.70000000000005,-43.645,0.039527999999999994,0.300852,-1.697264,4
2024-06-14 12:15:44.871,-42.63,432.565,-40.355000000000004,0.09296399999999999,0.27327999999999997,-1.733132,4
2024-06-14 12:15:44.876,-48.335,431.13,-35.455,0.144692,0.244,-1.798524,4
2024-06-14 12:15:44.881,-51.519999999999996,429.24,-28.490000000000002,0.18836799999999998,0.242292,-1.835612,4
2024-06-14 12:15:44.885,-52.57,426.78999999999996,-19.6,0.215208,0.238632,-1.8797760000000001,4
2024-06-14 12:15:44.890,-52.92,424.16499999999996,-9.52,0.2379,0.26547199999999993,-1.921744,4
2024-06-14 12:15:44.895,-54.599999999999994,420.98,1.2600000000000002,0.262544,0.304756,-1.975912,4
2024-06-14 12:15:44.900,-58.31,417.585,12.495000000000001,0.279136,0.35648399999999997,-2.0498439999999998,4
2024-06-14 12:15:44.905,-64.295,414.82,24.22,0.307684,0.387228,-2.104012,4
2024-06-14 12:15:44.910,-72.625,412.51,36.47,0.34965199999999996,0.407236,-2.180872,4
2024-06-14 12:15:44.914,-80.11500000000001,411.285,50.435,0.41235999999999995,0.41358,-2.266516,4
2024-06-14 12:15:44.919,-86.31,410.025,66.045,0.471164,0.40870000000000006,-2.3467919999999998,4
2024-06-14 12:15:44.924,-91.0,408.765,82.88,0.53314,0.41821600000000003,-2.433656,4
2024-06-14 12:15:44.929,-94.08,407.47,100.52,0.6063400000000001,0.427976,-2.509784,4
2024-06-14 12:15:44.934,-96.32,406.735,118.37,0.662704,0.434808,-2.516128,4
2024-06-14 12:15:44.939,-107.205,404.53,134.26,0.666364,0.429196,-2.619828,4
2024-06-14 12:15:44.943,-134.75,401.65999999999997,146.01999999999998,0.787388,0.405528,-2.773548,4
2024-06-14 12:15:44.948,-159.075,397.18,155.435,0.9435479999999999,0.306708,-2.843576,4
2024-06-14 12:15:44.953,-170.8,392.28,164.955,1.096536,0.18690400000000001,-2.922876,4
2024-06-14 12:15:44.958,-168.385,387.275,174.195,1.2919800000000001,0.076372,-2.99754,4
2024-06-14 12:15:44.963,-153.09,380.83500000000004,182.7,1.49206,0.019275999999999998,-3.02804,4
2024-06-14 12:15:44.967,-130.16500000000002,373.345,188.895,1.705072,0.025375999999999996,-3.016084,4
2024-06-14 12:15:44.972,-106.08500000000001,365.4,191.45,1.93858,0.132492,-2.9746040000000002,4
2024-06-14 12:15:44.977,-85.85499999999999,356.58000000000004,203.35,2.1123079999999996,0.528504,-2.9236079999999998,4
2024-06-14 12:15:44.982,-68.88,343.315,189.0,2.71206,0.18763599999999997,-2.7996559999999997,4
2024-06-14 12:15:44.987,-63.175,325.53499999999997,159.39,2.8704159999999996,0.6046320000000001,-2.667164,4
2024-06-14 12:15:44.992,-66.5,304.46500000000003,134.47,3.174928,0.749812,-2.501244,4
2024-06-14 12:15:44.996,-78.89,280.035,102.13,3.4643119999999996,0.836432,-2.3455719999999998,4
2024-06-14 12:15:45.001,-101.535,252.35,62.79,3.76004,0.809592,-2.232112,4
2024-06-14 12:15:45.006,-132.3,222.53,19.775,4.05284,0.602924,-2.1513479999999996,4
2024-06-14 12:15:45.011,-160.09,191.87,-20.685000000000002,4.312212,0.21594,-2.059116,4
2024-06-14 12:15:45.016,-172.26999999999998,161.945,-52.325,4.516684,-0.2379,-1.998116,4
2024-06-14 12:15:45.021,-160.79000000000002,129.885,-71.36500000000001,4.778252,-0.9918600000000001,-1.9339439999999999,4
2024-06-14 12:15:45.025,-124.03999999999999,100.41499999999999,-78.19,4.858284,-1.3085719999999998,-1.873676,4
2024-06-14 12:15:45.030,-70.38499999999999,66.22,-73.745,4.887076,-1.58722,-1.7968160000000002,4
2024-06-14 12:15:45.035,-9.345,32.515,-63.735,4.818756,-1.635044,-1.7223959999999998,4
2024-06-14 12:15:45.040,49.525,-1.7500000000000004,-53.620000000000005,4.662352,-1.441552,-1.6472440000000002,4
2024-06-14 12:15:45.045,97.475,-35.84,-47.215,4.4378720000000005,-1.084092,-1.611132,4
2024-06-14 12:15:45.050,130.62,-68.075,-45.885000000000005,4.156296,-0.672464,-1.610156,4
2024-06-14 12:15:45.054,150.92000000000002,-99.19,-50.644999999999996,3.921324,0.4655520000000001,-1.22244,4
