time,gyroscope_x,gyroscope_y,gyroscope_z,accelerometer_x,accelerometer_y,accelerometer_z,phase
2024-06-14 12:15:44.502,-158.82999999999998,-253.32999999999998,40.845,7.274616,1.309304,-4.371504,1
2024-06-14 12:15:44.507,-289.555,-251.195,51.03,3.716852,-0.8115439999999999,1.1855959999999999,1
2024-06-14 12:15:44.511,-285.355,-321.51,100.765,1.5147519999999999,0.324276,-1.653832,1
2024-06-14 12:15:44.516,-309.61,-312.375,117.355,0.08661999999999997,0.3538,-2.1018160000000004,1
2024-06-14 12:15:44.521,-319.795,-299.21500000000003,106.47,-1.081408,-0.132248,-2.171112,1
2024-06-14 12:15:44.526,-312.305,-285.565,88.55000000000001,-0.755424,-0.44774,-1.891,1
2024-06-14 12:15:44.531,-278.355,-281.75,55.965,-0.10711599999999999,-0.422608,-2.048136,1
2024-06-14 12:15:44.536,-197.32999999999998,-277.54999999999995,9.555,0.38893599999999995,-0.424072,-2.12524,2
2024-06-14 12:15:44.540,-121.765,-289.31,-36.96,0.454572,-0.20618,-2.051796,2
2024-06-14 12:15:44.545,-70.525,-290.78,-68.81,0.315492,0.046604,-2.2013680000000004,2
2024-06-14 12:15:44.550,-39.025,-270.48,-81.095,0.12273200000000001,0.20983999999999997,-2.304824,2
2024-06-14 12:15:44.555,-31.78,-227.675,-74.025,0.210084,0.511912,-2.415844,2
2024-06-14 12:15:44.560,-35.105000000000004,-182.10500000000002,-49.175,0.31134399999999995,0.673928,-2.4029119999999997,2
2024-06-14 12:15:44.565,-27.16,-153.54500000000002,-25.97,0.29304399999999997,0.47653199999999996,-2.070096,2
2024-06-14 12:15:44.569,-12.005,-136.95499999999998,-17.22,0.14273999999999998,0.258152,-1.7751,2
2024-06-14 12:15:44.574,4.445,-121.03,-17.64,0.054411999999999995,0.077592,-1.596004,2
2024-06-14 12:15:44.579,11.305,-109.69,-22.189999999999998,0.025132,-0.048311999999999994,-1.4984039999999998,2
2024-06-14 12:15:44.584,13.86,-93.555,-28.77,-0.010003999999999999,-0.07442,-1.338096,2
2024-06-14 12:15:44.589,14.629999999999999,-87.255,-34.055,-0.047824000000000005,-0.03904,-1.1919400000000002,2
2024-06-14 12:15:44.594,13.58,-81.13,-35.980000000000004,-0.04953199999999999,0.039284,-1.186328,2
2024-06-14 12:15:44.598,12.145,-65.17,-32.27,-0.026351999999999997,0.101748,-1.143628,2
2024-06-14 12:15:44.603,10.5,-50.19,-24.22,-0.015371999999999999,0.114436,-1.153144,2
2024-06-14 12:15:44.608,8.155,-36.400000000000006,-17.29,0.011712,0.062708,-1.1614399999999998,2
2024-06-14 12:15:44.613,7.385,-24.71,-12.705,0.036844,0.015127999999999999,-1.176324,2
2024-06-14 12:15:44.618,4.55,-20.195,-11.094999999999999,0.044163999999999995,-0.030011999999999997,-1.188524,2
2024-06-14 12:15:44.623,3.185,-18.935000000000002,-11.129999999999999,0.036844,-0.03416,-1.1868159999999999,2
2024-06-14 12:15:44.627,1.54,-16.87,-11.165,0.032451999999999995,-0.001464,-1.184132,2
2024-06-14 12:15:44.632,0.665,-12.95,-8.715,0.029767999999999996,0.016836,-1.1721759999999999,2
2024-06-14 12:15:44.637,0.7,-12.985,-4.9,0.013420000000000001,0.040992,-1.1555840000000002,2
2024-06-14 12:15:44.642,1.225,-10.01,-1.75,-0.005612,0.028547999999999997,-1.133868,2
2024-06-14 12:15:44.647,1.47,-8.05,-0.245,-0.021228,-0.0012200000000000002,-1.115324,2
2024-06-14 12:15:44.652,0.875,-7.7,0.10500000000000001,-0.02806,-0.021228,-1.1067839999999998,2
2024-06-14 12:15:44.657,-0.56,-8.084999999999999,0.21,-0.019764000000000004,-0.020984000000000003,-1.106052,2
2024-06-14 12:15:44.661,-2.065,-7.1049999999999995,0.8049999999999999,-0.026108,-0.017568,-1.114348,2
2024-06-14 12:15:44.666,-2.7649999999999997,-8.54,1.4,-0.030256,-0.002684,-1.1211799999999998,2
2024-06-14 12:15:44.671,-2.73,-10.815,1.925,-0.048799999999999996,0.00488,-1.124596,2
2024-06-14 12:15:44.676,-1.9249999999999998,-13.719999999999999,2.17,-0.061487999999999994,0.007564,-1.1221560000000002,2
2024-06-14 12:15:44.681,-1.7149999999999999,-17.115000000000002,2.625,-0.065148,0.005856,-1.1143480000000001,2
2024-06-14 12:15:44.686,-1.33,-19.32,2.94,-0.063196,0.008539999999999999,-1.105076,2
2024-06-14 12:15:44.690,-0.49,-21.42,2.9050000000000002,-0.061,0.01708,-1.1016599999999999,2
2024-06-14 12:15:44.695,-0.245,-22.54,2.87,-0.059536,0.009516,-1.0955599999999999,2
2024-06-14 12:15:44.700,0.21,-23.450000000000003,2.8,-0.04636,0.0053679999999999995,-1.089216,2
2024-06-14 12:15:44.705,0.98,-24.78,2.73,-0.056364,0.013663999999999999,-1.094096,2
2024-06-14 12:15:44.710,1.225,-25.585,2.52,-0.04636,0.003172,-1.099952,2
2024-06-14 12:15:44.715,1.645,-27.65,2.66,-0.048068,0.0061,-1.0931199999999999,2
2024-06-14 12:15:44.719,2.2750000000000004,-28.805,2.59,-0.055144,0.013908,-1.087996,2
2024-06-14 12:15:44.724,2.5549999999999997,-29.82,2.695,-0.051484,0.007319999999999999,-1.0899480000000001,2
2024-06-14 12:15:44.729,2.6950000000000003,-30.905,3.045,-0.043188000000000004,0.0039040000000000004,-1.086532,2
2024-06-14 12:15:44.734,2.45,-32.025000000000006,3.255,-0.040015999999999996,-0.0039039999999999995,-1.083848,2
2024-06-14 12:15:44.739,2.03,-33.95,3.2199999999999998,-0.04611599999999999,-0.0034160000000000024,-1.100684,2
2024-06-14 12:15:44.744,0.63,-35.805,2.9050000000000002,-0.028791999999999998,0.0039040000000000012,-1.101172,2
2024-06-14 12:15:44.748,-0.28,-36.715,2.8,0.024644,-0.038551999999999996,-1.038952,2
2024-06-14 12:15:44.753,-1.8900000000000001,-38.605000000000004,2.94,-0.149816,0.001464,-1.149972,2
2024-06-14 12:15:44.758,-3.64,-39.69,2.66,0.037331999999999976,0.015371999999999999,-1.050908,2
2024-06-14 12:15:44.763,-4.34,-39.480000000000004,2.59,0.035379999999999995,-0.047336,-1.044076,2
2024-06-14 12:15:44.768,-6.3,-40.985,2.59,-0.13054000000000002,0.022448,-1.121912,2
2024-06-14 12:15:44.773,-6.16,-40.46,2.4850000000000003,0.13371200000000003,-0.041968,-1.031876,2
2024-06-14 12:15:44.777,-8.26,-41.44,2.24,-0.127856,0.035868,-1.125572,2
2024-06-14 12:15:44.782,-8.085,-40.915,2.205,0.06343999999999997,-0.066856,-1.055056,2
2024-06-14 12:15:44.787,-10.99,-41.754999999999995,2.205,-0.028792000000000012,0.046116,-1.094096,2
2024-06-14 12:15:44.792,-9.765,-42.035,2.38,0.053436,-0.056852,-1.0518839999999998,2
2024-06-14 12:15:44.797,-11.620000000000001,-42.875,2.555,0.154696,0.057828,-1.01748,2
2024-06-14 12:15:44.802,-12.04,-54.11,2.17,-0.26571599999999995,0.002195999999999999,-1.2178039999999999,2
2024-06-14 12:15:44.806,-14.350000000000001,-37.625,3.2199999999999998,-0.19495600000000002,-0.030988,-1.206092,2
2024-06-14 12:15:44.811,-9.59,-38.745,3.465,-0.07808000000000001,-0.036356,-1.119716,2
2024-06-14 12:15:44.816,-10.955,-39.69,3.7800000000000002,0.084424,-0.025863999999999998,-1.0328519999999999,2
2024-06-14 12:15:44.821,-13.370000000000001,-41.230000000000004,3.955,0.12444,-0.010003999999999999,-1.01504,2
2024-06-14 12:15:44.826,-10.36,-42.56,4.0600000000000005,0.06636800000000001,-0.017812,-1.04432,2
2024-06-14 12:15:44.831,-13.405000000000001,-40.81,4.095,-0.011467999999999997,-0.013908,-1.089216,2
2024-06-14 12:15:44.835,-12.705,-43.995000000000005,4.305,0.023912000000000003,0.027572,-1.112396,2
2024-06-14 12:15:44.840,-12.67,-45.955,4.515000000000001,0.05002,0.016104,-1.082384,2
2024-06-14 12:15:44.845,-14.945,-47.775,4.725,0.041479999999999996,0.005368,-1.0943399999999999,2
2024-06-14 12:15:44.850,-13.719999999999999,-49.56,5.075,0.044652,-0.001952,-1.1065399999999999,2
2024-06-14 12:15:44.855,-16.240000000000002,-51.205,5.529999999999999,0.064416,0.012931999999999999,-1.1106880000000001,2
2024-06-14 12:15:44.860,-22.015,-49.0,4.795,0.0854,-0.0012199999999999997,-1.13948,2
2024-06-14 12:15:44.864,-23.555,-52.36,5.04,0.073932,0.004392,-1.1162999999999998,2
2024-06-14 12:15:44.869,-24.29,-54.355000000000004,5.39,0.048556,-0.008784,-1.1150799999999998,2
2024-06-14 12:15:44.874,-25.025,-62.825,5.635,0.073932,0.025132,-1.126548,2
2024-06-14 12:15:44.879,-23.8,-62.754999999999995,5.95,0.08125199999999999,-0.002684,-1.115324,2
2024-06-14 12:15:44.884,-23.695,-70.56,6.859999999999999,0.12004799999999999,-0.015128000000000003,-1.1738839999999997,2
2024-06-14 12:15:44.889,-17.465,-69.78999999999999,8.015,0.097112,-0.0009760000000000003,-1.162172,2
2024-06-14 12:15:44.894,-11.83,-72.555,9.135,0.07930000000000001,0.04026,-1.162416,2
2024-06-14 12:15:44.898,-3.185,-75.075,10.535,0.11760799999999999,0.03172,-1.272948,2
2024-06-14 12:15:44.903,5.705,-79.94,12.004999999999999,0.10858000000000001,0.008784,-1.235128,2
2024-06-14 12:15:44.908,6.475,-83.3,12.495000000000001,0.087352,0.03904,-1.218048,2
2024-06-14 12:15:44.913,9.135,-88.41,12.285,0.101504,0.027816,-1.22976,2
2024-06-14 12:15:44.918,12.25,-92.19,12.04,0.07442,0.08418,-1.2744119999999999,2
2024-06-14 12:15:44.923,15.89,-96.46000000000001,11.41,0.0915,0.015372,-1.241228,2
2024-06-14 12:15:44.927,12.809999999999999,-100.87,11.094999999999999,0.124928,0.054167999999999994,-1.306864,2
2024-06-14 12:15:44.932,14.91,-96.74,10.885,0.099552,0.07686,-1.368352,2
2024-06-14 12:15:44.937,24.43,-105.595,11.97,0.12688,0.071736,-1.062376,2
2024-06-14 12:15:44.942,15.68,-120.33,12.635,0.15494000000000002,-0.14835199999999998,-1.415444,2
2024-06-14 12:15:44.947,16.695,-120.33000000000001,15.225,0.12297599999999999,0.033428,-1.310524,2
2024-06-14 12:15:44.952,13.16,-124.46000000000001,13.405000000000001,0.133712,0.114436,-1.3754279999999999,2
2024-06-14 12:15:44.956,11.27,-128.45,13.055,0.153964,0.040992,-1.354444,2
2024-06-14 12:15:44.961,15.085,-133.10500000000002,11.515,0.141764,0.044408,-1.3771360000000001,2
2024-06-14 12:15:44.966,15.785,-141.995,10.5,0.187392,-0.009760000000000001,-1.4012920000000002,3
2024-06-14 12:15:44.971,17.325,-147.805,11.69,0.188856,-0.048556,-1.3673760000000001,3
2024-06-14 12:15:44.976,19.145,-154.03500000000003,11.795,0.170312,0.088572,-1.375672,3
2024-06-14 12:15:44.981,21.665,-161.07,10.15,0.181536,0.10272400000000001,-1.409344,3
2024-06-14 12:15:44.985,27.965,-167.02,8.645,0.176168,0.13590799999999997,-1.389824,3
2024-06-14 12:15:44.990,32.725,-174.09,6.755,0.21838,0.10589599999999999,-1.417884,3
2024-06-14 12:15:44.995,37.239999999999995,-184.275,5.25,0.17397200000000002,0.133224,-1.448872,3
2024-06-14 12:15:45.000,39.935,-193.55,3.955,0.195932,0.103212,-1.473272,3
2024-06-14 12:15:45.005,43.75,-203.07,3.255,0.21301199999999998,0.091256,-1.508896,3
2024-06-14 12:15:45.010,45.08,-217.7,2.87,0.19642,0.048556,-1.5293919999999999,3
2024-06-14 12:15:45.014,44.835,-229.985,3.255,0.2074,0.037332,-1.583316,3
2024-06-14 12:15:45.019,42.42,-244.825,4.34,0.227408,-0.016835999999999997,-1.607228,3
2024-06-14 12:15:45.024,38.745000000000005,-259.525,5.74,0.212524,-0.07783599999999999,-1.66896,3
2024-06-14 12:15:45.029,34.405,-277.095,8.26,0.26181199999999993,-0.089304,-1.722152,3
2024-06-14 12:15:45.034,30.345,-303.59000000000003,11.129999999999999,0.21667199999999998,-0.05367999999999999,-1.714832,3
2024-06-14 12:15:45.039,24.990000000000002,-315.63,11.9,0.24888,-0.08052,-1.9805479999999998,3
2024-06-14 12:15:45.043,18.725,-330.68,13.93,0.2501,-0.075152,-1.8902679999999998,3
2024-06-14 12:15:45.048,11.129999999999999,-350.28,15.155000000000001,0.29157999999999995,-0.061,-1.921012,3
2024-06-14 12:15:45.053,1.785,-370.72,15.504999999999999,0.279868,-0.026352,-2.0427679999999997,3
2024-06-14 12:15:45.058,-6.93,-398.29999999999995,14.28,0.299632,-0.012931999999999999,-1.99714,3
2024-06-14 12:15:45.063,-19.880000000000003,-411.95000000000005,13.405000000000001,0.30988,-0.014395999999999999,-2.527596,3
2024-06-14 12:15:45.068,-24.814999999999998,-421.89,12.04,0.438224,0.042212,-2.4419519999999997,3
2024-06-14 12:15:45.072,-32.305,-439.53,7.63,0.5350919999999999,0.122976,-2.606896,3
2024-06-14 12:15:45.077,-34.685,-454.86,1.75,0.534116,-0.043432,-2.856508,3
2024-06-14 12:15:45.082,-36.295,-470.78499999999997,0.9450000000000001,0.510448,-0.22838399999999998,-3.0378,3
2024-06-14 12:15:45.087,-32.41,-482.44,3.115,0.48385199999999995,-0.288652,-3.2898519999999998,3
2024-06-14 12:15:45.092,-43.96,-497.735,6.23,0.460184,-0.11663199999999999,-3.4496719999999996,3
2024-06-14 12:15:45.097,-57.96,-503.055,2.485,0.447252,-0.12956399999999998,-3.7205120000000003,3
2024-06-14 12:15:45.102,-66.115,-513.24,2.66,0.37698,-0.283772,-3.571428,3
2024-06-14 12:15:45.106,-67.165,-530.88,3.29,0.187636,-0.29402000000000006,-3.348656,3
2024-06-14 12:15:45.111,-57.785,-547.015,1.295,-0.00048799999999999885,-0.34501600000000004,-3.351584,3
2024-06-14 12:15:45.116,-46.235,-562.5550000000001,0.9450000000000001,-0.26937599999999995,-0.350628,-3.64414,3
2024-06-14 12:15:45.121,-52.64,-574.9449999999999,-1.7149999999999999,-0.10467599999999999,-0.23155599999999998,-3.4411319999999996,3
2024-06-14 12:15:45.126,-53.34,-569.1700000000001,-4.76,-0.37673599999999996,-0.23692399999999997,-2.679608,3
2024-06-14 12:15:45.131,-56.595,-543.06,-5.8100000000000005,-0.528748,-0.349896,-2.176236,3
2024-06-14 12:15:45.135,-45.150000000000006,-518.56,-2.0300000000000002,-0.773236,-0.6356200000000001,-2.246996,3
2024-06-14 12:15:45.140,-26.355000000000004,-486.28999999999996,-0.105,-0.8952359999999999,-0.73078,-2.483432,3
2024-06-14 12:15:45.145,9.94,-441.90999999999997,5.81,-1.071648,-0.6768559999999999,-2.350208,4
2024-06-14 12:15:45.150,38.465,-372.225,12.565,-1.545496,-0.5909679999999999,-1.9466320000000001,4
2024-06-14 12:15:45.155,41.09,-288.82,3.01,-2.267492,-0.47384799999999994,-1.5006,4
2024-06-14 12:15:45.160,8.715,-219.03,-40.425,-1.259284,0.027083999999999997,-0.915244,4
2024-06-14 12:15:45.164,-6.65,-116.445,-66.71,-1.921012,-0.021959999999999993,-2.143052,4
2024-06-14 12:15:45.169,-37.03,22.89,-114.975,-2.719868,0.235948,-1.8673319999999998,4
2024-06-14 12:15:45.174,-88.75999999999999,116.16499999999999,-123.305,-2.1593999999999998,0.816668,-1.74216,4
2024-06-14 12:15:45.179,-131.67000000000002,157.465,-120.64500000000001,-1.335168,-0.16128399999999998,-2.011292,4
2024-06-14 12:15:45.184,-146.16,185.535,-130.69,-1.525244,-0.384788,-1.842444,4
2024-06-14 12:15:45.189,-126.80499999999999,210.42000000000002,-115.71000000000001,-1.555988,-0.557296,-1.504992,4
2024-06-14 12:15:45.193,-91.595,228.655,-95.06,-1.3358999999999999,-0.8642479999999999,-1.311744,4
2024-06-14 12:15:45.198,-49.175,246.715,-72.41499999999999,-1.3054000000000001,-0.813252,-1.2419600000000002,4
2024-06-14 12:15:45.203,-7.000000000000001,267.12,-46.620000000000005,-1.254648,-0.734928,-1.159976,4
2024-06-14 12:15:45.208,26.215,287.63,-22.365000000000002,-1.180228,-0.58926,-1.095804,4
2024-06-14 12:15:45.213,46.445,308.28,-0.38500000000000023,-1.122156,-0.424316,-1.05408,4
2024-06-14 12:15:45.218,54.46,328.09000000000003,17.955,-1.071648,-0.260836,-1.032364,4
2024-06-14 12:15:45.222,52.394999999999996,346.78,32.724999999999994,-1.006012,-0.10906800000000001,-1.021628,4
2024-06-14 12:15:45.227,43.295,362.46000000000004,43.925,-0.931592,0.0007319999999999983,-1.022848,4
2024-06-14 12:15:45.232,29.715,376.005,52.29,-0.851804,0.075396,-1.039196,4
2024-06-14 12:15:45.237,13.370000000000001,386.435,58.379999999999995,-0.7771399999999999,0.112972,-1.05164,4
2024-06-14 12:15:45.242,-2.8,395.395,62.72,-0.712724,0.127612,-1.056276,4
2024-06-14 12:15:45.247,-17.009999999999998,403.62,65.8,-0.653432,0.12736799999999998,-1.076772,4
2024-06-14 12:15:45.251,-27.475,411.95,67.41,-0.583892,0.102236,-1.103612,4
2024-06-14 12:15:45.256,-34.019999999999996,419.09000000000003,68.075,-0.5289919999999999,0.073688,-1.1277679999999999,4
2024-06-14 12:15:45.261,-36.47,424.27,67.86500000000001,-0.469456,0.0427,-1.152168,4
2024-06-14 12:15:45.266,-34.72,428.47,67.025,-0.409188,0.0060999999999999995,-1.18584,4
2024-06-14 12:15:45.271,-30.240000000000002,430.955,65.44999999999999,-0.340868,-0.018543999999999998,-1.215608,4
2024-06-14 12:15:45.276,-24.325,430.28999999999996,62.965,-0.282308,-0.033916,-1.247084,4
2024-06-14 12:15:45.280,-18.130000000000003,428.785,59.465,-0.235704,-0.040504,-1.2768519999999999,4
2024-06-14 12:15:45.285,-12.004999999999999,424.16499999999996,54.985,-0.19032,-0.044163999999999995,-1.3102800000000001,4
2024-06-14 12:15:45.290,-5.5649999999999995,419.895,49.629999999999995,-0.148108,-0.061488,-1.362496,4
2024-06-14 12:15:45.295,0.595,413.35,43.82,-0.119804,-0.08125199999999999,-1.40422,4
2024-06-14 12:15:45.300,6.720000000000001,406.7,37.905,-0.10345599999999999,-0.107604,-1.439112,4
2024-06-14 12:15:45.305,13.93,402.22,32.585,-0.09881999999999999,-0.14713199999999999,-1.4988920000000001,4
2024-06-14 12:15:45.312,22.54,398.65,27.965,-0.09272,-0.183976,-1.565748,4
2024-06-14 12:15:45.316,32.55,398.65,24.22,-0.08808400000000001,-0.20374,-1.624552,4
2024-06-14 12:15:45.321,41.65,400.82000000000005,20.93,-0.096136,-0.20251999999999998,-1.6882359999999998,4
2024-06-14 12:15:45.326,48.405,404.145,18.305,-0.08271600000000001,-0.191296,-1.766804,4
2024-06-14 12:15:45.331,52.849999999999994,407.225,15.82,-0.051484,-0.166896,-1.8443960000000001,4
2024-06-14 12:15:45.336,56.595,409.605,13.510000000000002,-0.015615999999999998,-0.17446,-1.917596,4
2024-06-14 12:15:45.340,59.254999999999995,412.475,10.605,0.020007999999999998,-0.159576,-1.988356,4
2024-06-14 12:15:45.345,60.97,413.77,6.965,0.053436,-0.134688,-2.07888,4
2024-06-14 12:15:45.350,62.51,415.59000000000003,2.52,0.089792,-0.115412,-2.13622,4
2024-06-14 12:15:45.355,64.26,415.205,-3.0100000000000002,0.12688,-0.110044,-2.216252,4
2024-06-14 12:15:45.360,66.00999999999999,416.01,-9.555,0.16665200000000002,-0.094672,-2.291404,4
2024-06-14 12:15:45.365,67.48,416.605,-17.36,0.20251999999999998,-0.07808000000000001,-2.362896,4
2024-06-14 12:15:45.369,68.04,416.04499999999996,-25.97,0.24375599999999997,-0.080276,-2.446588,4
2024-06-14 12:15:45.374,68.11000000000001,416.22,-35.385,0.293044,-0.08637600000000001,-2.5132,4
2024-06-14 12:15:45.379,68.6,414.78499999999997,-44.415,0.34062400000000004,-0.11102000000000001,-2.5732239999999997,4
2024-06-14 12:15:45.384,70.45500000000001,412.92999999999995,-52.535,0.404308,-0.13517599999999996,-2.6413,4
2024-06-14 12:15:45.389,74.62,410.34000000000003,-59.57,0.5021519999999999,-0.134932,-2.693028,4
2024-06-14 12:15:45.393,80.71,407.015,-65.8,0.6214679999999999,-0.112972,-2.742072,4
2024-06-14 12:15:45.398,87.045,402.46500000000003,-71.4,0.749568,-0.07661599999999999,-2.795508,4
2024-06-14 12:15:45.403,93.03,397.355,-76.82499999999999,0.898164,-0.027328,-2.856508,4
2024-06-14 12:15:45.408,97.16,389.515,-82.42500000000001,1.060912,0.031964,-2.9126279999999998,4
2024-06-14 12:15:45.413,96.845,383.495,-88.69,1.2309800000000002,0.101992,-2.962892,4
2024-06-14 12:15:45.418,89.63499999999999,374.71000000000004,-95.515,1.414712,0.15494,-2.9821679999999997,4
2024-06-14 12:15:45.422,74.83,365.855,-102.13,1.594296,0.155428,-2.9707,4
2024-06-14 12:15:45.427,56.21,357.315,-106.75,1.8026719999999998,0.068808,-2.93166,4
2024-06-14 12:15:45.432,39.269999999999996,347.865,-108.15,2.043256,-0.080764,-2.866268,4
2024-06-14 12:15:45.437,28.28,336.07,-105.07,2.3119,-0.26449599999999995,-2.752808,4
2024-06-14 12:15:45.442,24.255,321.96500000000003,-97.475,2.6000639999999997,-0.443836,-2.616168,4
2024-06-14 12:15:45.446,28.560000000000002,304.325,-85.505,2.8953040000000003,-0.57706,-2.453664,4
2024-06-14 12:15:45.451,40.18,284.095,-69.61500000000001,3.193716,-0.667584,-2.298724,4
2024-06-14 12:15:45.456,56.105,259.315,-49.98,3.5075000000000003,-0.70272,-2.153788,4
2024-06-14 12:15:45.461,75.53,233.275,-28.175,3.7951759999999997,-0.624396,-2.013976,4
2024-06-14 12:15:45.466,93.975,205.10000000000002,-7.0,4.0569880000000005,-0.45432799999999995,-1.8846559999999999,4
2024-06-14 12:15:45.471,106.715,175.42000000000002,10.99,4.298792000000001,-0.19666399999999998,-1.769488,4
2024-06-14 12:15:45.475,111.125,147.175,23.975,4.542792,0.087352,-1.691408,4
2024-06-14 12:15:45.480,106.155,117.03999999999999,31.674999999999997,4.769468,0.35428800000000005,-1.6179639999999997,4
2024-06-14 12:15:45.485,92.96000000000001,88.13,35.0,4.917820000000001,0.57462,-1.536712,4
2024-06-14 12:15:45.490,72.31,58.345,34.754999999999995,4.966863999999999,0.72956,-1.459852,4
2024-06-14 12:15:45.495,45.78,24.814999999999998,32.515,4.935876,0.8137399999999999,-1.3990960000000001,4
2024-06-14 12:15:45.499,16.485,-6.65,29.645,4.805823999999999,0.775676,-1.3610319999999998,4
2024-06-14 12:15:45.504,-12.739999999999998,-38.675,27.65,4.586468,0.659044,-1.347856,4
2024-06-14 12:15:45.509,-38.01,-68.03999999999999,27.055,4.2980599999999995,0.47799600000000003,-1.357128,4
2024-06-14 12:15:45.514,-56.91,-93.87,27.825000000000003,3.96378,0.255224,-1.4071479999999998,4
2024-06-14 12:15:45.519,-70.175,-113.225,29.225,3.576552,0.008539999999999999,-1.467416,4
2024-06-14 12:15:45.524,-213.01,-248.535,44.59,3.705628,-2.180384,-5.26674,0
