time,gyroscope_x,gyroscope_y,gyroscope_z,accelerometer_x,accelerometer_y,accelerometer_z,phase
2024-06-14 12:17:29.715,276.60499999999996,-181.685,-89.39,-3.895216,2.464156,5.281136,1
2024-06-14 12:17:29.720,346.185,39.935,-91.735,-1.209508,0.296948,-0.6475759999999999,1
2024-06-14 12:17:29.725,401.83500000000004,-42.28,-70.21,-1.3371199999999999,0.25180800000000003,-1.0104039999999999,1
2024-06-14 12:17:29.730,396.48,-134.95999999999998,-42.595,0.107604,0.45530399999999993,-1.592344,1
2024-06-14 12:17:29.735,335.405,-201.425,-14.84,0.475556,0.249856,-2.251632,1
2024-06-14 12:17:29.740,216.09,-260.925,19.46,0.412848,-0.101016,-2.512712,1
2024-06-14 12:17:29.744,94.78,-325.5,59.745,0.446276,-0.278404,-2.458056,1
2024-06-14 12:17:29.749,26.25,-335.44,86.345,0.345748,-0.50752,-2.691564,1
2024-06-14 12:17:29.754,6.300000000000001,-297.745,70.7,0.38039599999999996,-0.90158,-2.652036,1
2024-06-14 12:17:29.759,21.07,-260.61,23.1,0.258152,-1.00284,-2.579812,1
2024-06-14 12:17:29.764,30.03,-237.82500000000002,-17.815,0.12663599999999997,-0.665876,-2.289452,1
2024-06-14 12:17:29.768,19.950000000000003,-211.225,-33.495,0.06832,-0.211304,-1.97274,1
2024-06-14 12:17:29.773,4.445,-187.74,-28.805,0.119316,0.18226799999999999,-1.8390279999999999,1
2024-06-14 12:17:29.778,-3.6399999999999997,-155.4,-10.219999999999999,0.19178399999999998,0.502152,-1.8151159999999997,1
2024-06-14 12:17:29.783,2.835,-121.86999999999999,15.085,0.20129999999999998,0.405772,-1.66408,1
2024-06-14 12:17:29.788,8.47,-104.65,31.22,0.11516799999999999,0.213256,-1.420324,1
2024-06-14 12:17:29.792,11.83,-92.015,34.51,0.074176,-0.03904,-1.2761200000000001,1
2024-06-14 12:17:29.797,10.08,-76.72,24.395000000000003,0.011467999999999999,-0.156404,-1.1521679999999999,1
2024-06-14 12:17:29.802,8.12,-54.95,11.41,-0.00048800000000000004,-0.136396,-1.163636,1
2024-06-14 12:17:29.807,5.705,-41.93,6.859999999999999,0.048799999999999996,0.022936,-1.125328,2
2024-06-14 12:17:29.812,4.865,-33.144999999999996,11.06,0.110776,0.08954799999999999,-1.125816,2
2024-06-14 12:17:29.816,6.65,-26.880000000000003,13.58,0.130052,0.12151199999999998,-1.1126399999999999,2
2024-06-14 12:17:29.821,11.235,-22.365000000000002,11.48,0.09394,0.051239999999999994,-1.0931199999999999,2
2024-06-14 12:17:29.826,12.985,-21.49,7.14,0.047336,-0.0017079999999999999,-1.0848239999999998,2
2024-06-14 12:17:29.831,11.55,-19.6,4.34,0.025619999999999997,-0.034159999999999996,-1.0936080000000001,2
2024-06-14 12:17:29.836,8.504999999999999,-18.34,1.715,0.020252,-0.011956,-1.103612,2
2024-06-14 12:17:29.841,5.985,-18.9,-0.14,0.004880000000000001,0.017079999999999998,-1.0838480000000001,2
2024-06-14 12:17:29.845,5.32,-19.005,-0.77,-0.009028,0.040748000000000006,-1.062376,2
2024-06-14 12:17:29.850,5.5649999999999995,-19.845,-0.5249999999999999,-0.016348,0.034892,-1.0494439999999998,2
2024-06-14 12:17:29.855,5.6,-20.93,-0.875,-0.030255999999999998,0.02318,-1.047736,2
2024-06-14 12:17:29.860,5.355,-21.77,-2.45,-0.020252,0.037332000000000004,-1.047004,2
2024-06-14 12:17:29.865,5.04,-23.03,-3.15,-0.028547999999999997,0.017568,-1.050176,2
2024-06-14 12:17:29.869,4.13,-24.57,-3.2550000000000003,-0.025132,0.010979999999999998,-1.06506,2
2024-06-14 12:17:29.874,2.24,-25.935000000000002,-2.975,-0.035868000000000004,-0.0068319999999999995,-1.0772599999999999,2
2024-06-14 12:17:29.879,-0.665,-27.79,-3.465,-0.038064,-0.012199999999999999,-1.0799439999999998,2
2024-06-14 12:17:29.884,-3.08,-30.17,-4.165,-0.044163999999999995,-0.006343999999999999,-1.081896,2
2024-06-14 12:17:29.889,-5.285,-32.06,-4.41,-0.042943999999999996,0.005856,-1.0735999999999999,2
2024-06-14 12:17:29.893,-6.72,-33.635,-4.235,-0.033184,0.009516,-1.066524,2
2024-06-14 12:17:29.898,-7.945,-35.525000000000006,-4.515,-0.017812,0.018056000000000003,-1.056032,2
2024-06-14 12:17:29.903,-9.485,-37.45,-4.9,-0.012444,0.004880000000000001,-1.053348,2
2024-06-14 12:17:29.908,-11.094999999999999,-39.129999999999995,-4.970000000000001,-0.004636,0.0053679999999999995,-1.053348,2
2024-06-14 12:17:29.913,-12.355,-40.705,-4.585,-0.016836,0.012688,-1.05042,2
2024-06-14 12:17:29.918,-13.02,-42.35,-4.445,-0.023668,0.025376,-1.058716,2
2024-06-14 12:17:29.922,-13.02,-45.254999999999995,-4.725,-0.017568,0.023668,-1.053348,2
2024-06-14 12:17:29.927,-12.985,-46.9,-4.865,-0.0060999999999999995,0.030011999999999997,-1.044076,2
2024-06-14 12:17:29.932,-11.375,-47.25,-4.83,-0.007807999999999997,0.043432,-1.041636,2
2024-06-14 12:17:29.937,-11.585,-51.765,-4.725,-0.011956,0.04392,-1.047736,2
2024-06-14 12:17:29.942,-8.785,-51.379999999999995,-4.9,0.005368,0.056364,-1.039928,2
2024-06-14 12:17:29.946,-6.720000000000001,-52.36,-4.970000000000001,0.011467999999999999,0.059536,-1.030412,2
2024-06-14 12:17:29.951,-3.465,-54.040000000000006,-4.865,0.030011999999999997,0.061244,-1.006012,2
2024-06-14 12:17:29.956,-1.4699999999999998,-37.135000000000005,-3.6399999999999997,0.030255999999999998,0.058316,-1.0140639999999999,2
2024-06-14 12:17:29.961,3.1849999999999996,-51.415,-4.48,0.038064,0.056852,-1.006256,2
2024-06-14 12:17:29.966,-0.735,-49.14,-5.915,0.044896,0.053192,-1.001864,2
2024-06-14 12:17:29.970,7.455,-42.665,-4.69,0.045383999999999994,0.053680000000000005,-1.00894,2
2024-06-14 12:17:29.975,1.75,-45.989999999999995,-4.550000000000001,0.05002,0.054412,-1.009916,2
2024-06-14 12:17:29.980,7.699999999999999,-45.114999999999995,-4.795,0.044164,0.048556,-1.013088,2
2024-06-14 12:17:29.985,4.445,-45.849999999999994,-6.125,0.048799999999999996,0.035379999999999995,-1.01992,2
2024-06-14 12:17:29.990,7.734999999999999,-44.345,-5.6,0.05246,0.034159999999999996,-1.02846,2
2024-06-14 12:17:29.994,7.49,-42.56,-4.62,0.057583999999999996,0.030011999999999997,-1.021872,2
2024-06-14 12:17:29.999,7.105,-41.51,-4.305,0.061487999999999994,0.025619999999999997,-1.0243120000000001,2
2024-06-14 12:17:30.004,7.035,-41.58,-4.655,0.066856,0.026840000000000003,-1.022116,2
2024-06-14 12:17:30.007,6.51,-41.125,-5.04,0.07002799999999999,0.037087999999999996,-1.0287039999999998,2
2024-06-14 12:17:30.012,8.82,-41.510000000000005,-4.515,0.061976,0.041968000000000005,-1.03578,2
2024-06-14 12:17:30.017,7.875,-43.260000000000005,-4.585,0.06466,0.040015999999999996,-1.03944,2
2024-06-14 12:17:30.021,10.5,-43.05,-4.6899999999999995,0.08784,0.031232,-1.035048,2
2024-06-14 12:17:30.026,9.66,-43.225,-5.25,0.085644,0.041724,-1.040416,2
2024-06-14 12:17:30.031,6.720000000000001,-45.955,-5.775,0.08588799999999999,0.035136,-1.0448080000000002,2
2024-06-14 12:17:30.036,4.235,-44.55500000000001,-5.635,0.08418,0.023668,-1.0509080000000002,2
2024-06-14 12:17:30.041,2.625,-44.66,-5.705,0.090768,0.02074,-1.032608,2
2024-06-14 12:17:30.046,2.835,-42.28,-6.265,0.09881999999999999,0.035379999999999995,-1.033828,2
2024-06-14 12:17:30.050,3.15,-41.405,-6.65,0.104432,0.036599999999999994,-1.0250439999999998,2
2024-06-14 12:17:30.055,4.095,-39.935,-6.58,0.109556,0.043676000000000006,-1.0065,2
2024-06-14 12:17:30.060,4.165,-38.78,-6.965,0.109068,0.036356,-1.024556,2
2024-06-14 12:17:30.065,3.745,-38.85,-7.595,0.11175199999999999,0.036844,-1.0126,2
2024-06-14 12:17:30.070,5.25,-37.03,-7.49,0.11907199999999998,0.033916,-1.019188,2
2024-06-14 12:17:30.075,5.32,-36.855000000000004,-7.525,0.11516799999999999,0.04074799999999999,-1.03212,2
2024-06-14 12:17:30.079,3.43,-40.425,-8.26,0.106628,0.04148,-1.0511519999999999,2
2024-06-14 12:17:30.084,3.64,-40.459999999999994,-8.75,0.11882799999999999,0.037576,-1.0401719999999999,2
2024-06-14 12:17:30.089,4.27,-42.769999999999996,-9.31,0.11955999999999999,0.043188,-1.0931199999999999,2
2024-06-14 12:17:30.094,3.29,-45.78,-9.835,0.11712,0.018544,-1.124352,2
2024-06-14 12:17:30.099,0.06999999999999995,-52.22,-9.275,0.11956,0.033916,-1.155096,2
2024-06-14 12:17:30.103,-2.87,-58.765,-10.885,0.125904,0.026351999999999993,-1.1106880000000001,2
2024-06-14 12:17:30.108,-3.8150000000000004,-62.335,-10.605,0.12858799999999998,0.027084,-1.142896,2
2024-06-14 12:17:30.113,-5.88,-67.86500000000001,-11.129999999999999,0.134932,0.030987999999999998,-1.1709559999999999,2
2024-06-14 12:17:30.118,-7.0,-46.725,-11.620000000000001,0.14273999999999998,0.009028,-1.169492,2
2024-06-14 12:17:30.123,-8.785,-75.14500000000001,-10.36,0.151524,0.019032,-1.1685159999999999,2
2024-06-14 12:17:30.128,-10.850000000000001,-76.09,-10.57,0.153232,0.013908,-1.234884,2
2024-06-14 12:17:30.132,-11.934999999999999,-82.11,-10.955,0.150548,0.084424,-1.254404,2
2024-06-14 12:17:30.137,-15.120000000000001,-91.49000000000001,-11.655000000000001,0.139324,0.037332,-1.285636,2
2024-06-14 12:17:30.142,-14.84,-93.59,-11.620000000000001,0.16226000000000002,0.024643999999999996,-1.23586,2
2024-06-14 12:17:30.147,-18.130000000000003,-100.345,-12.145,0.151036,0.030744,-1.318332,2
2024-06-14 12:17:30.152,-20.405,-108.85,-12.32,0.14932800000000002,-0.0009760000000000001,-1.314184,2
2024-06-14 12:17:30.157,-24.115000000000002,-113.505,-11.76,0.168116,0.021228,-1.287344,2
2024-06-14 12:17:30.161,-25.585,-119.10499999999999,-11.83,0.14762,0.0009759999999999994,-1.361032,2
2024-06-14 12:17:30.166,-29.12,-128.1,-11.899999999999999,0.17665599999999998,0.020984,-1.339072,2
2024-06-14 12:17:30.171,-31.955000000000002,-135.485,-12.215,0.174216,0.023912,-1.3683519999999998,2
2024-06-14 12:17:30.176,-34.265,-144.55,-12.495000000000001,0.186172,0.048068,-1.4259359999999999,2
2024-06-14 12:17:30.181,-33.075,-154.35,-12.39,0.155916,0.022935999999999998,-1.392508,2
2024-06-14 12:17:30.186,-35.245000000000005,-163.485,-13.614999999999998,0.171532,0.082228,-1.4388679999999998,2
2024-06-14 12:17:30.190,-36.26,-176.12,-15.434999999999999,0.142984,0.056364,-1.4476520000000002,2
2024-06-14 12:17:30.195,-36.504999999999995,-187.70499999999998,-16.695,0.206912,0.090524,-1.471808,2
2024-06-14 12:17:30.200,-35.84,-198.94,-18.13,0.151524,0.06222,-1.4949879999999998,2
2024-06-14 12:17:30.205,-34.265,-212.905,-19.32,0.172508,0.081984,-1.50914,2
2024-06-14 12:17:30.210,-33.144999999999996,-225.68,-21.105,0.171532,0.110044,-1.519632,2
2024-06-14 12:17:30.215,-32.375,-239.85500000000002,-23.065,0.16592,0.08613199999999999,-1.5774599999999999,2
2024-06-14 12:17:30.219,-29.785,-258.475,-24.92,0.12858799999999998,0.072224,-1.464976,2
2024-06-14 12:17:30.224,-32.34,-273.31500000000005,-24.22,0.16177199999999997,0.191784,-1.78242,2
2024-06-14 12:17:30.229,-32.725,-292.95000000000005,-28.735,0.17446,0.179584,-1.806088,2
2024-06-14 12:17:30.234,-29.33,-311.99,-32.095,0.14762000000000003,0.157136,-1.855376,2
2024-06-14 12:17:30.239,-27.3,-336.77,-34.510000000000005,0.12419599999999999,0.172752,-1.91906,2
2024-06-14 12:17:30.243,-27.86,-361.69,-38.5,0.13298,0.2013,-1.97274,3
2024-06-14 12:17:30.248,-31.5,-390.845,-41.475,0.190564,0.142496,-2.200392,3
2024-06-14 12:17:30.253,-32.165,-416.99,-41.685,0.258884,0.155428,-2.425116,3
2024-06-14 12:17:30.258,-36.05,-441.90999999999997,-43.364999999999995,0.22692,0.204472,-2.445856,3
2024-06-14 12:17:30.263,-35.0,-467.70500000000004,-42.84,0.264496,0.15445199999999998,-2.831864,3
2024-06-14 12:17:30.268,-36.295,-485.69500000000005,-37.975,0.392596,0.186416,-3.220068,3
2024-06-14 12:17:30.272,-31.08,-500.64,-36.224999999999994,0.419192,0.020739999999999995,-3.263988,3
2024-06-14 12:17:30.277,-13.125,-514.115,-31.814999999999998,0.461404,-0.08637600000000001,-3.426004,3
2024-06-14 12:17:30.282,-13.16,-526.785,-25.305,0.389668,0.28011199999999997,-3.683668,3
2024-06-14 12:17:30.287,-27.79,-538.23,-28.28,0.220088,0.387472,-3.485052,3
2024-06-14 12:17:30.292,-30.835,-542.5,-33.18,0.22204,0.09882,-3.571672,3
2024-06-14 12:17:30.297,7.700000000000001,-549.71,-32.55,0.301096,-0.199836,-3.636576,3
2024-06-14 12:17:30.301,40.355000000000004,-565.3199999999999,-24.255000000000003,0.17446,0.11467999999999999,-3.597536,3
2024-06-14 12:17:30.306,52.255,-580.09,-18.48,0.046359999999999985,0.599264,-3.3359680000000003,3
2024-06-14 12:17:30.311,39.76,-585.165,-24.675,-0.236436,0.8010519999999999,-2.9150679999999998,3
2024-06-14 12:17:30.316,23.835,-572.95,-37.1,-0.361364,0.598044,-2.708156,3
2024-06-14 12:17:30.321,10.290000000000001,-556.605,-43.365,-1.0728680000000002,1.2453759999999998,-2.313364,3
2024-06-14 12:17:30.326,-5.985,-526.19,-42.91,-1.055056,0.8540000000000001,-1.801208,3
2024-06-14 12:17:30.330,-14.559999999999999,-499.765,-54.635000000000005,-1.542324,1.1324040000000002,-2.029836,3
2024-06-14 12:17:30.335,-34.72,-487.725,-73.78,-1.384212,1.382504,-2.486848,3
2024-06-14 12:17:30.340,-82.775,-469.525,-96.03999999999999,-1.536712,1.237812,-2.5071,3
2024-06-14 12:17:30.345,-132.51,-428.435,-122.85000000000001,-1.566968,1.0570079999999997,-2.345816,3
2024-06-14 12:17:30.350,-164.70999999999998,-391.23,-151.305,-0.959652,0.96014,-1.728496,3
2024-06-14 12:17:30.355,-154.665,-380.485,-157.64,-0.74664,0.686372,-1.111176,3
2024-06-14 12:17:30.359,-123.47999999999999,-266.525,-148.995,-1.8785560000000001,0.11175199999999999,-1.3693279999999999,3
2024-06-14 12:17:30.364,-94.15,-120.785,-121.76499999999999,-2.460252,-0.22472399999999998,-1.179008,3
2024-06-14 12:17:30.369,-32.34,-0.34999999999999964,-71.54,-1.9380920000000001,-0.36819599999999997,-1.0638400000000001,3
2024-06-14 12:17:30.374,29.12,90.37,-23.03,-1.658468,-0.42822,-1.3066200000000001,3
2024-06-14 12:17:30.379,71.53999999999999,168.42000000000002,16.03,-1.665544,-0.34330799999999995,-1.340048,4
2024-06-14 12:17:30.384,103.495,224.63,47.32,-1.453264,-0.09882,-1.234152,4
2024-06-14 12:17:30.388,127.435,260.96,65.52,-1.23464,0.027572,-1.225368,4
2024-06-14 12:17:30.393,135.27499999999998,287.735,72.38,-1.154852,0.154452,-1.15778,4
2024-06-14 12:17:30.398,131.495,311.53499999999997,73.115,-1.090436,0.29035999999999995,-1.032364,4
2024-06-14 12:17:30.403,121.24000000000001,332.71000000000004,69.475,-1.01016,0.38186,-0.951356,4
2024-06-14 12:17:30.408,106.33,351.33000000000004,60.725,-0.9213439999999999,0.443836,-0.950868,4
2024-06-14 12:17:30.412,87.08,367.04499999999996,47.985,-0.8483879999999999,0.48678,-0.9681919999999999,4
2024-06-14 12:17:30.417,64.75,379.19,33.425,-0.797148,0.46872400000000003,-0.955992,4
2024-06-14 12:17:30.422,43.504999999999995,387.975,18.865,-0.722972,0.42822000000000005,-0.932568,4
2024-06-14 12:17:30.427,25.235,393.92499999999995,4.55,-0.652212,0.380884,-0.942572,4
2024-06-14 12:17:30.432,9.8,397.46,-8.82,-0.590236,0.313784,-0.964044,4
2024-06-14 12:17:30.437,-1.435,399.595,-20.23,-0.529968,0.23302,-0.9791719999999999,4
2024-06-14 12:17:30.441,-7.63,401.38,-29.259999999999998,-0.47531199999999996,0.142008,-1.0055239999999999,4
2024-06-14 12:17:30.446,-8.995000000000001,403.97,-36.085,-0.435296,0.056119999999999996,-1.053592,4
2024-06-14 12:17:30.451,-6.405,408.905,-40.18,-0.396988,-0.038308,-1.0857999999999999,4
2024-06-14 12:17:30.456,1.715,415.31,-40.32,-0.391132,-0.12322,-1.1177639999999998,4
2024-06-14 12:17:30.461,14.280000000000001,423.045,-37.45,-0.38674,-0.170068,-1.170712,4
2024-06-14 12:17:30.466,28.455,431.54999999999995,-32.620000000000005,-0.379664,-0.181292,-1.228052,4
2024-06-14 12:17:30.470,41.894999999999996,439.91499999999996,-26.950000000000003,-0.36478,-0.145668,-1.28344,4
2024-06-14 12:17:30.475,53.06,447.72,-21.665,-0.347212,-0.081008,-1.334924,4
2024-06-14 12:17:30.480,60.585,454.615,-17.465,-0.33598799999999995,0.0024399999999999995,-1.394216,4
2024-06-14 12:17:30.485,62.93,459.865,-14.7,-0.30890399999999996,0.091988,-1.4535079999999998,4
2024-06-14 12:17:30.490,60.795,463.96000000000004,-13.335,-0.27815999999999996,0.176168,-1.5057239999999998,4
2024-06-14 12:17:30.495,55.545,466.725,-13.125,-0.255224,0.23424,-1.539884,4
2024-06-14 12:17:30.499,47.355000000000004,468.475,-13.614999999999998,-0.21594,0.28425999999999996,-1.555988,4
2024-06-14 12:17:30.504,37.519999999999996,469.14,-14.385000000000002,-0.17348399999999997,0.32866799999999996,-1.580876,4
2024-06-14 12:17:30.509,26.740000000000002,468.615,-15.645,-0.12126799999999999,0.37454,-1.636996,4
2024-06-14 12:17:30.514,15.575,465.53499999999997,-17.045,-0.06978399999999998,0.393084,-1.702876,4
2024-06-14 12:17:30.519,4.13,462.105,-18.655,-0.006344000000000001,0.437004,-1.705804,4
2024-06-14 12:17:30.524,-7.35,457.03,-20.16,0.020007999999999998,0.453596,-1.776564,4
2024-06-14 12:17:30.528,-18.130000000000003,453.25,-20.825,0.045627999999999995,0.46164799999999995,-1.83366,4
2024-06-14 12:17:30.533,-28.0,449.995,-20.299999999999997,0.069784,0.454816,-1.891976,4
2024-06-14 12:17:30.538,-35.945,447.755,-17.92,0.076128,0.455792,-1.9437039999999999,4
2024-06-14 12:17:30.543,-42.56,446.355,-14.14,0.089548,0.44286,-2.005436,4
2024-06-14 12:17:30.548,-48.614999999999995,445.20000000000005,-9.065,0.10614,0.450424,-2.0693639999999998,4
2024-06-14 12:17:30.552,-54.81,444.01,-3.255,0.106872,0.472628,-2.135976,4
2024-06-14 12:17:30.556,-61.88,442.29499999999996,2.5549999999999997,0.10394400000000001,0.512644,-2.211616,4
2024-06-14 12:17:30.561,-70.945,440.44,7.455,0.106384,0.568276,-2.316292,4
2024-06-14 12:17:30.566,-83.72,438.76,10.815,0.141764,0.6124399999999999,-2.448784,4
2024-06-14 12:17:30.571,-96.35499999999999,438.16499999999996,14.315000000000001,0.233508,0.6283,-2.5761519999999996,4
2024-06-14 12:17:30.576,-104.475,437.885,19.285,0.36014399999999996,0.6283000000000001,-2.697176,4
2024-06-14 12:17:30.581,-107.72999999999999,438.2,25.76,0.5043479999999999,0.64416,-2.8094159999999997,4
2024-06-14 12:17:30.585,-108.39500000000001,437.605,33.144999999999996,0.655384,0.67832,-2.8679759999999996,4
2024-06-14 12:17:30.590,-111.65,435.435,40.425,0.76616,0.68564,-2.8579719999999997,4
2024-06-14 12:17:30.595,-137.16500000000002,431.095,45.955,0.818864,0.6597759999999999,-2.949472,4
2024-06-14 12:17:30.600,-178.08,424.58500000000004,49.945,0.9728279999999999,0.543876,-3.0602479999999996,4
2024-06-14 12:17:30.605,-213.22,416.01,54.739999999999995,1.116056,0.37917599999999996,-3.1573599999999997,4
2024-06-14 12:17:30.610,-234.43,406.175,61.53,1.269288,0.15860000000000002,-3.239344,4
2024-06-14 12:17:30.614,-237.685,397.32,71.82,1.4500920000000002,-0.072956,-3.2922919999999998,4
2024-06-14 12:17:30.619,-222.74,388.115,85.155,1.640656,-0.262056,-3.283752,4
2024-06-14 12:17:30.624,-193.025,379.47,100.485,1.846104,-0.36282800000000004,-3.250324,4
2024-06-14 12:17:30.629,-158.2,370.615,131.88,1.7624119999999999,0.305732,-3.211528,4
2024-06-14 12:17:30.634,-124.35499999999999,358.225,125.72,2.562732,-0.8832800000000001,-3.094652,4
2024-06-14 12:17:30.639,-101.36,345.1,129.815,2.813808,-0.129564,-2.9150679999999998,4
2024-06-14 12:17:30.643,-90.58000000000001,326.40999999999997,127.36500000000001,3.2046959999999998,0.040504,-2.7267,4
2024-06-14 12:17:30.648,-88.55,302.155,115.08,3.5797239999999997,0.208864,-2.502708,4
2024-06-14 12:17:30.653,-95.41,273.45500000000004,92.82,3.9305959999999995,0.31890799999999997,-2.345084,4
2024-06-14 12:17:30.658,-109.27000000000001,238.035,63.14,4.228275999999999,0.309148,-2.1769679999999996,4
2024-06-14 12:17:30.663,-123.41,204.12,29.925,4.515708,0.152256,-2.22406,4
2024-06-14 12:17:30.668,-130.72500000000002,165.48000000000002,-3.1149999999999998,4.806068,-0.23009199999999996,-2.036424,4
2024-06-14 12:17:30.672,-120.61,128.135,-30.659999999999997,4.934412,-0.662704,-1.906616,4
2024-06-14 12:17:30.677,-101.43,93.31,-48.825,5.08618,-1.085068,-1.840248,4
2024-06-14 12:17:30.682,-72.80000000000001,57.714999999999996,-56.14,5.14352,-1.4232519999999997,-1.826828,4
2024-06-14 12:17:30.687,-35.980000000000004,21.805,-55.125,5.083984,-1.653588,-1.769244,4
2024-06-14 12:17:30.692,7.07,-12.88,-48.3,4.9114759999999995,-1.681648,-1.698484,4
2024-06-14 12:17:30.697,51.17,-45.56999999999999,-39.34,4.666499999999999,-1.52622,-1.698484,4
2024-06-14 12:17:30.701,88.655,-75.845,-32.095,4.355156,-1.22732,-1.7272759999999998,4
2024-06-14 12:17:30.706,116.2,-102.86500000000001,-28.91,4.01868,-0.869128,-1.75192,4
2024-06-14 12:17:30.711,132.965,-126.525,-30.17,3.666344,-0.533384,-1.77388,4
2024-06-14 12:17:30.716,139.615,-162.64499999999998,-52.709999999999994,1.833904,2.6610639999999997,-5.12156,4
2024-06-14 12:17:30.721,64.75,-260.855,-155.4,-0.28669999999999995,-1.06994,-2.558584,4
