time,gyroscope_x,gyroscope_y,gyroscope_z,accelerometer_x,accelerometer_y,accelerometer_z,phase
2024-06-14 12:24:26.364,173.32,-325.22,-29.05,2.15696,0.102968,-10.604728,1
2024-06-14 12:24:26.369,234.71,116.13,-54.25,-3.422832,0.763232,4.538888,1
2024-06-14 12:24:26.374,340.76,-212.45,-43.61,-1.743624,-0.075152,-0.437736,1
2024-06-14 12:24:26.379,371.49,-263.55,-45.15,-1.949072,0.006344,-0.9803919999999999,1
2024-06-14 12:24:26.384,417.48,-312.2,-28.7,-0.302072,0.040992,-1.373232,1
2024-06-14 12:24:26.389,377.93,-355.74,-8.89,0.22350399999999998,-0.000488,-2.5185679999999997,1
2024-06-14 12:24:26.393,276.57,-368.62,21.21,0.5294800000000001,-0.34111199999999997,-2.6561839999999997,1
2024-06-14 12:24:26.398,148.26,-366.8,44.31,0.5231359999999999,-0.657824,-2.598112,1
2024-06-14 12:24:26.403,68.18,-350.7,59.71,0.41333600000000004,-0.559736,-2.766472,1
2024-06-14 12:24:26.408,13.93,-313.53,60.83,0.39576799999999995,-0.7622559999999999,-2.70108,2
2024-06-14 12:24:26.413,7.35,-273.07,33.32,0.254248,-0.9189039999999999,-2.817224,2
2024-06-14 12:24:26.418,11.55,-242.34,-5.04,0.154696,-0.599264,-2.217472,2
2024-06-14 12:24:26.422,8.96,-223.79,-27.09,0.10248,-0.22350399999999998,-2.1496399999999998,2
2024-06-14 12:24:26.427,-3.22,-201.81,-30.17,0.092232,0.056119999999999996,-1.7382559999999998,2
2024-06-14 12:24:26.432,-10.57,-177.73,-17.29,0.121024,0.315248,-1.71532,2
2024-06-14 12:24:26.437,-13.86,-154.35,4.83,0.105896,0.426024,-1.5454959999999998,2
2024-06-14 12:24:26.442,-4.13,-124.04,24.92,0.08003199999999999,0.25668799999999997,-1.464488,2
2024-06-14 12:24:26.447,2.8,-105.63,31.43,0.066368,0.06978399999999998,-1.304912,2
2024-06-14 12:24:26.451,6.72,-91.91,28.77,0.02684,-0.090768,-1.205848,2
2024-06-14 12:24:26.456,7.49,-77.28,20.72,0.050263999999999996,-0.14932800000000002,-1.151192,2
2024-06-14 12:24:26.461,5.95,-57.26,11.76,0.046848,-0.072712,-1.199504,2
2024-06-14 12:24:26.466,7.91,-44.87,9.66,0.105896,0.08491199999999999,-1.153632,2
2024-06-14 12:24:26.471,10.78,-33.04,12.46,0.162992,0.12932,-1.157048,2
2024-06-14 12:24:26.476,15.61,-27.16,14.7,0.14884,0.116144,-1.1145919999999998,2
2024-06-14 12:24:26.481,19.95,-24.85,12.6,0.118096,0.025864,-1.101416,2
2024-06-14 12:24:26.485,20.72,-21.7,7.0,0.09028,-0.012199999999999999,-1.0950719999999998,2
2024-06-14 12:24:26.490,17.57,-17.92,2.31,0.042944,-0.037576,-1.101904,2
2024-06-14 12:24:26.495,13.58,-17.36,-0.07,0.025376,-0.016104,-1.111176,2
2024-06-14 12:24:26.500,10.29,-16.8,-0.21,0.01464,0.020984,-1.079456,2
2024-06-14 12:24:26.505,9.1,-16.87,-0.28,-0.0068319999999999995,0.030256,-1.064816,2
2024-06-14 12:24:26.510,8.75,-17.08,-0.56,-0.023912,0.017079999999999998,-1.0535919999999999,2
2024-06-14 12:24:26.514,8.61,-18.34,-1.26,-0.033671999999999994,0.013176,-1.0560319999999999,2
2024-06-14 12:24:26.519,7.98,-20.3,-2.45,-0.017567999999999997,0.02928,-1.057008,2
2024-06-14 12:24:26.524,7.21,-22.68,-3.22,-0.037088,-0.001952,-1.074576,2
2024-06-14 12:24:26.529,5.32,-24.92,-2.94,-0.020007999999999998,0.018544,-1.064328,2
2024-06-14 12:24:26.534,4.2,-27.37,-3.15,-0.089792,-0.035135999999999994,-1.091168,2
2024-06-14 12:24:26.539,1.68,-28.77,-3.92,-0.036112000000000005,-0.005368,-1.080432,2
2024-06-14 12:24:26.543,-0.7,-30.17,-3.5,-0.000976,0.010736,-1.0555439999999998,2
2024-06-14 12:24:26.548,-2.45,-31.85,-3.22,0.005856,-0.010248,-1.050176,2
2024-06-14 12:24:26.553,-3.92,-33.18,-3.64,-0.062464,-0.02196,-1.0735999999999999,2
2024-06-14 12:24:26.558,-5.04,-34.79,-3.85,-0.074176,-0.012199999999999999,-1.081408,2
2024-06-14 12:24:26.563,-5.81,-37.31,-3.85,-0.076616,-0.009272,-1.084824,2
2024-06-14 12:24:26.568,-6.44,-39.76,-3.85,-0.06734399999999999,-0.005856,-1.0833599999999999,2
2024-06-14 12:24:26.573,-6.86,-41.79,-3.57,-0.031232,-0.003904,-1.06628,2
2024-06-14 12:24:26.577,-7.21,-42.63,-3.71,0.010736,0.0068319999999999995,-1.0574959999999998,2
2024-06-14 12:24:26.582,-7.56,-45.43,-3.78,0.008296,0.022936,-1.042856,2
2024-06-14 12:24:26.587,-7.91,-47.74,-3.64,0.004391999999999999,0.019032,-1.050176,2
2024-06-14 12:24:26.592,-7.63,-48.65,-3.71,0.005368,0.021472,-1.0492000000000001,2
2024-06-14 12:24:26.597,-7.14,-180.25,-3.36,-0.000976,0.02196,-1.0477359999999998,2
2024-06-14 12:24:26.602,-2.03,-18.9,-3.99,0.001464,0.025864,-1.066768,2
2024-06-14 12:24:26.606,-11.55,-38.36,-0.35,0.004391999999999999,0.03172,-1.0482239999999998,2
2024-06-14 12:24:26.611,-2.52,-42.0,-0.49,0.02196,0.037088,-1.040904,2
2024-06-14 12:24:26.616,-5.39,-45.36,-5.53,0.025864,0.04636,-1.031632,2
2024-06-14 12:24:26.621,-1.82,-47.25,-6.3,0.035624,0.040015999999999996,-1.020408,2
2024-06-14 12:24:26.626,-0.56,-50.12,-2.94,0.04392,0.045384,-1.0126,2
2024-06-14 12:24:26.631,-0.84,-52.57,-1.96,0.048799999999999996,0.041968,-1.012112,2
2024-06-14 12:24:26.635,3.36,-50.96,-5.04,0.053192,0.040992,-1.013088,2
2024-06-14 12:24:26.640,2.59,-50.12,-7.07,0.054168,0.033184,-1.015528,2
2024-06-14 12:24:26.645,5.04,-49.42,-5.11,0.055144,0.028304,-1.021872,2
2024-06-14 12:24:26.650,3.43,-49.98,-3.64,0.05856,0.027327999999999998,-1.025288,2
2024-06-14 12:24:26.655,6.02,-49.56,-4.76,0.06490399999999999,0.027816,-1.029192,2
2024-06-14 12:24:26.660,5.18,-48.37,-6.72,0.071248,0.028791999999999998,-1.0248,2
2024-06-14 12:24:26.665,5.6,-50.33,-6.16,0.076616,0.024887999999999997,-1.016504,2
2024-06-14 12:24:26.669,6.44,-47.95,-4.62,0.077104,0.020496,-1.022848,2
2024-06-14 12:24:26.674,6.37,-52.99,-4.55,0.08686400000000001,0.025864,-1.0267519999999999,2
2024-06-14 12:24:26.679,7.14,-49.0,-5.88,0.087352,0.032208,-1.0267519999999999,2
2024-06-14 12:24:26.684,12.25,-44.59,-6.02,0.091256,0.032208,-1.0189439999999998,2
2024-06-14 12:24:26.689,11.76,-44.38,-5.32,0.096136,0.031232,-1.0189439999999998,2
2024-06-14 12:24:26.694,13.23,-41.51,-4.9,0.102968,0.028791999999999998,-1.00772,2
2024-06-14 12:24:26.698,12.81,-42.77,-5.6,0.10931199999999999,0.017567999999999997,-1.0126,2
2024-06-14 12:24:26.703,12.46,-35.84,-6.72,0.105408,0.018056000000000003,-0.9969839999999999,2
2024-06-14 12:24:26.708,9.66,-38.71,-6.58,0.110288,0.009272,-0.997472,2
2024-06-14 12:24:26.713,6.16,-38.43,-6.37,0.11516799999999999,0.00976,-1.0047920000000001,2
2024-06-14 12:24:26.718,5.46,-36.47,-6.79,0.11858400000000001,0.018056000000000003,-1.01504,2
2024-06-14 12:24:26.723,5.04,-34.79,-7.56,0.118096,0.019032,-1.0140639999999999,2
2024-06-14 12:24:26.727,4.9,-34.3,-7.91,0.112728,0.032208,-1.0457839999999998,2
2024-06-14 12:24:26.732,4.97,-36.19,-7.91,0.112728,0.02928,-1.050664,2
2024-06-14 12:24:26.737,6.02,-37.1,-8.19,0.116144,0.034159999999999996,-1.082384,2
2024-06-14 12:24:26.742,6.02,-40.67,-9.1,0.110288,0.036112000000000005,-1.106296,2
2024-06-14 12:24:26.747,4.9,-45.22,-9.94,0.117608,0.033671999999999994,-1.0970239999999998,2
2024-06-14 12:24:26.752,4.9,-49.49,-10.15,0.116144,0.025376,-1.1468,2
2024-06-14 12:24:26.756,3.85,-54.53,-9.87,0.122488,0.006344,-1.11996,2
2024-06-14 12:24:26.761,2.59,-58.38,-10.36,0.13566399999999998,0.008783999999999998,-1.147288,2
2024-06-14 12:24:26.766,-2.73,-64.47,-10.92,0.135176,0.00976,-1.1956,2
2024-06-14 12:24:26.771,-8.05,-72.59,-10.64,0.14444800000000002,0.068808,-1.2190239999999999,2
2024-06-14 12:24:26.776,-7.14,-81.48,-11.48,0.154208,-0.015128,-1.1736399999999998,2
2024-06-14 12:24:26.781,-9.38,-77.07,-10.71,0.152744,0.02928,-1.258552,2
2024-06-14 12:24:26.786,-9.73,-81.55,-10.85,0.147864,0.018544,-1.286856,2
2024-06-14 12:24:26.790,-13.09,-89.18,-11.06,0.158112,0.012688,-1.2736800000000001,2
2024-06-14 12:24:26.795,-15.54,-93.24,-11.41,0.16982399999999997,0.005856,-1.255136,2
2024-06-14 12:24:26.800,-18.62,-96.25,-10.71,0.17079999999999998,-0.013176,-1.257088,2
2024-06-14 12:24:26.805,-21.49,-101.99,-9.73,0.157624,-0.007808,-1.335656,2
2024-06-14 12:24:26.810,-25.48,-112.63,-9.59,0.157624,-0.044408,-1.304912,2
2024-06-14 12:24:26.815,-29.96,-116.97,-9.31,0.167872,-0.015128,-1.3371199999999999,2
2024-06-14 12:24:26.819,-35.35,-124.74,-9.17,0.17079999999999998,-0.010736,-1.403976,2
2024-06-14 12:24:26.824,-37.31,-133.49,-8.61,0.16835999999999998,0.006344,-1.450336,2
2024-06-14 12:24:26.829,-37.17,-145.6,-8.47,0.16250399999999998,0.020007999999999998,-1.4752239999999999,2
2024-06-14 12:24:26.834,-37.24,-157.5,-9.52,0.162016,0.071248,-1.501088,2
2024-06-14 12:24:26.839,-37.17,-167.37,-11.2,0.167872,0.059536,-1.532808,2
2024-06-14 12:24:26.844,-38.01,-181.58,-12.53,0.155184,0.06539199999999999,-1.53232,2
2024-06-14 12:24:26.848,-34.37,-196.63,-13.58,0.150792,0.04636,-1.6103999999999998,2
2024-06-14 12:24:26.853,-31.99,-213.64,-14.84,0.150304,0.071248,-1.636752,2
2024-06-14 12:24:26.858,-30.8,-232.26,-16.52,0.15372,0.054168,-1.52256,3
2024-06-14 12:24:26.863,-28.84,-246.96,-17.57,0.142984,0.059048,-1.674816,3
2024-06-14 12:24:26.868,-29.05,-264.88,-18.76,0.13078399999999998,0.084424,-1.668472,3
2024-06-14 12:24:26.873,-31.15,-287.35,-22.12,0.14396,0.16738399999999998,-1.8373199999999998,3
2024-06-14 12:24:26.878,-26.11,-307.44,-24.78,0.13176,0.09955199999999999,-1.977376,3
2024-06-14 12:24:26.882,-18.48,-332.15,-26.88,0.096136,0.246928,-2.0681439999999998,3
2024-06-14 12:24:26.887,-15.96,-352.66,-31.36,0.07076,0.305,-2.046672,3
2024-06-14 12:24:26.892,-13.16,-381.99,-37.87,0.093696,0.30109600000000003,-2.085712,3
2024-06-14 12:24:26.897,-13.65,-412.51,-44.59,0.160552,0.33183999999999997,-2.3150720000000002,3
2024-06-14 12:24:26.902,-10.71,-445.55,-50.61,0.17568,0.221552,-2.628368,3
2024-06-14 12:24:26.907,-3.5,-479.15,-52.92,0.108824,0.29377600000000004,-2.794288,3
2024-06-14 12:24:26.911,18.76,-506.24,-54.6,0.17519200000000001,0.283528,-2.9504479999999997,3
2024-06-14 12:24:26.916,27.93,-527.8,-53.76,0.340136,0.29621600000000003,-3.2959519999999998,3
2024-06-14 12:24:26.921,28.84,-531.58,-51.66,0.540216,0.356728,-3.7863919999999998,3
2024-06-14 12:24:26.926,55.79,-545.16,-49.7,0.435784,0.294752,-3.5599600000000002,3
2024-06-14 12:24:26.931,21.91,-550.34,-50.89,0.27913599999999994,0.482144,-3.7156320000000003,3
2024-06-14 12:24:26.936,33.32,-565.6,-54.11,0.10248,0.330864,-3.686352,3
2024-06-14 12:24:26.940,51.59,-562.1,-55.51,0.40064799999999995,0.12834399999999999,-3.777608,3
2024-06-14 12:24:26.945,84.42,-580.51,-51.52,0.044896,0.09759999999999999,-3.62096,3
2024-06-14 12:24:26.950,95.62,-593.88,-44.8,-0.013176,0.525576,-3.502376,3
2024-06-14 12:24:26.955,79.66,-601.16,-45.43,-0.27913599999999994,0.8505839999999999,-3.310592,3
2024-06-14 12:24:26.960,64.89,-594.37,-50.68,-0.21032800000000001,0.872544,-3.1256399999999998,3
2024-06-14 12:24:26.965,48.58,-587.65,-55.23,-0.8042239999999999,0.774944,-2.633736,3
2024-06-14 12:24:26.970,33.25,-562.03,-73.15,-1.284416,1.608936,-1.891,3
2024-06-14 12:24:26.974,27.93,-536.76,-74.34,-1.765584,1.347368,-1.970056,3
2024-06-14 12:24:26.979,-7.14,-510.3,-95.2,-1.5928319999999998,1.49328,-2.306288,3
2024-06-14 12:24:26.984,-65.31,-487.48,-114.8,-1.48108,1.433744,-2.5781039999999997,3
2024-06-14 12:24:26.989,-130.41,-454.86,-134.33,-1.80072,1.277584,-2.438536,3
2024-06-14 12:24:26.994,-184.31,-394.52,-158.83,-1.4752239999999999,0.9964959999999999,-1.9061279999999998,3
2024-06-14 12:24:26.999,-189.7,-372.68,-161.56,-0.8701039999999999,0.788608,-0.896456,3
2024-06-14 12:24:27.003,-161.0,-283.15,-146.23,-1.731424,0.403576,-1.2131679999999998,3
2024-06-14 12:24:27.008,-130.55,-130.06,-113.61,-2.6044560000000003,-0.36112,-1.394216,3
2024-06-14 12:24:27.013,-74.97,-0.77,-58.17,-2.203808,-0.57584,-1.0365119999999999,3
2024-06-14 12:24:27.018,-3.71,94.15,0.07,-1.745576,-0.5377759999999999,-1.230248,3
2024-06-14 12:24:27.023,53.13,167.72,46.06,-1.692384,-0.5241119999999999,-1.436184,3
2024-06-14 12:24:27.028,91.56,218.68,80.15,-1.550864,-0.260592,-1.365912,3
2024-06-14 12:24:27.032,121.1,250.32,101.71,-1.369816,-0.0366,-1.2688,4
2024-06-14 12:24:27.037,134.19,271.67,110.88,-1.281,0.127856,-1.196088,4
2024-06-14 12:24:27.042,128.17,292.18,110.88,-1.237568,0.27864799999999995,-1.0857999999999999,4
2024-06-14 12:24:27.047,110.6,312.9,105.56,-1.1741279999999998,0.40552799999999994,-0.979416,4
2024-06-14 12:24:27.052,88.41,332.15,96.11,-1.094584,0.46945600000000004,-0.959896,4
2024-06-14 12:24:27.057,63.49,349.86,82.67,-1.025288,0.489464,-0.986736,4
2024-06-14 12:24:27.065,37.59,365.26,66.36,-0.9706319999999999,0.472872,-0.9862479999999999,4
2024-06-14 12:24:27.069,13.37,378.14,49.7,-0.888648,0.416264,-0.9813679999999999,4
2024-06-14 12:24:27.074,-6.79,388.01,33.74,-0.8066639999999999,0.33964799999999995,-0.988688,4
2024-06-14 12:24:27.079,-22.05,396.2,19.39,-0.74664,0.247416,-1.0047920000000001,4
2024-06-14 12:24:27.084,-31.64,403.97,7.21,-0.68564,0.152744,-1.016016,4
2024-06-14 12:24:27.089,-36.33,411.88,-2.38,-0.6353759999999999,0.05368,-1.060424,4
2024-06-14 12:24:27.093,-37.73,420.84,-9.17,-0.58804,-0.02684,-1.1180080000000001,4
2024-06-14 12:24:27.098,-35.49,430.5,-13.09,-0.55876,-0.108336,-1.182912,4
2024-06-14 12:24:27.103,-31.01,441.0,-14.35,-0.5148400000000001,-0.177632,-1.240008,4
2024-06-14 12:24:27.108,-23.1,451.64,-12.32,-0.488,-0.23326399999999997,-1.2780719999999999,4
2024-06-14 12:24:27.113,-13.44,460.95,-7.98,-0.467016,-0.245464,-1.341024,4
2024-06-14 12:24:27.118,-4.2,469.49,-2.45,-0.446032,-0.22594399999999998,-1.404464,4
2024-06-14 12:24:27.122,3.92,476.0,3.43,-0.40552799999999994,-0.184464,-1.472296,4
2024-06-14 12:24:27.127,11.06,480.76,8.75,-0.366,-0.12736799999999998,-1.521096,4
2024-06-14 12:24:27.132,16.52,483.77,12.74,-0.330864,-0.048799999999999996,-1.582096,4
2024-06-14 12:24:27.137,18.97,485.24,15.19,-0.294752,0.021472,-1.629432,4
2024-06-14 12:24:27.142,18.34,486.15,16.31,-0.252784,0.091256,-1.647,4
2024-06-14 12:24:27.147,14.7,486.15,16.1,-0.219112,0.161528,-1.6621279999999998,4
2024-06-14 12:24:27.151,9.24,485.45,14.07,-0.174216,0.22935999999999998,-1.7089759999999998,4
2024-06-14 12:24:27.156,2.17,482.86,10.85,-0.1098,0.2928,-1.76412,4
2024-06-14 12:24:27.161,-5.6,478.73,6.72,-0.057095999999999994,0.33671999999999996,-1.8070639999999998,4
2024-06-14 12:24:27.166,-13.44,474.04,1.82,-0.023424,0.365024,-1.850008,4
2024-06-14 12:24:27.171,-20.51,469.49,-2.94,0.00732,0.382104,-1.9032,4
2024-06-14 12:24:27.176,-26.88,465.22,-6.65,0.030256,0.386496,-1.9534639999999999,4
2024-06-14 12:24:27.180,-31.43,461.79,-8.82,0.06978399999999998,0.36844,-1.994456,4
2024-06-14 12:24:27.185,-34.16,459.06,-9.03,0.07173600000000001,0.384544,-2.048136,4
2024-06-14 12:24:27.190,-36.96,457.31,-8.19,0.08539999999999999,0.394792,-2.10816,4
2024-06-14 12:24:27.195,-39.83,455.63,-5.74,0.091256,0.420168,-2.193072,4
2024-06-14 12:24:27.200,-44.52,453.74,-1.89,0.09028,0.443592,-2.2721280000000004,4
2024-06-14 12:24:27.205,-50.54,451.92,3.29,0.07808,0.472872,-2.35216,4
2024-06-14 12:24:27.209,-58.38,449.75,8.47,0.073688,0.52216,-2.455616,4
2024-06-14 12:24:27.214,-68.6,447.3,13.3,0.07564,0.574864,-2.593232,4
2024-06-14 12:24:27.219,-79.38,444.57,18.06,0.119072,0.613416,-2.733288,4
2024-06-14 12:24:27.224,-88.2,441.21,22.54,0.206912,0.650992,-2.867976,4
2024-06-14 12:24:27.229,-95.69,437.71,26.39,0.343064,0.705648,-2.996808,4
2024-06-14 12:24:27.233,-101.92,434.7,29.33,0.5289919999999999,0.764208,-3.107096,4
2024-06-14 12:24:27.238,-105.98,432.04,31.99,0.7432239999999999,0.83204,-3.1924960000000002,4
2024-06-14 12:24:27.243,-108.43,428.68,34.3,0.941352,0.911584,-3.2622799999999996,4
2024-06-14 12:24:27.248,-112.91,423.78,36.12,1.14924,0.977952,-3.2086,4
2024-06-14 12:24:27.253,-127.82,417.55,36.82,1.1721759999999999,0.85644,-3.1480879999999996,4
2024-06-14 12:24:27.258,-188.86,406.21,36.19,1.288808,0.760792,-3.3154719999999998,4
2024-06-14 12:24:27.262,-240.87,391.16,37.17,2.255048,0.482632,-3.7732159999999997,4
2024-06-14 12:24:27.267,-250.39,319.13,62.86,2.016416,-0.050263999999999996,-2.491728,4
2024-06-14 12:24:27.272,-263.97,368.62,49.28,1.9368720000000001,-0.158112,-2.666432,4
2024-06-14 12:24:27.277,-245.42,360.64,57.82,2.8006320000000002,-0.121024,-3.5750879999999996,4
2024-06-14 12:24:27.282,-227.43,338.1,71.05,2.974848,-0.45920799999999995,-3.599488,4
2024-06-14 12:24:27.287,-201.04,318.99,86.52,3.262768,-0.718336,-2.828936,4
2024-06-14 12:24:27.291,-161.35,299.67,101.64,3.633648,-0.7564,-2.415112,4
2024-06-14 12:24:27.296,-126.28,271.74,112.7,4.032344,-0.665144,-2.38632,4
2024-06-14 12:24:27.301,-102.06,235.55,115.29,4.383704,-0.488976,-2.299944,4
2024-06-14 12:24:27.306,-86.66,195.3,106.26,4.664791999999999,-0.25229599999999996,-2.087176,4
2024-06-14 12:24:27.311,-83.51,157.15,86.73,4.9590559999999995,-0.098576,-1.914424,4
2024-06-14 12:24:27.316,-88.13,121.73,59.36,5.216232,-0.055632,-1.88124,4
2024-06-14 12:24:27.320,-93.52,87.71,28.56,5.368,-0.17860800000000002,-1.848544,4
2024-06-14 12:24:27.325,-91.14,54.04,0.21,5.378247999999999,-0.47677600000000003,-1.7758319999999999,4
2024-06-14 12:24:27.330,-75.74,18.97,-19.53,5.279672,-0.828624,-1.7289839999999999,4
2024-06-14 12:24:27.335,-45.85,-18.62,-28.35,5.0781279999999995,-1.140944,-1.71044,4
2024-06-14 12:24:27.340,-6.65,-57.19,-27.37,4.785816,-1.328336,-1.6972639999999999,4
2024-06-14 12:24:27.345,34.3,-94.08,-19.53,4.4500720000000005,-1.3229680000000001,-1.7187359999999998,4
2024-06-14 12:24:27.349,71.75,-126.77,-8.26,4.021608,-1.069696,-1.763144,4
2024-06-14 12:24:27.354,142.17,-312.2,-31.71,5.442664,0.91988,-9.34276,0
