time,gyroscope_x,gyroscope_y,gyroscope_z,accelerometer_x,accelerometer_y,accelerometer_z,phase
2024-06-14 12:24:23.826,-114.1,-434.14,53.97,7.89584,0.189832,-0.078568,1
2024-06-14 12:24:23.831,-231.28,-227.57,104.72,0.242536,-0.46067199999999997,1.05164,1
2024-06-14 12:24:23.836,-329.91,-373.94,125.09,1.312232,0.27913599999999994,-2.122312,1
2024-06-14 12:24:23.841,-374.15,-397.32,128.52,-0.8808400000000001,0.17324,-2.8533359999999997,1
2024-06-14 12:24:23.845,-345.66,-380.45,112.14,-0.7564,-0.26888799999999996,-2.743536,1
2024-06-14 12:24:23.850,-312.13,-380.59,76.93,-0.32012799999999997,-0.529968,-2.498072,1
2024-06-14 12:24:23.855,-221.2,-355.6,21.14,0.38795999999999997,-0.50264,-2.695224,1
2024-06-14 12:24:23.860,-152.74,-329.35,-33.6,0.668072,-0.184952,-2.6781439999999996,1
2024-06-14 12:24:23.865,-105.49,-314.3,-69.58,0.604632,0.110288,-2.5097840000000002,1
2024-06-14 12:24:23.869,-59.08,-299.81,-91.49,0.247416,0.12736799999999998,-2.48148,1
2024-06-14 12:24:23.874,-40.11,-264.11,-95.41,0.08247199999999999,0.5436319999999999,-2.345328,1
2024-06-14 12:24:23.879,-29.82,-216.3,-72.73,0.106384,0.730536,-2.272616,1
2024-06-14 12:24:23.884,-24.22,-185.5,-46.06,0.120048,0.486536,-1.7973039999999998,1
2024-06-14 12:24:23.889,-4.83,-174.23,-32.27,0.162016,0.43676,-1.677744,1
2024-06-14 12:24:23.893,15.89,-161.0,-21.63,0.061,0.27815999999999996,-1.491816,1
2024-06-14 12:24:23.898,21.98,-138.18,-16.59,-0.007808,0.040992,-1.336632,1
2024-06-14 12:24:23.903,21.21,-125.65,-20.93,-0.077592,-0.088328,-1.338584,1
2024-06-14 12:24:23.908,12.18,-95.9,-29.75,0.011712,-0.0366,-1.3683519999999998,1
2024-06-14 12:24:23.913,5.04,-73.15,-33.74,0.02684,-0.022448,-1.2917359999999998,1
2024-06-14 12:24:23.918,0.28,-54.04,-33.46,0.14396,0.06490399999999999,-1.248792,1
2024-06-14 12:24:23.922,-5.04,-44.87,-29.05,0.152744,0.05124,-1.173152,1
2024-06-14 12:24:23.927,-6.86,-35.14,-21.7,0.08637600000000001,0.1464,-1.264408,1
2024-06-14 12:24:23.932,-9.24,-29.96,-12.32,0.093208,0.032695999999999996,-1.202432,1
2024-06-14 12:24:23.937,-10.22,-25.83,-7.14,0.094184,0.09028,-1.20048,1
2024-06-14 12:24:23.942,-5.32,-23.31,-5.25,0.196176,0.00976,-1.179984,1
2024-06-14 12:24:23.946,36.96,-105.56,-3.78,0.05368,0.037576,-1.20048,2
2024-06-14 12:24:23.951,14.56,0.7,-2.52,0.033671999999999994,0.052704,-1.177056,2
2024-06-14 12:24:23.956,0.91,-5.88,-0.14,-0.00976,0.05368,-1.135576,2
2024-06-14 12:24:23.961,11.27,-8.4,-1.26,-0.035624,0.00976,-1.1048319999999998,2
2024-06-14 12:24:23.966,12.67,-9.59,-1.68,-0.009272,0.034159999999999996,-1.099952,2
2024-06-14 12:24:23.971,5.53,-8.26,-2.52,-0.003904,0.024887999999999997,-1.121912,2
2024-06-14 12:24:23.975,13.86,-11.2,-1.75,-0.020007999999999998,0.026352,-1.128744,2
2024-06-14 12:24:23.980,10.01,-14.28,0.07,-0.038064,0.031232,-1.128744,2
2024-06-14 12:24:23.985,10.99,-18.55,0.77,-0.039528,0.038064,-1.121424,2
2024-06-14 12:24:23.990,14.63,-23.66,0.98,-0.038552,0.048312,-1.125816,2
2024-06-14 12:24:23.995,12.53,-26.88,-0.07,-0.06588,0.043432000000000005,-1.1102,2
2024-06-14 12:24:23.999,15.75,-30.1,-0.28,-0.049775999999999994,0.035135999999999994,-1.111664,2
2024-06-14 12:24:24.004,15.26,-33.32,0.42,-0.027327999999999998,0.030256,-1.098,2
2024-06-14 12:24:24.009,15.68,-35.21,0.56,-0.040504,-0.033184,-1.101904,2
2024-06-14 12:24:24.014,16.03,-38.08,1.19,-0.004391999999999999,0.031232,-1.090192,2
2024-06-14 12:24:24.019,15.47,-40.04,-0.07,-0.045872,-0.02684,-1.101416,2
2024-06-14 12:24:24.023,15.4,-41.16,-0.63,0.020496,0.010736,-1.084336,2
2024-06-14 12:24:24.028,15.12,-43.26,-0.84,0.096624,-0.024887999999999997,-1.06384,2
2024-06-14 12:24:24.033,37.73,-181.65,2.45,0.106872,-0.057095999999999994,-1.0384639999999998,2
2024-06-14 12:24:24.038,11.97,-50.33,-0.84,0.061488,-0.076616,-1.041392,2
2024-06-14 12:24:24.043,16.52,-47.53,-0.77,-0.098576,-0.018544,-1.128744,2
2024-06-14 12:24:24.048,10.99,-59.99,-0.14,-0.083936,0.11516799999999999,-1.137528,2
2024-06-14 12:24:24.052,14.56,-61.88,0.07,0.08539999999999999,0.028791999999999998,-1.118984,2
2024-06-14 12:24:24.057,13.72,-60.62,-0.07,-0.06831999999999999,-0.001952,-1.12728,2
2024-06-14 12:24:24.062,12.32,-60.41,-0.42,0.09272,-0.011712,-1.079456,2
2024-06-14 12:24:24.067,13.93,-62.58,-0.84,0.008783999999999998,-0.029768,-1.1053199999999999,2
2024-06-14 12:24:24.072,9.87,-64.33,-1.19,-0.013663999999999999,-0.016592,-1.115568,2
2024-06-14 12:24:24.076,-10.08,-86.59,-2.66,0.047335999999999996,0.016104,-1.098,2
2024-06-14 12:24:24.081,9.87,-71.68,-1.4,0.066856,-0.041479999999999996,-1.093608,2
2024-06-14 12:24:24.086,8.96,-70.77,-1.05,0.083448,-0.001464,-1.059448,2
2024-06-14 12:24:24.091,5.81,-68.74,-0.98,-0.024887999999999997,0.009272,-1.1102,2
2024-06-14 12:24:24.096,8.68,-71.89,-0.91,0.112728,0.019032,-1.063352,2
2024-06-14 12:24:24.101,7.56,-73.29,-1.12,0.074176,-0.036112000000000005,-1.0477359999999998,2
2024-06-14 12:24:24.105,9.03,-72.45,-1.12,0.081984,0.010248,-1.094096,2
2024-06-14 12:24:24.110,14.56,-70.49,-0.84,0.058072,-0.00976,-1.0789680000000001,2
2024-06-14 12:24:24.115,10.99,-71.33,-0.63,0.10492,0.017567999999999997,-1.123376,2
2024-06-14 12:24:24.120,21.07,-82.25,0.28,0.06344,0.00976,-1.14924,2
2024-06-14 12:24:24.125,18.83,-68.18,-0.07,0.121512,0.0,-1.0931199999999999,2
2024-06-14 12:24:24.129,24.01,-78.33,0.21,0.085888,0.0,-1.105808,2
2024-06-14 12:24:24.134,21.98,-70.42,-0.35,0.093696,0.004391999999999999,-1.1053199999999999,2
2024-06-14 12:24:24.139,19.46,-70.07,-0.7,0.106384,-0.020007999999999998,-1.131184,2
2024-06-14 12:24:24.144,14.7,-81.13,-0.7,0.11175199999999999,-0.013176,-1.1204479999999999,2
2024-06-14 12:24:24.149,21.49,-68.18,-0.07,0.11663199999999999,-0.019032,-1.09068,2
2024-06-14 12:24:24.153,28.07,-68.81,1.12,0.121512,-0.002928,-1.089704,2
2024-06-14 12:24:24.158,30.52,-67.41,2.24,0.135176,-0.024399999999999998,-1.1067839999999998,2
2024-06-14 12:24:24.163,18.06,-73.22,2.59,0.131272,-0.028791999999999998,-1.101416,2
2024-06-14 12:24:24.168,19.39,-62.58,1.26,0.15616,0.00732,-1.0955599999999999,2
2024-06-14 12:24:24.173,16.17,-59.43,0.91,0.1586,-0.005856,-1.052616,2
2024-06-14 12:24:24.178,23.45,-52.92,1.89,0.152256,-0.038064,-1.079456,2
2024-06-14 12:24:24.182,20.93,-52.64,2.52,0.165432,-0.048312,-1.0775039999999998,2
2024-06-14 12:24:24.187,18.2,-51.24,3.22,0.171776,-0.074176,-1.068232,2
2024-06-14 12:24:24.192,16.1,-50.96,3.99,0.17372800000000002,-0.052216,-1.070672,2
2024-06-14 12:24:24.197,11.9,-51.1,4.55,0.176656,-0.06490399999999999,-1.0789680000000001,2
2024-06-14 12:24:24.202,8.82,-52.29,5.46,0.17568,-0.075152,-1.103856,2
2024-06-14 12:24:24.206,6.65,-53.06,6.72,0.18104800000000001,-0.088328,-1.091168,2
2024-06-14 12:24:24.211,4.06,-53.83,8.05,0.198616,-0.10052799999999999,-1.094584,2
2024-06-14 12:24:24.216,2.31,-55.51,9.38,0.183,-0.06783199999999999,-1.140944,2
2024-06-14 12:24:24.221,-0.14,-57.75,9.73,0.197152,-0.020984,-1.113128,2
2024-06-14 12:24:24.226,-0.14,-60.9,9.24,0.186416,-0.037576,-1.1350879999999999,2
2024-06-14 12:24:24.231,0.21,-66.92,9.59,0.194712,-0.068808,-1.1721759999999999,2
2024-06-14 12:24:24.235,0.35,-66.64,10.22,0.2074,0.025376,-1.147288,2
2024-06-14 12:24:24.240,0.63,-68.88,8.82,0.21472,0.007808,-1.179008,2
2024-06-14 12:24:24.245,5.32,-70.56,8.26,0.21862399999999999,0.00244,-1.22,2
2024-06-14 12:24:24.250,8.75,-74.76,7.35,0.22838399999999998,0.025864,-1.2483039999999999,2
2024-06-14 12:24:24.255,8.82,-79.87,7.07,0.23082399999999997,-0.063928,-1.269776,2
2024-06-14 12:24:24.259,10.43,-84.14,7.63,0.2196,-0.039528,-1.315648,2
2024-06-14 12:24:24.264,10.22,-90.65,7.42,0.226432,-0.001952,-1.335656,2
2024-06-14 12:24:24.269,11.69,-97.16,6.93,0.22935999999999998,0.0068319999999999995,-1.362984,2
2024-06-14 12:24:24.274,12.81,-104.23,6.51,0.245952,-0.008296,-1.3864079999999999,2
2024-06-14 12:24:24.277,16.73,-121.87,6.79,0.249856,-0.03904,-1.43472,3
2024-06-14 12:24:24.279,14.0,-114.17,6.3,0.244,-0.057095999999999994,-1.4259359999999999,3
2024-06-14 12:24:24.281,18.27,-131.32,6.72,0.244976,-0.011712,-1.47132,3
2024-06-14 12:24:24.286,21.56,-141.26,6.3,0.243024,-0.014152,-1.491328,3
2024-06-14 12:24:24.291,25.83,-150.15,5.74,0.243512,0.026352,-1.5049919999999999,3
2024-06-14 12:24:24.296,29.19,-161.91,4.97,0.245464,0.003904,-1.5337839999999998,3
2024-06-14 12:24:24.301,32.97,-171.85,4.69,0.241072,0.006344,-1.5493999999999999,3
2024-06-14 12:24:24.306,34.65,-183.68,3.92,0.245952,0.020007999999999998,-1.570872,3
2024-06-14 12:24:24.310,33.46,-199.71,3.29,0.25229599999999996,0.022448,-1.60552,3
2024-06-14 12:24:24.315,44.94,-207.62,2.66,0.260104,0.057095999999999994,-1.640656,3
2024-06-14 12:24:24.320,48.93,-220.36,1.47,0.264984,0.03172,-1.670424,3
2024-06-14 12:24:24.325,53.41,-231.77,0.77,0.258152,0.022448,-1.7489919999999999,3
2024-06-14 12:24:24.330,55.93,-246.68,0.35,0.242536,0.001952,-1.7441119999999999,3
2024-06-14 12:24:24.335,59.99,-263.83,0.77,0.23716800000000002,-0.026352,-1.757776,3
2024-06-14 12:24:24.339,63.0,-280.84,1.19,0.23716800000000002,0.027327999999999998,-1.810968,3
2024-06-14 12:24:24.344,63.28,-298.48,0.21,0.250832,0.07076,-1.94956,3
2024-06-14 12:24:24.349,64.26,-316.68,-1.05,0.25717599999999996,0.02196,-1.994456,3
2024-06-14 12:24:24.354,64.4,-336.77,-1.33,0.223016,-0.06783199999999999,-2.084248,3
2024-06-14 12:24:24.359,66.85,-357.84,-0.35,0.22594399999999998,-0.048799999999999996,-2.158912,3
2024-06-14 12:24:24.364,64.68,-379.82,-0.49,0.23960800000000002,0.027327999999999998,-2.317024,3
2024-06-14 12:24:24.369,59.01,-405.37,-1.96,0.241072,0.037088,-2.470256,3
2024-06-14 12:24:24.373,51.73,-430.92,-4.83,0.315736,0.094184,-2.727432,3
2024-06-14 12:24:24.378,47.18,-454.65,-7.77,0.330864,-0.044896,-2.956792,3
2024-06-14 12:24:24.383,40.53,-481.88,-7.42,0.432368,0.002928,-3.054392,3
2024-06-14 12:24:24.388,22.54,-505.4,-9.66,0.547048,0.1586,-3.5516639999999997,3
2024-06-14 12:24:24.393,8.47,-535.08,-14.91,0.5343600000000001,0.060024,-3.7893199999999996,3
2024-06-14 12:24:24.398,-3.08,-560.28,-20.16,0.381616,-0.159576,-4.086024,3
2024-06-14 12:24:24.402,-5.39,-583.31,-20.44,0.26937599999999995,-0.33964799999999995,-4.331,3
2024-06-14 12:24:24.407,-19.81,-601.79,-16.38,0.16982399999999997,-0.20154399999999997,-4.3188,3
2024-06-14 12:24:24.412,-31.15,-619.08,-20.93,0.050263999999999996,-0.208376,-4.093832,3
2024-06-14 12:24:24.417,-33.6,-632.52,-26.74,0.053192,-0.40015999999999996,-3.7283199999999996,3
2024-06-14 12:24:24.422,-21.28,-644.56,-28.77,-0.432856,-0.5192319999999999,-3.66488,3
2024-06-14 12:24:24.427,0.35,-654.29,-25.13,-0.543144,-0.40064799999999995,-3.3920879999999998,3
2024-06-14 12:24:24.432,24.01,-647.36,-30.94,-0.74664,-0.367464,-3.1490639999999996,3
2024-06-14 12:24:24.436,47.53,-636.02,-28.98,-1.109224,-0.637816,-2.7191359999999998,3
2024-06-14 12:24:24.441,61.95,-586.74,-19.18,-1.42008,-0.7080879999999999,-1.8207280000000001,4
2024-06-14 12:24:24.446,77.98,-516.04,-7.7,-1.608936,-0.668072,-2.004216,4
2024-06-14 12:24:24.451,95.9,-447.16,8.12,-1.31516,-0.61488,-2.0564319999999996,4
2024-06-14 12:24:24.456,97.79,-364.49,17.92,-1.471808,-0.37576,-1.7109279999999998,4
2024-06-14 12:24:24.461,65.66,-279.72,0.28,-1.074576,0.08247199999999999,-1.003328,4
2024-06-14 12:24:24.465,19.81,-200.97,-21.42,-1.182424,0.233752,-1.4923039999999999,4
2024-06-14 12:24:24.470,-27.58,-37.52,-28.84,-2.5624879999999997,0.732,-1.706536,4
2024-06-14 12:24:24.475,-88.9,78.68,-48.16,-2.284328,0.784216,-1.52256,4
2024-06-14 12:24:24.480,-143.57,142.03,-54.95,-1.295152,0.12395199999999999,-1.93004,4
2024-06-14 12:24:24.485,-166.67,180.95,-40.95,-1.050664,-0.26400799999999996,-2.087176,4
2024-06-14 12:24:24.490,-153.51,205.24,-19.32,-1.22732,-0.561688,-1.7782719999999999,4
2024-06-14 12:24:24.495,-121.73,225.68,8.19,-1.229272,-0.757864,-1.4884,4
2024-06-14 12:24:24.499,-83.44,245.0,39.76,-1.130208,-0.777384,-1.3898240000000002,4
2024-06-14 12:24:24.504,-45.36,265.72,70.14,-1.089704,-0.669048,-1.31028,4
2024-06-14 12:24:24.509,-14.91,287.91,96.67,-1.082384,-0.51728,-1.185352,4
2024-06-14 12:24:24.514,2.03,308.91,118.3,-1.060912,-0.349408,-1.100928,4
2024-06-14 12:24:24.519,8.47,329.77,135.45,-1.0126,-0.19178399999999998,-1.0735999999999999,4
2024-06-14 12:24:24.524,8.33,348.39,148.12,-0.95404,-0.083448,-1.0574959999999998,4
2024-06-14 12:24:24.528,4.76,364.77,156.66,-0.910608,0.006344,-1.0282159999999998,4
2024-06-14 12:24:24.533,0.21,380.24,161.56,-0.869616,0.07564,-1.0267519999999999,4
2024-06-14 12:24:24.538,-4.48,394.45,163.52,-0.8178880000000001,0.1098,-1.037488,4
2024-06-14 12:24:24.543,-9.8,408.1,163.1,-0.7768959999999999,0.145424,-1.05408,4
2024-06-14 12:24:24.548,-16.38,419.23,160.3,-0.723216,0.177144,-1.06628,4
2024-06-14 12:24:24.553,-23.94,428.75,155.89,-0.678808,0.191296,-1.0984880000000001,4
2024-06-14 12:24:24.558,-30.94,435.61,150.57,-0.625128,0.19178399999999998,-1.147288,4
2024-06-14 12:24:24.562,-36.12,440.58,143.92,-0.5641280000000001,0.159576,-1.187792,4
2024-06-14 12:24:24.567,-39.76,441.14,136.85,-0.487512,0.13566399999999998,-1.237568,4
2024-06-14 12:24:24.572,-39.83,440.3,128.87,-0.43188,0.111264,-1.2483039999999999,4
2024-06-14 12:24:24.577,-37.73,437.5,120.68,-0.406016,0.077104,-1.262944,4
2024-06-14 12:24:24.582,-32.69,436.24,112.77,-0.38112799999999997,0.048799999999999996,-1.2819759999999998,4
2024-06-14 12:24:24.587,-26.39,435.26,104.37,-0.354288,0.033671999999999994,-1.312232,4
2024-06-14 12:24:24.591,-19.67,434.56,95.83,-0.338184,0.019032,-1.3663999999999998,4
2024-06-14 12:24:24.596,-13.86,434.98,87.36,-0.315736,0.006344,-1.429352,4
2024-06-14 12:24:24.601,-8.26,435.82,78.82,-0.294264,-0.006344,-1.474248,4
2024-06-14 12:24:24.606,-3.22,436.73,71.12,-0.27571999999999997,-0.038064,-1.526464,4
2024-06-14 12:24:24.611,2.24,437.22,64.12,-0.251808,-0.07808,-1.588928,4
2024-06-14 12:24:24.616,8.33,437.15,58.73,-0.221552,-0.125416,-1.6596879999999998,4
2024-06-14 12:24:24.621,15.82,438.2,54.67,-0.187392,-0.17519200000000001,-1.737768,4
2024-06-14 12:24:24.625,24.5,437.92,51.8,-0.154208,-0.21716,-1.823168,4
2024-06-14 12:24:24.630,32.69,438.9,49.56,-0.11956,-0.220576,-1.882704,4
2024-06-14 12:24:24.635,38.85,440.02,46.83,-0.069296,-0.23326399999999997,-1.962248,4
2024-06-14 12:24:24.640,45.15,441.21,44.45,-0.047824,-0.25229599999999996,-2.018856,4
2024-06-14 12:24:24.645,52.36,443.17,42.07,-0.020984,-0.253272,-2.140856,4
2024-06-14 12:24:24.650,58.87,444.78,39.76,0.032695999999999996,-0.26108,-2.1730639999999997,4
2024-06-14 12:24:24.654,66.29,444.78,36.89,0.063928,-0.26205599999999996,-2.2472399999999997,4
2024-06-14 12:24:24.659,74.34,444.5,33.32,0.095648,-0.257664,-2.319464,4
2024-06-14 12:24:24.664,82.18,445.2,28.28,0.119072,-0.24156,-2.436096,4
2024-06-14 12:24:24.669,89.39,447.02,20.86,0.19178399999999998,-0.158112,-2.5405279999999997,4
2024-06-14 12:24:24.674,92.54,450.1,9.45,0.223992,-0.123464,-2.650328,4
2024-06-14 12:24:24.679,92.26,452.83,-4.34,0.26644799999999996,-0.12980799999999998,-2.802584,4
2024-06-14 12:24:24.684,91.91,455.84,-20.02,0.433344,-0.03172,-2.922144,4
2024-06-14 12:24:24.688,89.95,459.41,-40.95,0.545584,-0.051728,-2.9504479999999997,4
2024-06-14 12:24:24.693,85.61,460.18,-63.56,0.68076,-0.09516,-2.9953440000000002,4
2024-06-14 12:24:24.698,87.29,457.8,-84.84,0.8213039999999999,-0.15616,-3.0124239999999998,4
2024-06-14 12:24:24.703,107.1,452.27,-101.85,0.95892,-0.182512,-3.053904,4
2024-06-14 12:24:24.708,133.42,445.48,-114.59,1.148752,-0.13566399999999998,-3.05732,4
2024-06-14 12:24:24.713,155.61,436.03,-124.53,1.318088,-0.02684,-3.07928,4
2024-06-14 12:24:24.717,168.49,425.81,-132.79,1.459608,0.018544,-3.1671199999999997,4
2024-06-14 12:24:24.722,173.25,413.84,-139.72,1.7933999999999999,0.28548,-3.217384,4
2024-06-14 12:24:24.727,161.7,400.61,-148.96,2.005192,0.367952,-3.231048,4
2024-06-14 12:24:24.732,137.48,387.45,-155.54,2.249192,0.37332,-3.223728,4
2024-06-14 12:24:24.737,110.74,374.15,-159.46,2.6015279999999996,0.42456,-3.11588,4
2024-06-14 12:24:24.742,79.8,357.63,-161.0,2.937272,0.29133600000000004,-2.9504479999999997,4
2024-06-14 12:24:24.747,52.15,336.84,-155.96,3.296928,0.07466400000000001,-2.756712,4
2024-06-14 12:24:24.751,34.16,312.48,-143.08,3.6712239999999996,-0.132736,-2.528328,4
2024-06-14 12:24:24.756,24.92,282.66,-122.71,4.022584,-0.365024,-2.306288,4
2024-06-14 12:24:24.761,22.89,249.48,-94.99,4.363207999999999,-0.548024,-2.1340239999999997,4
2024-06-14 12:24:24.766,28.42,214.41,-61.88,4.698952,-0.623664,-1.987624,4
2024-06-14 12:24:24.771,38.99,178.92,-26.74,4.934168,-0.576816,-1.84952,4
2024-06-14 12:24:24.776,47.95,143.71,6.72,5.151816,-0.427,-1.7284959999999998,4
2024-06-14 12:24:24.780,56.98,109.69,36.54,5.3260320000000005,-0.251808,-1.6426079999999998,4
2024-06-14 12:24:24.785,69.09,77.14,61.32,5.520256000000001,0.15616,-1.4766879999999998,4
2024-06-14 12:24:24.790,67.55,43.33,78.47,5.429,0.380152,-1.44692,4
2024-06-14 12:24:24.795,57.47,8.89,91.14,5.3870320000000005,0.69784,-1.436184,4
2024-06-14 12:24:24.800,38.08,-25.41,95.55,5.217696,0.896456,-1.378112,4
2024-06-14 12:24:24.805,5.32,-59.43,95.9,4.903424,0.855952,-1.407392,4
2024-06-14 12:24:24.810,-26.39,-90.37,96.32,4.615016,0.74176,-1.4884,4
2024-06-14 12:24:24.814,-180.67,-282.1,91.28,6.591416000000001,0.137616,-5.85112,4
