time,gyroscope_x,gyroscope_y,gyroscope_z,accelerometer_x,accelerometer_y,accelerometer_z,phase
2024-06-14 12:56:55.081,108.22,-336.14,33.075,6.205408,-2.7062039999999996,-2.7086439999999996,1
2024-06-14 12:56:55.086,95.235,-321.755,45.394999999999996,0.6043879999999999,0.014883999999999994,-0.3847879999999999,1
2024-06-14 12:56:55.091,126.385,-331.625,19.564999999999998,-2.6578920000000004,0.225212,2.499292,1
2024-06-14 12:56:55.096,216.08999999999997,-422.24,7.595000000000001,-0.28743199999999997,0.471164,-0.86986,1
2024-06-14 12:56:55.100,227.04500000000002,-437.15,9.17,-0.30158399999999996,0.01683599999999999,-2.263832,1
2024-06-14 12:56:55.105,198.83499999999998,-431.235,21.14,-0.5846239999999999,0.02196,-1.255868,1
2024-06-14 12:56:55.110,167.09,-427.07000000000005,34.16,0.44700799999999996,0.131272,-1.4805920000000001,1
2024-06-14 12:56:55.115,139.685,-391.23,48.09,0.711504,-0.15835600000000002,-1.981036,1
2024-06-14 12:56:55.120,107.765,-346.95500000000004,54.425,0.810324,-0.515084,-1.932968,1
2024-06-14 12:56:55.125,97.16,-320.03999999999996,47.285,0.587552,-0.36697599999999997,-2.074244,1
2024-06-14 12:56:55.130,100.555,-300.93,30.835,0.19276,-0.49117199999999994,-2.197464,1
2024-06-14 12:56:55.134,84.105,-282.31,20.265,0.09442800000000001,-0.435784,-2.410476,1
2024-06-14 12:56:55.139,48.09,-259.105,20.86,0.1525,-0.26815599999999995,-2.496364,1
2024-06-14 12:56:55.144,28.35,-229.46,22.995,0.25180800000000003,-0.302804,-2.420968,1
2024-06-14 12:56:55.149,7.665,-178.60500000000002,18.130000000000003,0.425048,-0.419436,-2.3794880000000003,1
2024-06-14 12:56:55.154,2.66,-132.195,7.49,0.28255199999999997,-0.261568,-1.889536,1
2024-06-14 12:56:55.159,1.435,-95.34,-0.42000000000000004,0.263764,-0.171288,-1.580632,1
2024-06-14 12:56:55.163,-5.18,-74.69,-1.9249999999999998,0.130784,-0.09808799999999998,-1.356884,1
2024-06-14 12:56:55.168,-65.415,-73.29,-2.17,0.08954799999999999,-0.066856,-1.2731919999999999,1
2024-06-14 12:56:55.173,-13.685,-47.74,-4.305000000000001,0.020984,0.0039040000000000004,-1.159,2
2024-06-14 12:56:55.178,-1.3300000000000005,-41.79,-2.87,0.007319999999999999,0.07564,-1.072136,2
2024-06-14 12:56:55.183,-7.245,-34.615,-1.435,0.06709999999999999,0.060268,-1.0213839999999998,2
2024-06-14 12:56:55.188,-4.795,-14.84,-0.98,0.117364,0.035868000000000004,-1.029192,2
2024-06-14 12:56:55.192,-0.56,1.645,-1.085,0.017568,0.033916,-0.9696560000000001,2
2024-06-14 12:56:55.197,0.8749999999999999,10.885,-0.7000000000000001,0.022691999999999997,0.010248000000000002,-1.011136,2
2024-06-14 12:56:55.202,6.86,10.149999999999999,0.385,0.01098,-0.007076,-1.04798,2
2024-06-14 12:56:55.207,2.38,9.870000000000001,-0.42000000000000004,-0.005855999999999998,-0.03904,-1.023824,2
2024-06-14 12:56:55.212,5.04,9.8,-0.6649999999999999,-0.030011999999999997,-0.034648,-1.047492,2
2024-06-14 12:56:55.217,-0.63,8.96,-0.735,-0.038552,-0.03172,-1.0723799999999999,2
2024-06-14 12:56:55.221,0.2799999999999999,3.99,0.56,-0.034159999999999996,-0.040260000000000004,-1.0640839999999998,2
2024-06-14 12:56:55.226,-2.31,1.12,0.8049999999999999,-0.038796,-0.026108,-1.0518839999999998,2
2024-06-14 12:56:55.231,-2.3449999999999998,-0.77,0.42,-0.046604,-0.013176,-1.037244,2
2024-06-14 12:56:55.236,-2.485,-1.47,0.315,-0.044164,-0.005612000000000001,-1.029436,2
2024-06-14 12:56:55.241,-2.415,-2.415,0.56,-0.042212,0.004392,-1.0335839999999998,2
2024-06-14 12:56:55.246,-1.12,-3.5,0.63,-0.046604,0.001952,-1.0372439999999998,2
2024-06-14 12:56:55.250,-1.12,-5.04,0.21000000000000002,-0.051972,-0.0031719999999999995,-1.041148,2
2024-06-14 12:56:55.255,0.07,-6.545,-0.21,-0.052216,0.0017079999999999999,-1.040172,2
2024-06-14 12:56:55.260,0.0,-7.63,-0.14,-0.050508,0.00244,-1.029436,2
2024-06-14 12:56:55.265,0.98,-9.975,0.175,-0.061244,0.004636,-1.024068,2
2024-06-14 12:56:55.270,1.155,-11.865,-0.07,-0.048068,-0.000976,-1.03212,2
2024-06-14 12:56:55.275,1.6800000000000002,-13.755,-0.31499999999999995,-0.046604,-0.004392,-1.030656,2
2024-06-14 12:56:55.279,1.925,-15.085,-0.35,-0.049776,-0.008052,-1.025776,2
2024-06-14 12:56:55.284,1.855,-15.61,-0.035,-0.04148,-0.01098,-1.02114,2
2024-06-14 12:56:55.289,1.82,-15.855,0.03499999999999999,-0.043676000000000006,-0.00976,-1.0226039999999998,2
2024-06-14 12:56:55.294,1.7149999999999999,-16.240000000000002,-0.21000000000000002,-0.045628,-0.006587999999999998,-1.0291919999999999,2
2024-06-14 12:56:55.299,1.8900000000000001,-17.675,-0.27999999999999997,-0.04148,-0.010248,-1.0348039999999998,2
2024-06-14 12:56:55.304,1.96,-19.075,-0.13999999999999999,-0.045384,-0.008539999999999999,-1.033584,2
2024-06-14 12:56:55.308,2.17,-20.16,-0.06999999999999999,-0.039527999999999994,-0.007076,-1.034316,2
2024-06-14 12:56:55.313,2.0999999999999996,-20.965,-0.13999999999999999,-0.037332000000000004,-0.00854,-1.028948,2
2024-06-14 12:56:55.318,2.17,-21.315,-0.315,-0.032940000000000004,0.0019520000000000002,-1.0218720000000001,2
2024-06-14 12:56:55.323,2.1,-21.525,-0.35,-0.032451999999999995,-0.008296,-1.02236,2
2024-06-14 12:56:55.328,1.435,-20.825,-0.385,-0.032208,-0.010003999999999999,-1.0206520000000001,2
2024-06-14 12:56:55.333,1.225,-20.265,-0.315,-0.024155999999999997,-0.010492,-1.019676,2
2024-06-14 12:56:55.340,1.75,-19.32,-0.385,-0.024888,-0.008296000000000001,-1.026996,2
2024-06-14 12:56:55.344,3.745,-11.585,-0.07,-0.025132,-0.009028,-1.0316319999999999,2
2024-06-14 12:56:55.349,3.29,-8.47,0.0,-0.022692,-0.010248,-1.015528,2
2024-06-14 12:56:55.354,3.255,-8.82,0.0,-0.02562,-0.011956000000000001,-1.0182120000000001,2
2024-06-14 12:56:55.359,3.08,-8.33,-0.245,-0.023668,-0.009516,-1.016016,2
2024-06-14 12:56:55.364,3.01,-8.4,-0.27999999999999997,-0.022448000000000003,-0.012444,-1.014308,2
2024-06-14 12:56:55.368,3.045,-8.75,-0.42000000000000004,-0.016836,-0.011712,-1.014796,2
2024-06-14 12:56:55.373,2.835,-8.89,-0.42,-0.024888,-0.010492,-1.0116239999999999,2
2024-06-14 12:56:55.378,2.835,-8.925,-0.49,-0.018788,-0.012931999999999999,-1.009916,2
2024-06-14 12:56:55.383,2.87,-9.170000000000002,-0.49,-0.021471999999999998,-0.012688,-1.0126,2
2024-06-14 12:56:55.388,2.065,-14.21,-0.525,-0.02318,-0.015127999999999999,-1.015772,2
2024-06-14 12:56:55.393,2.415,-9.8,-0.665,-0.017568,0.0014639999999999983,-1.00406,2
2024-06-14 12:56:55.397,2.5549999999999997,-10.254999999999999,-0.35,-0.016104,-0.011467999999999999,-1.008696,2
2024-06-14 12:56:55.402,2.59,-10.885,-0.5249999999999999,-0.017324,-0.005124,-1.008208,2
2024-06-14 12:56:55.407,1.995,-14.280000000000001,-0.56,-0.017567999999999997,-0.005124,-1.009428,2
2024-06-14 12:56:55.412,2.38,-11.129999999999999,-0.63,-0.013908,-0.011712,-1.0067439999999999,2
2024-06-14 12:56:55.417,1.575,-10.675,-0.49,-0.01464,-0.012199999999999999,-1.0121120000000001,2
2024-06-14 12:56:55.421,0.5599999999999999,-10.219999999999999,-0.245,-0.012931999999999999,-0.013908,-1.0108920000000001,2
2024-06-14 12:56:55.426,-0.21000000000000002,-10.15,-0.385,-0.010492000000000001,-0.009028,-1.013576,2
2024-06-14 12:56:55.431,-0.7,-10.08,-0.56,-0.008052,-0.013908,-1.007232,2
2024-06-14 12:56:55.436,-0.525,-10.99,-0.735,-0.010248,-0.018543999999999998,-1.00528,2
2024-06-14 12:56:55.441,-11.34,1.6800000000000033,3.675,-0.021960000000000004,-0.012687999999999998,-0.9889319999999999,2
2024-06-14 12:56:55.446,2.52,-0.7699999999999996,-0.3849999999999998,-0.006587999999999998,-0.015616000000000001,-1.003328,2
2024-06-14 12:56:55.450,-4.654999999999999,22.154999999999998,1.61,-0.00488,-0.017079999999999998,-1.013088,2
2024-06-14 12:56:55.455,-3.255,14.21,-0.06999999999999984,-0.003904,-0.010248,-1.0084520000000001,2
2024-06-14 12:56:55.460,-3.1500000000000004,-12.459999999999999,-3.1149999999999998,-0.004392,-0.014884,-1.024068,2
2024-06-14 12:56:55.465,-5.845,-12.74,-3.3249999999999997,-0.008539999999999999,-0.0075639999999999995,-1.022848,2
2024-06-14 12:56:55.470,-3.92,-12.145,-0.875,-0.0026839999999999998,-0.011224,-1.016748,2
2024-06-14 12:56:55.474,-7.105,-14.175,-1.155,-0.004148,-0.004392,-1.01382,2
2024-06-14 12:56:55.479,-2.3449999999999998,-15.4,-3.045,0.005124,-0.008784,-1.0206520000000001,2
2024-06-14 12:56:55.484,-4.6899999999999995,-16.275,-4.234999999999999,0.004148,-0.007076000000000001,-1.0187,2
2024-06-14 12:56:55.489,-1.785,-17.43,-2.38,0.005124,-0.012199999999999999,-1.0189439999999998,2
2024-06-14 12:56:55.494,-2.415,-17.85,-0.875,0.005611999999999999,-0.016348,-1.0206520000000001,2
2024-06-14 12:56:55.499,-0.7000000000000001,-18.585,-1.6800000000000002,0.011467999999999999,-0.013663999999999999,-1.006988,2
2024-06-14 12:56:55.503,-0.28,-18.725,-2.87,0.009272,-0.013908,-1.0169920000000001,2
2024-06-14 12:56:55.508,-0.14,-19.565,-2.59,0.007807999999999999,-0.009516,-1.0262639999999998,2
2024-06-14 12:56:55.513,1.0499999999999998,-20.405,-1.19,0.012444,-0.00366,-1.0323639999999998,2
2024-06-14 12:56:55.518,2.205,-19.845,-0.98,0.010736,-0.00854,-1.042856,2
2024-06-14 12:56:55.523,5.39,-23.975,-2.1,0.007076000000000001,-0.001464,-1.047004,2
2024-06-14 12:56:55.527,6.965,-26.67,-2.625,0.012931999999999999,-0.006832,-1.06506,2
2024-06-14 12:56:55.532,7.35,-28.91,-2.065,0.011224,-0.006587999999999998,-1.089704,2
2024-06-14 12:56:55.537,8.75,-31.15,-1.26,0.010492,-0.005124,-1.1211799999999998,2
2024-06-14 12:56:55.542,1.225,-25.759999999999998,-2.1350000000000002,0.015127999999999999,-0.007075999999999999,-1.069452,2
2024-06-14 12:56:55.547,0.77,-28.21,-3.115,0.013176,-0.003172,-1.1016599999999999,2
2024-06-14 12:56:55.552,0.14,-30.065,-3.01,0.014884000000000001,-0.020984,-1.107272,2
2024-06-14 12:56:55.556,-0.63,-32.445,-2.73,0.016104,-0.009271999999999999,-1.106052,2
2024-06-14 12:56:55.561,-1.19,-35.455,-2.5549999999999997,0.017079999999999998,-0.021227999999999997,-1.126304,2
2024-06-14 12:56:55.566,-1.855,-38.36,-2.625,0.013663999999999999,-0.030988,-1.148752,2
2024-06-14 12:56:55.571,-2.17,-40.845,-2.415,0.002196,-0.037576,-1.1833999999999998,2
2024-06-14 12:56:55.576,-3.15,-44.974999999999994,-1.9249999999999998,0.009028,-0.024155999999999997,-1.214388,2
2024-06-14 12:56:55.580,-3.8499999999999996,-50.435,-1.47,0.0060999999999999995,-0.030255999999999998,-1.2617239999999998,2
2024-06-14 12:56:55.585,-4.865,-56.0,-1.645,0.009516,-0.025131999999999998,-1.287588,2
2024-06-14 12:56:55.590,-5.915,-61.915,-1.6800000000000002,0.007075999999999999,-0.039772,-1.2914919999999999,2
2024-06-14 12:56:55.595,-6.16,-68.705,-1.155,0.010735999999999999,-0.035623999999999996,-1.321016,2
2024-06-14 12:56:55.600,-8.225,-74.75999999999999,-0.98,0.00488,-0.036112000000000005,-1.326628,3
2024-06-14 12:56:55.605,-9.765,-80.255,-0.595,0.020739999999999998,-0.058316,-1.3232119999999998,3
2024-06-14 12:56:55.609,-10.71,-85.855,-0.10500000000000004,0.023668,-0.060023999999999994,-1.344928,3
2024-06-14 12:56:55.614,-11.620000000000001,-91.245,0.315,0.021716,-0.053436,-1.35176,3
2024-06-14 12:56:55.619,-11.445,-98.35,0.735,0.02074,-0.028304000000000003,-1.360056,3
2024-06-14 12:56:55.624,-12.11,-106.4,0.595,0.019275999999999998,-0.005856,-1.4010479999999998,3
2024-06-14 12:56:55.629,-12.635000000000002,-114.695,0.105,0.013663999999999999,0.0029279999999999996,-1.392264,3
2024-06-14 12:56:55.633,-11.620000000000001,-123.55,-0.455,0.022448,-0.003659999999999999,-1.4051960000000001,3
2024-06-14 12:56:55.638,-11.725000000000001,-133.385,-0.98,0.019763999999999997,0.017324,-1.4217879999999998,3
2024-06-14 12:56:55.643,-11.515,-143.92000000000002,-1.645,0.017568,0.007076,-1.4366720000000002,3
2024-06-14 12:56:55.648,-9.975,-154.35,-1.96,0.018544,-0.006588,-1.461316,3
2024-06-14 12:56:55.653,-8.54,-165.69,-2.03,0.016348,0.008052,-1.5189,3
2024-06-14 12:56:55.658,-7.385,-177.765,-2.87,0.015371999999999999,0.0366,-1.5657480000000001,3
2024-06-14 12:56:55.662,-5.529999999999999,-190.89,-3.955,0.007808,0.046604,-1.599176,3
2024-06-14 12:56:55.667,-2.24,-204.785,-5.32,-0.010003999999999999,0.084424,-1.6345560000000001,3
2024-06-14 12:56:55.672,1.225,-220.815,-7.98,-0.005124,0.122,-1.641876,3
2024-06-14 12:56:55.677,4.34,-239.12,-10.71,-0.01952,0.15982,-1.773636,3
2024-06-14 12:56:55.682,11.55,-249.305,-12.495000000000001,-0.015127999999999999,0.16909199999999996,-1.7514319999999999,3
2024-06-14 12:56:55.686,18.48,-263.585,-15.05,-0.007564,0.14518,-1.80682,3
2024-06-14 12:56:55.691,23.765,-278.53,-17.22,-0.026108,0.124928,-1.844884,3
2024-06-14 12:56:55.696,28.14,-295.645,-19.04,-0.039527999999999994,0.120536,-1.86294,3
2024-06-14 12:56:55.701,31.43,-312.935,-20.229999999999997,-0.037332000000000004,0.09467199999999999,-1.985672,3
2024-06-14 12:56:55.706,34.195,-330.05,-21.42,-0.05831599999999999,0.06466,-2.031788,3
2024-06-14 12:56:55.711,34.265,-349.685,-21.77,-0.011712,0.050508,-2.166964,3
2024-06-14 12:56:55.715,33.879999999999995,-370.16,-21.525,0.022448,0.094916,-2.46318,3
2024-06-14 12:56:55.720,33.95,-388.325,-22.365000000000002,0.03294,0.23521599999999998,-2.706204,3
2024-06-14 12:56:55.725,34.86,-411.66999999999996,-24.185000000000002,0.026351999999999997,0.382104,-2.9175079999999998,3
2024-06-14 12:56:55.730,24.85,-430.78,-29.259999999999998,0.097112,0.4860479999999999,-3.027552,3
2024-06-14 12:56:55.735,9.87,-449.57500000000005,-33.879999999999995,0.127124,0.47287199999999996,-3.0114479999999997,3
2024-06-14 12:56:55.740,-17.744999999999997,-464.1,-39.269999999999996,0.250344,0.43798000000000004,-2.9399559999999996,3
2024-06-14 12:56:55.744,-43.575,-475.78999999999996,-41.86,0.23765599999999998,0.40137999999999996,-2.9504479999999997,3
2024-06-14 12:56:55.749,-74.235,-480.165,-44.625,0.28181999999999996,0.434808,-2.983144,3
2024-06-14 12:56:55.754,-101.255,-482.86,-49.28,0.24107199999999998,0.40869999999999995,-2.996076,3
2024-06-14 12:56:55.759,-124.39,-473.83,-60.445,0.255224,0.31256399999999995,-3.053904,3
2024-06-14 12:56:55.764,-124.74000000000001,-461.33500000000004,-68.565,0.283284,0.07051600000000001,-3.163704,3
2024-06-14 12:56:55.768,-115.465,-455.875,-71.96000000000001,0.045871999999999996,-0.086132,-3.292048,3
2024-06-14 12:56:55.773,-110.39,-449.365,-73.955,-0.15811200000000003,-0.102236,-3.260816,3
2024-06-14 12:56:55.778,-103.67,-441.245,-79.13499999999999,-0.5970679999999999,0.0034160000000000006,-3.188592,3
2024-06-14 12:56:55.783,-95.27,-423.57,-90.055,-0.9396439999999999,0.019032,-3.0138879999999997,3
2024-06-14 12:56:55.788,-88.13,-417.54999999999995,-108.045,-1.403,0.006831999999999998,-2.512224,3
2024-06-14 12:56:55.793,-76.44,-409.18499999999995,-116.375,-2.2445559999999998,0.9335439999999999,-1.94346,3
2024-06-14 12:56:55.797,-62.44,-411.70500000000004,-110.11,-1.757288,0.16543199999999997,-1.7665600000000001,3
2024-06-14 12:56:55.802,-33.705,-426.265,-113.47,-1.737768,0.08271600000000001,-1.334924,4
2024-06-14 12:56:55.807,-4.970000000000001,-466.55,-108.71000000000001,-1.49328,0.142252,-0.890112,4
2024-06-14 12:56:55.812,26.145,-542.675,-98.035,-1.158268,0.176168,-0.742248,4
2024-06-14 12:56:55.817,31.92,-542.71,-86.205,-0.9496479999999999,0.152744,-1.0413919999999999,4
2024-06-14 12:56:55.821,28.0,-469.245,-72.72999999999999,-0.801296,0.254736,-0.9411080000000001,4
2024-06-14 12:56:55.826,25.655,-391.79,-55.265,-0.9581879999999999,0.35624,-1.010648,4
2024-06-14 12:56:55.831,17.919999999999998,-306.80999999999995,-30.205,-1.171688,0.22789600000000004,-0.937204,4
2024-06-14 12:56:55.836,7.875,-199.95499999999998,4.234999999999999,-1.417884,0.026351999999999997,-0.6209800000000001,4
2024-06-14 12:56:55.841,6.895,-83.09,43.575,-1.731424,-0.084912,-0.40869999999999995,4
2024-06-14 12:56:55.846,15.645,29.68,80.675,-1.902224,-0.13078399999999998,-0.318664,4
2024-06-14 12:56:55.850,29.855000000000004,128.555,112.84,-1.815848,-0.12322,-0.386984,4
2024-06-14 12:56:55.855,49.595,203.315,140.84,-1.646512,-0.08784,-0.571692,4
2024-06-14 12:56:55.860,67.655,257.705,163.59,-1.490596,-0.046848,-0.7822640000000001,4
2024-06-14 12:56:55.865,84.28,295.12,179.55,-1.321992,0.041968,-0.901092,4
2024-06-14 12:56:55.870,100.555,318.745,187.985,-1.177788,0.16299199999999997,-0.9574559999999999,4
2024-06-14 12:56:55.874,114.03,332.04499999999996,188.615,-1.066036,0.28791999999999995,-0.967216,4
2024-06-14 12:56:55.879,121.41499999999999,337.33,181.02,-1.0055239999999999,0.386008,-0.965996,4
2024-06-14 12:56:55.884,119.69999999999999,339.04499999999996,166.25,-0.967948,0.460184,-0.9301280000000001,4
2024-06-14 12:56:55.889,111.82499999999999,339.745,147.0,-0.9298839999999999,0.51118,-0.838384,4
2024-06-14 12:56:55.894,101.78,339.53499999999997,126.24499999999999,-0.8866959999999999,0.5363119999999999,-0.74176,4
2024-06-14 12:56:55.899,91.875,338.24,105.49000000000001,-0.829112,0.546072,-0.6617280000000001,4
2024-06-14 12:56:55.903,80.88499999999999,336.45500000000004,84.38499999999999,-0.7607919999999999,0.567788,-0.622444,4
2024-06-14 12:56:55.908,65.83500000000001,334.32,62.02,-0.6939359999999999,0.6136600000000001,-0.6270800000000001,4
2024-06-14 12:56:55.913,45.43,330.715,38.08,-0.618296,0.6405000000000001,-0.661972,4
2024-06-14 12:56:55.918,20.825,328.51,13.195,-0.535336,0.620736,-0.6885680000000001,4
2024-06-14 12:56:55.923,-4.935,327.03999999999996,-10.36,-0.47165199999999996,0.559248,-0.697596,4
2024-06-14 12:56:55.927,-27.895,326.76,-31.045,-0.43090399999999995,0.46604,-0.6973520000000001,4
2024-06-14 12:56:55.932,-46.620000000000005,327.075,-48.019999999999996,-0.41577600000000003,0.352824,-0.7019880000000001,4
2024-06-14 12:56:55.937,-60.34,328.44,-61.39,-0.40186799999999995,0.23741199999999998,-0.717116,4
2024-06-14 12:56:55.942,-68.705,330.78499999999997,-71.295,-0.388936,0.127856,-0.748348,4
2024-06-14 12:56:55.947,-71.05,332.745,-78.08500000000001,-0.381616,0.030743999999999997,-0.7929999999999999,4
2024-06-14 12:56:55.952,-68.495,335.78999999999996,-82.32,-0.36575599999999997,-0.042456,-0.856196,4
2024-06-14 12:56:55.956,-62.265,339.045,-84.41999999999999,-0.35550800000000005,-0.095892,-0.914024,4
2024-06-14 12:56:55.961,-53.515,342.93,-84.945,-0.3416,-0.135908,-0.9738039999999999,4
2024-06-14 12:56:55.966,-43.435,346.99,-84.28,-0.33672,-0.15494,-1.037488,4
2024-06-14 12:56:55.971,-33.25,351.4,-82.985,-0.32330000000000003,-0.1586,-1.106052,4
2024-06-14 12:56:55.976,-24.15,356.19500000000005,-81.27000000000001,-0.316956,-0.145668,-1.162904,4
2024-06-14 12:56:55.980,-17.22,361.62,-79.275,-0.304024,-0.1281,-1.221952,4
2024-06-14 12:56:55.985,-13.02,367.67499999999995,-77.14,-0.282552,-0.11053199999999999,-1.273924,4
2024-06-14 12:56:55.990,-11.83,373.905,-74.865,-0.25864,-0.09296399999999999,-1.3317519999999998,4
2024-06-14 12:56:55.995,-13.23,379.96000000000004,-72.345,-0.23814399999999997,-0.071248,-1.389824,4
2024-06-14 12:56:56.000,-17.045,385.21,-69.58,-0.217404,-0.051484,-1.453996,4
2024-06-14 12:56:56.005,-22.855,389.34000000000003,-66.605,-0.196176,-0.03782,-1.518656,4
2024-06-14 12:56:56.009,-30.240000000000002,392.105,-63.035,-0.179828,-0.029036,-1.583072,4
2024-06-14 12:56:56.014,-38.394999999999996,393.645,-58.94,-0.160552,-0.024888,-1.6516359999999999,4
2024-06-14 12:56:56.019,-46.585,394.52,-54.25,-0.13639600000000002,-0.029524,-1.719956,4
2024-06-14 12:56:56.024,-54.425,394.59000000000003,-48.965,-0.12322,-0.036112,-1.790228,4
2024-06-14 12:56:56.029,-61.565,393.78499999999997,-43.19,-0.110288,-0.050508,-1.86782,4
2024-06-14 12:56:56.033,-67.445,392.735,-36.855000000000004,-0.09394,-0.05856,-1.9515120000000001,4
2024-06-14 12:56:56.038,-71.96000000000001,391.685,-30.1,-0.081008,-0.068808,-2.045452,4
2024-06-14 12:56:56.043,-74.725,390.495,-22.75,-0.06466,-0.076372,-2.157936,4
2024-06-14 12:56:56.048,-75.775,388.99,-14.91,-0.03904,-0.090036,-2.284084,4
2024-06-14 12:56:56.053,-75.11,387.20500000000004,-6.334999999999999,0.007808000000000001,-0.097356,-2.40706,4
2024-06-14 12:56:56.058,-73.32499999999999,384.96500000000003,3.1849999999999996,0.07417599999999999,-0.098088,-2.532232,4
2024-06-14 12:56:56.062,-71.435,382.69,13.3,0.15323199999999998,-0.086132,-2.6493519999999995,4
2024-06-14 12:56:56.067,-69.685,380.38,23.94,0.24790399999999999,-0.06588,-2.763788,4
2024-06-14 12:56:56.072,-68.565,378.63,34.755,0.34648,-0.042212,-2.866268,4
2024-06-14 12:56:56.077,-68.425,377.125,45.395,0.455792,-0.031964,-2.958988,4
2024-06-14 12:56:56.082,-69.44,375.48,55.125,0.570716,-0.025376,-3.037556,4
2024-06-14 12:56:56.087,-71.505,373.55499999999995,63.525000000000006,0.68808,-0.010735999999999999,-3.120028,4
2024-06-14 12:56:56.091,-73.57,371.385,70.14,0.8332599999999999,0.007075999999999999,-3.207868,4
2024-06-14 12:56:56.096,-74.69,369.11,75.215,1.014308,0.02806,-3.263256,4
2024-06-14 12:56:56.101,-73.465,366.83500000000004,79.135,1.218536,0.05246000000000001,-3.3001,4
2024-06-14 12:56:56.106,-69.72,364.35,82.845,1.426912,0.08637600000000001,-3.327916,4
2024-06-14 12:56:56.111,-64.26,360.99,85.61,1.6606640000000001,0.100772,-3.339628,4
2024-06-14 12:56:56.115,-57.785,356.93,86.94,1.90686,0.13224799999999998,-3.31108,4
2024-06-14 12:56:56.120,-50.085,351.155,90.3,2.1545199999999998,0.136152,-3.222996,4
2024-06-14 12:56:56.125,-41.72,343.385,95.235,2.4051080000000002,0.142252,-3.072692,4
2024-06-14 12:56:56.130,-31.78,332.92,101.955,2.65472,0.14518000000000003,-2.886032,4
2024-06-14 12:56:56.135,-20.58,318.67499999999995,108.045,2.863828,0.198128,-2.639348,4
2024-06-14 12:56:56.140,-9.1,301.49,111.895,3.0680560000000003,0.245464,-2.329712,4
2024-06-14 12:56:56.144,1.645,281.225,110.18,3.349144,0.25327199999999994,-2.0049479999999997,4
2024-06-14 12:56:56.149,9.415,261.03,103.63499999999999,3.7400320000000002,0.352336,-1.603812,4
2024-06-14 12:56:56.154,15.995,241.60500000000002,96.03999999999999,4.386388,0.32452000000000003,-1.1507040000000002,4
2024-06-14 12:56:56.159,11.549999999999999,222.075,64.785,4.87756,0.511424,-0.771528,4
2024-06-14 12:56:56.164,-21.91,196.7,29.994999999999997,5.37288,0.613904,-0.696376,4
2024-06-14 12:56:56.168,-75.635,168.735,-11.725000000000001,5.7096,0.579988,-0.843996,4
2024-06-14 12:56:56.173,-123.095,120.925,-51.519999999999996,5.70106,0.382348,-1.036268,4
2024-06-14 12:56:56.178,-147.52499999999998,58.94,-82.63499999999999,5.301632,0.06075600000000001,-1.193648,4
2024-06-14 12:56:56.183,-145.32,-10.254999999999999,-101.99000000000001,4.793136,-0.247172,-1.2175599999999998,4
2024-06-14 12:56:56.188,-119.66499999999999,-81.025,-110.495,4.235352,-0.488244,-1.1916959999999999,4
2024-06-14 12:56:56.193,-74.445,-146.615,-109.515,3.677568,-0.6544079999999999,-1.164368,4
2024-06-14 12:56:56.197,-19.32,-196.175,-101.955,2.339716,-1.5433,-1.192428,4
