time,gyroscope_x,gyroscope_y,gyroscope_z,accelerometer_x,accelerometer_y,accelerometer_z,phase
2024-06-14 12:39:26.879,99.54,-4.76,28.84,-4.40176,1.706536,3.248616,1
2024-06-14 12:39:26.884,4.41,-171.43,22.26,-1.830976,0.32696,-1.5713599999999999,1
2024-06-14 12:39:26.889,32.69,-337.05,28.21,-0.97112,0.185928,-0.777872,1
2024-06-14 12:39:26.893,49.63,-429.87,33.18,0.737856,0.13663999999999998,-1.335168,1
2024-06-14 12:39:26.898,53.27,-462.7,44.1,1.138992,0.227896,-1.648952,1
2024-06-14 12:39:26.903,17.22,-454.16,57.82,0.818376,-0.046848,-2.121336,1
2024-06-14 12:39:26.908,16.73,-404.18,61.39,0.47921600000000003,-0.17568,-2.3331280000000003,1
2024-06-14 12:39:26.913,43.33,-335.58,38.78,0.377224,-0.38112799999999997,-2.447808,1
2024-06-14 12:39:26.918,58.1,-280.49,0.28,0.386984,-0.508496,-2.613728,1
2024-06-14 12:39:26.922,71.96,-231.42,-35.63,0.09955199999999999,-0.520208,-2.379488,1
2024-06-14 12:39:26.927,62.58,-198.59,-60.55,0.06734399999999999,-0.19276,-2.23504,1
2024-06-14 12:39:26.932,40.53,-164.22,-62.16,0.186904,0.228872,-2.0940079999999996,1
2024-06-14 12:39:26.937,25.2,-128.87,-35.63,0.470432,0.37576,-1.831952,1
2024-06-14 12:39:26.942,12.32,-108.57,-1.96,0.5338719999999999,0.446032,-1.769488,1
2024-06-14 12:39:26.947,5.74,-88.27,17.99,0.35868,0.369416,-1.64944,1
2024-06-14 12:39:26.951,8.47,-73.29,19.18,0.247416,0.13419999999999999,-1.4474079999999998,1
2024-06-14 12:39:26.956,10.99,-65.03,9.31,0.071248,-0.07222400000000001,-1.22732,1
2024-06-14 12:39:26.961,4.9,-56.0,-2.31,0.012199999999999999,-0.120536,-1.081896,1
2024-06-14 12:39:26.966,-3.78,-47.53,-7.56,0.003904,0.005368,-1.037,1
2024-06-14 12:39:26.971,-10.64,-39.69,-6.93,0.110288,0.11956,-1.039928,1
2024-06-14 12:39:26.976,-10.08,-31.99,-2.24,0.10931199999999999,0.18056,-1.0477359999999998,1
2024-06-14 12:39:26.980,-7.21,-25.9,0.77,0.111264,0.168848,-1.083848,1
2024-06-14 12:39:26.985,-3.5,-20.79,0.21,0.052216,0.113216,-1.0872639999999998,2
2024-06-14 12:39:26.990,-2.1,-18.06,-2.59,0.015128,0.094184,-1.072136,2
2024-06-14 12:39:26.995,-1.47,-15.82,-3.29,0.011224,0.092232,-1.05652,2
2024-06-14 12:39:27.000,-0.42,-13.72,-1.82,0.034159999999999996,0.123464,-1.059936,2
2024-06-14 12:39:27.005,1.47,-11.13,-1.33,0.024399999999999998,0.12834399999999999,-1.06628,2
2024-06-14 12:39:27.009,2.94,-8.89,-1.89,0.003904,0.09955199999999999,-1.074088,2
2024-06-14 12:39:27.014,2.87,-7.56,-2.52,-0.009272,0.083448,-1.075064,2
2024-06-14 12:39:27.019,2.52,-7.14,-2.45,-0.013176,0.083448,-1.070184,2
2024-06-14 12:39:27.024,1.96,-7.7,-1.89,-0.010248,0.094184,-1.064816,2
2024-06-14 12:39:27.029,2.24,-9.45,-1.96,-0.017079999999999998,0.10492,-1.055056,2
2024-06-14 12:39:27.034,2.59,-11.97,-2.24,-0.027327999999999998,0.1098,-1.042368,2
2024-06-14 12:39:27.038,3.43,-13.65,-2.31,-0.027816,0.11419199999999999,-1.040416,2
2024-06-14 12:39:27.043,4.2,-15.26,-2.24,-0.027327999999999998,0.116144,-1.0482239999999998,2
2024-06-14 12:39:27.048,5.39,-17.08,-2.52,-0.025376,0.120048,-1.0589600000000001,2
2024-06-14 12:39:27.053,6.79,-18.97,-2.66,-0.030744,0.11467999999999999,-1.053104,2
2024-06-14 12:39:27.058,7.98,-21.0,-2.94,-0.025376,0.111264,-1.050664,2
2024-06-14 12:39:27.063,9.03,-22.75,-2.94,-0.025864,0.108336,-1.0477359999999998,2
2024-06-14 12:39:27.067,9.87,-24.01,-2.87,-0.020984,0.110776,-1.037488,2
2024-06-14 12:39:27.072,11.13,-24.57,-3.01,-0.017079999999999998,0.106872,-1.0360239999999998,2
2024-06-14 12:39:27.077,13.93,-22.89,-2.8,-0.022936,0.10492,-1.029192,2
2024-06-14 12:39:27.082,14.42,-22.89,-2.8,0.008783999999999998,0.081984,-1.0145520000000001,2
2024-06-14 12:39:27.087,14.07,-23.45,-2.59,-0.001464,0.093208,-1.025288,2
2024-06-14 12:39:27.090,14.21,-23.8,-2.59,0.0034159999999999998,0.088816,-1.0248,2
2024-06-14 12:39:27.094,14.07,-23.94,-2.52,-0.000976,0.10003999999999999,-1.016992,2
2024-06-14 12:39:27.099,14.14,-23.94,-2.38,-0.0034159999999999998,0.09711199999999999,-1.017968,2
2024-06-14 12:39:27.104,14.14,-23.8,-2.66,0.00244,0.088816,-1.016504,2
2024-06-14 12:39:27.109,13.86,-24.08,-2.87,0.012688,0.08930400000000001,-1.016504,2
2024-06-14 12:39:27.114,13.58,-23.87,-2.87,0.015616,0.083448,-1.0145520000000001,2
2024-06-14 12:39:27.119,13.16,-23.24,-3.01,0.013176,0.08539999999999999,-1.007232,2
2024-06-14 12:39:27.123,12.53,-22.68,-3.08,0.013176,0.08637600000000001,-1.008696,2
2024-06-14 12:39:27.128,11.76,-21.07,-3.36,0.017079999999999998,0.072712,-1.01016,2
2024-06-14 12:39:27.133,10.85,-21.56,-3.36,0.019032,0.08686400000000001,-1.007232,2
2024-06-14 12:39:27.138,10.64,-20.02,-3.64,0.031232,0.08003199999999999,-1.0043039999999999,2
2024-06-14 12:39:27.143,10.22,-19.39,-3.71,0.028304,0.08003199999999999,-1.008696,2
2024-06-14 12:39:27.148,9.59,-19.18,-3.78,0.024399999999999998,0.08003199999999999,-1.01016,2
2024-06-14 12:39:27.152,9.24,-18.69,-3.85,0.025864,0.077592,-1.008208,2
2024-06-14 12:39:27.157,8.89,-18.13,-3.99,0.026352,0.08247199999999999,-1.008208,2
2024-06-14 12:39:27.162,8.4,-17.64,-3.99,0.030256,0.079056,-1.0091839999999999,2
2024-06-14 12:39:27.167,7.98,-17.15,-3.92,0.03904,0.074176,-1.011136,2
2024-06-14 12:39:27.172,7.42,-16.73,-3.71,0.037576,0.0732,-1.017968,2
2024-06-14 12:39:27.177,6.86,-16.87,-3.71,0.040992,0.07076,-1.01992,2
2024-06-14 12:39:27.181,6.23,-17.01,-3.57,0.040504,0.066368,-1.023336,2
2024-06-14 12:39:27.186,3.99,-20.93,-3.29,0.041479999999999996,0.060512,-1.025288,2
2024-06-14 12:39:27.191,5.67,-16.66,-3.29,0.038064,0.0732,-1.0238239999999998,2
2024-06-14 12:39:27.196,4.41,-16.87,-3.22,0.041479999999999996,0.07808,-1.0248,2
2024-06-14 12:39:27.201,4.55,-16.94,-3.01,0.041479999999999996,0.072712,-1.023336,2
2024-06-14 12:39:27.206,3.85,-17.78,-2.87,0.038064,0.076616,-1.030168,2
2024-06-14 12:39:27.211,3.99,-18.41,-3.15,0.043432000000000005,0.08295999999999999,-1.032608,2
2024-06-14 12:39:27.215,4.41,-18.83,-3.36,0.042944,0.08247199999999999,-1.03212,2
2024-06-14 12:39:27.220,4.41,-19.74,-3.36,0.045384,0.079544,-1.033584,2
2024-06-14 12:39:27.225,4.76,-20.37,-3.29,0.043432000000000005,0.079544,-1.033584,2
2024-06-14 12:39:27.230,4.97,-21.07,-3.36,0.048312,0.085888,-1.030656,2
2024-06-14 12:39:27.235,5.32,-22.26,-3.57,0.052216,0.078568,-1.030656,2
2024-06-14 12:39:27.240,5.53,-22.82,-3.71,0.054168,0.078568,-1.035536,2
2024-06-14 12:39:27.244,6.44,-24.64,-3.64,0.052216,0.075152,-1.031144,2
2024-06-14 12:39:27.249,5.53,-25.69,-3.71,0.058072,0.06588,-1.042856,2
2024-06-14 12:39:27.254,5.18,-26.46,-3.71,0.061488,0.062464,-1.045296,2
2024-06-14 12:39:27.259,4.13,-28.35,-3.57,0.060024,0.057095999999999994,-1.050176,2
2024-06-14 12:39:27.264,2.8,-30.17,-3.5,0.059048,0.06490399999999999,-1.0574959999999998,2
2024-06-14 12:39:27.269,2.45,-31.57,-3.43,0.061488,0.066368,-1.0574959999999998,2
2024-06-14 12:39:27.273,-7.7,423.92,-18.83,0.0732,0.060024,-1.2800239999999998,2
2024-06-14 12:39:27.278,0.84,19.25,9.87,0.058072,0.063928,-1.082872,2
2024-06-14 12:39:27.283,2.31,21.77,7.84,0.06734399999999999,0.071248,-1.091168,2
2024-06-14 12:39:27.288,-6.23,27.65,-6.79,0.07173600000000001,0.078568,-1.083848,2
2024-06-14 12:39:27.293,10.01,20.58,-5.18,0.075152,0.068808,-1.0833599999999999,2
2024-06-14 12:39:27.298,-4.97,17.08,4.83,0.088816,0.06490399999999999,-1.081896,2
2024-06-14 12:39:27.303,8.75,-3.36,8.05,0.09028,0.044896,-1.098976,2
2024-06-14 12:39:27.307,-5.81,-20.86,-2.66,0.088328,0.041968,-1.096536,2
2024-06-14 12:39:27.312,4.2,-31.08,-5.67,0.090768,0.061975999999999996,-1.102392,2
2024-06-14 12:39:27.317,-0.98,-39.06,1.61,0.10052799999999999,0.07027199999999999,-1.1619279999999998,2
2024-06-14 12:39:27.322,6.72,-44.87,7.91,0.092232,0.077104,-1.16632,2
2024-06-14 12:39:27.327,8.82,-48.23,2.66,0.09028,0.07076,-1.2326879999999998,2
2024-06-14 12:39:27.332,15.75,-49.21,-2.24,0.094184,0.076616,-1.197552,2
2024-06-14 12:39:27.336,14.42,-55.86,-0.42,0.09467199999999999,0.06490399999999999,-1.189256,2
2024-06-14 12:39:27.341,-5.53,-66.36,2.31,0.11467999999999999,0.076128,-1.1838879999999998,2
2024-06-14 12:39:27.346,-8.12,-74.9,0.91,0.10394400000000001,0.08930400000000001,-1.265872,2
2024-06-14 12:39:27.351,-7.84,-78.75,-3.92,0.101504,0.07076,-1.226344,2
2024-06-14 12:39:27.356,-6.72,-83.86,-4.76,0.11467999999999999,0.137616,-1.284904,2
2024-06-14 12:39:27.361,-10.5,-91.21,-3.01,0.11467999999999999,0.10736,-1.3522480000000001,3
2024-06-14 12:39:27.365,-10.15,-96.18,-2.73,0.123464,0.105896,-1.347368,3
2024-06-14 12:39:27.370,-10.5,-102.55,-6.37,0.122,0.090768,-1.397144,3
2024-06-14 12:39:27.375,-7.98,-109.9,-8.4,0.116144,0.08003199999999999,-1.4078799999999998,3
2024-06-14 12:39:27.380,-8.61,-116.97,-7.14,0.118096,0.071248,-1.426424,3
2024-06-14 12:39:27.385,-8.96,-125.86,-5.81,0.12834399999999999,0.081496,-1.414224,3
2024-06-14 12:39:27.390,-6.51,-134.96,-7.14,0.121024,0.09272,-1.549888,3
2024-06-14 12:39:27.395,-5.46,-143.57,-10.22,0.11467999999999999,0.13419999999999999,-1.479128,3
2024-06-14 12:39:27.399,-3.99,-153.51,-11.41,0.120536,0.166896,-1.548912,3
2024-06-14 12:39:27.404,-1.19,-164.15,-11.83,0.11956,0.154208,-1.497184,3
2024-06-14 12:39:27.409,-2.24,-177.52,-14.35,0.11467999999999999,0.217648,-1.689944,3
2024-06-14 12:39:27.414,11.83,-186.06,-17.78,0.102968,0.199592,-1.60796,3
2024-06-14 12:39:27.419,10.29,-196.35,-21.0,0.09516,0.205936,-1.6435840000000002,3
2024-06-14 12:39:27.424,14.91,-209.72,-22.12,0.096136,0.165432,-1.704096,3
2024-06-14 12:39:27.428,16.24,-224.07,-22.82,0.101016,0.09272,-1.870016,3
2024-06-14 12:39:27.433,19.39,-241.01,-23.8,0.089792,0.127856,-1.979816,3
2024-06-14 12:39:27.438,25.97,-260.61,-26.11,0.079056,0.20788800000000002,-2.120848,3
2024-06-14 12:39:27.443,33.04,-282.03,-28.91,0.061,0.32988799999999996,-2.1945360000000003,3
2024-06-14 12:39:27.448,44.52,-308.21,-33.46,0.04392,0.39771999999999996,-2.334104,3
2024-06-14 12:39:27.453,45.22,-332.85,-39.9,0.045872,0.44652,-2.598112,3
2024-06-14 12:39:27.457,56.0,-358.33,-45.78,0.060024,0.394304,-2.667896,3
2024-06-14 12:39:27.462,61.39,-385.91,-49.98,0.061488,0.39039999999999997,-2.914824,3
2024-06-14 12:39:27.467,78.05,-407.82,-51.87,0.06831999999999999,0.46115999999999996,-3.15248,3
2024-06-14 12:39:27.472,80.08,-433.72,-55.72,0.07808,0.613416,-3.2647199999999996,3
2024-06-14 12:39:27.477,81.34,-454.79,-61.11,0.122976,0.721264,-3.49896,3
2024-06-14 12:39:27.482,77.28,-476.35,-67.83,0.077104,0.71736,-3.544344,3
2024-06-14 12:39:27.486,69.51,-495.18,-71.54,0.02196,0.68564,-3.567768,3
2024-06-14 12:39:27.491,61.53,-515.41,-74.41,-0.06490399999999999,0.622688,-3.6087599999999997,3
2024-06-14 12:39:27.496,47.25,-530.04,-77.21,-0.09759999999999999,0.544608,-3.706848,3
2024-06-14 12:39:27.501,38.99,-541.87,-78.54,-0.056119999999999996,0.371856,-3.653168,3
2024-06-14 12:39:27.506,38.22,-550.69,-76.93,-0.12980799999999998,0.224968,-3.592168,3
2024-06-14 12:39:27.511,35.98,-553.07,-74.76,-0.22838399999999998,0.076128,-3.581432,3
2024-06-14 12:39:27.516,35.42,-551.6,-71.05,-0.366976,-0.010248,-3.605832,3
2024-06-14 12:39:27.520,41.51,-550.83,-64.68,-0.686128,0.08930400000000001,-3.4789519999999996,3
2024-06-14 12:39:27.525,45.64,-537.39,-61.11,-1.0555439999999998,0.252784,-3.159312,3
2024-06-14 12:39:27.530,51.17,-524.72,-69.23,-1.609912,0.437736,-2.5278400000000003,3
2024-06-14 12:39:27.535,25.2,-499.8,-62.65,-1.6811599999999998,0.33427999999999997,-1.976888,4
2024-06-14 12:39:27.540,20.86,-472.36,-68.18,-1.9905519999999999,0.41577600000000003,-1.5640399999999999,4
2024-06-14 12:39:27.545,21.98,-447.44,-76.93,-2.37412,0.44212799999999997,-1.055056,4
2024-06-14 12:39:27.549,22.26,-411.74,-85.82,-2.240408,0.617808,-0.550952,4
2024-06-14 12:39:27.554,1.68,-392.84,-90.58,-1.00528,0.931592,-0.040504,4
2024-06-14 12:39:27.559,-22.96,-292.39,-81.41,-0.964288,0.663192,-1.509872,4
2024-06-14 12:39:27.564,-64.19,-172.62,-58.59,-1.4976720000000001,0.272304,-1.9310159999999998,4
2024-06-14 12:39:27.569,-86.17,-61.32,-25.76,-2.016904,-0.063928,-1.21024,4
2024-06-14 12:39:27.574,-65.38,48.65,13.02,-1.9939679999999997,-0.318664,-0.765672,4
2024-06-14 12:39:27.578,-17.29,132.02,53.27,-1.619672,-0.38356799999999996,-0.9823439999999999,4
2024-06-14 12:39:27.583,34.86,187.11,87.57,-1.365912,-0.28108799999999995,-1.097512,4
2024-06-14 12:39:27.588,81.69,219.8,111.79,-1.285392,-0.149816,-0.970144,4
2024-06-14 12:39:27.593,114.17,237.79,124.88,-1.277096,0.052216,-0.7964159999999999,4
2024-06-14 12:39:27.598,127.26,247.38,129.29,-1.2541600000000002,0.304024,-0.676368,4
2024-06-14 12:39:27.603,119.84,252.98,127.26,-1.219512,0.5377759999999999,-0.6114639999999999,4
2024-06-14 12:39:27.608,94.36,257.11,119.35,-1.189744,0.7193120000000001,-0.515328,4
2024-06-14 12:39:27.612,56.49,261.94,106.89,-1.1736399999999998,0.8061759999999999,-0.432856,4
2024-06-14 12:39:27.617,14.77,267.26,92.68,-1.153144,0.797392,-0.40308799999999995,4
2024-06-14 12:39:27.622,-21.98,272.23,78.33,-1.072136,0.7139439999999999,-0.39039999999999997,4
2024-06-14 12:39:27.627,-48.72,276.08,64.54,-1.0091839999999999,0.570472,-0.386496,4
2024-06-14 12:39:27.632,-62.93,279.23,53.06,-0.962336,0.39527999999999996,-0.392352,4
2024-06-14 12:39:27.637,-66.08,281.12,43.75,-0.9135359999999999,0.23960800000000002,-0.41236,4
2024-06-14 12:39:27.641,-59.22,283.01,36.19,-0.861808,0.125416,-0.450424,4
2024-06-14 12:39:27.646,-45.64,284.83,30.17,-0.808616,0.050263999999999996,-0.48312,4
2024-06-14 12:39:27.651,-30.66,287.21,24.99,-0.762744,0.027327999999999998,-0.529968,4
2024-06-14 12:39:27.656,-18.55,290.78,20.09,-0.720776,0.035135999999999994,-0.5860879999999999,4
2024-06-14 12:39:27.661,-11.83,297.08,14.91,-0.689056,0.06490399999999999,-0.642208,4
2024-06-14 12:39:27.666,-11.2,302.12,9.73,-0.656848,0.090768,-0.6895439999999999,4
2024-06-14 12:39:27.670,-15.26,308.84,4.76,-0.625616,0.099064,-0.7412719999999999,4
2024-06-14 12:39:27.675,-21.98,315.98,0.56,-0.598288,0.08247199999999999,-0.794952,4
2024-06-14 12:39:27.680,-29.26,322.42,-2.52,-0.565104,0.05124,-0.847656,4
2024-06-14 12:39:27.685,-35.35,328.37,-3.92,-0.5416799999999999,0.010248,-0.895968,4
2024-06-14 12:39:27.690,-38.57,333.55,-3.78,-0.501664,-0.041479999999999996,-0.9423279999999999,4
2024-06-14 12:39:27.695,-38.85,337.68,-1.82,-0.47433600000000004,-0.078568,-1.002352,4
2024-06-14 12:39:27.700,-37.1,340.69,1.26,-0.448472,-0.10394400000000001,-1.0589600000000001,4
2024-06-14 12:39:27.704,-34.3,343.42,5.11,-0.42944,-0.121512,-1.120936,4
2024-06-14 12:39:27.709,-31.64,346.08,9.45,-0.406992,-0.122488,-1.1838879999999998,4
2024-06-14 12:39:27.714,-29.89,348.53,13.86,-0.391376,-0.111264,-1.2404959999999998,4
2024-06-14 12:39:27.719,-28.91,350.98,18.41,-0.365024,-0.09759999999999999,-1.301984,4
2024-06-14 12:39:27.724,-28.77,352.8,22.89,-0.338672,-0.087352,-1.365912,4
2024-06-14 12:39:27.729,-28.91,353.85,27.44,-0.318664,-0.08003199999999999,-1.4283759999999999,4
2024-06-14 12:39:27.733,-29.19,354.27,31.78,-0.296704,-0.066368,-1.49816,4
2024-06-14 12:39:27.738,-29.75,354.2,35.84,-0.27620799999999995,-0.057095999999999994,-1.578192,4
2024-06-14 12:39:27.743,-29.82,353.15,39.83,-0.26205599999999996,-0.030744,-1.6631040000000001,4
2024-06-14 12:39:27.748,-30.17,351.4,43.4,-0.23668,-0.002928,-1.773392,4
2024-06-14 12:39:27.753,-31.08,349.65,46.97,-0.205936,0.020007999999999998,-1.874896,4
2024-06-14 12:39:27.758,-32.27,347.48,50.89,-0.17275200000000002,0.042944,-1.96664,4
2024-06-14 12:39:27.762,-33.81,345.38,55.09,-0.13419999999999999,0.062464,-2.055456,4
2024-06-14 12:39:27.767,-35.7,342.86,59.22,-0.08247199999999999,0.08247199999999999,-2.15696,4
2024-06-14 12:39:27.772,-37.38,340.2,63.07,-0.03172,0.10052799999999999,-2.268224,4
2024-06-14 12:39:27.777,-38.64,337.47,66.92,0.014152,0.11712,-2.3858319999999997,4
2024-06-14 12:39:27.782,-39.55,334.88,71.05,0.061975999999999996,0.13224799999999998,-2.49368,4
2024-06-14 12:39:27.787,-40.32,333.13,76.16,0.11516799999999999,0.14054399999999997,-2.606408,4
2024-06-14 12:39:27.792,-40.25,331.73,82.95,0.17275200000000002,0.148352,-2.7313359999999998,4
2024-06-14 12:39:27.796,-39.9,331.59,91.84,0.25473599999999996,0.15128,-2.86456,4
2024-06-14 12:39:27.801,-37.59,332.71,103.81,0.38844799999999996,0.150792,-2.937272,4
2024-06-14 12:39:27.806,-30.38,337.89,119.42,0.5875520000000001,0.14884,-2.8948159999999996,4
2024-06-14 12:39:27.811,-28.77,348.39,135.31,0.76616,0.238144,-3.0260879999999997,4
2024-06-14 12:39:27.816,-35.56,357.98,144.27,0.9423279999999999,0.36112,-3.235928,4
2024-06-14 12:39:27.821,-39.2,371.84,146.86,1.146312,0.44164,-3.294488,4
2024-06-14 12:39:27.825,-38.5,386.33,146.02,1.3054,0.497272,-3.31352,4
2024-06-14 12:39:27.830,-33.39,401.17,142.38,1.44204,0.49776,-3.3066880000000003,4
2024-06-14 12:39:27.835,-27.79,415.17,136.29,1.5733119999999998,0.521672,-3.3032719999999998,4
2024-06-14 12:39:27.840,-16.24,425.04,129.29,1.703608,0.58072,-3.283264,4
2024-06-14 12:39:27.845,0.63,429.17,121.94,1.7982799999999999,0.6993039999999999,-3.228608,4
2024-06-14 12:39:27.850,21.35,427.7,121.1,2.012024,0.7422479999999999,-3.098312,4
2024-06-14 12:39:27.854,36.26,418.74,101.71,1.976888,0.885232,-2.9153119999999997,4
2024-06-14 12:39:27.859,45.43,406.7,89.6,2.084248,0.9433039999999999,-2.750368,4
2024-06-14 12:39:27.864,36.05,395.08,79.24,2.2701759999999997,1.079456,-2.597136,4
2024-06-14 12:39:27.869,8.19,379.33,66.78,2.560536,1.0535919999999999,-2.35216,4
2024-06-14 12:39:27.874,-13.51,363.72,33.74,2.821616,1.0126,-2.061312,4
2024-06-14 12:39:27.879,-28.42,345.52,9.87,3.038776,1.067256,-1.84952,4
2024-06-14 12:39:27.883,-39.55,324.52,-16.1,3.3052239999999995,1.057008,-1.700192,4
2024-06-14 12:39:27.888,-48.86,299.67,-44.87,3.5980239999999997,0.9882,-1.5440319999999998,4
2024-06-14 12:39:27.893,-58.59,272.37,-74.2,3.9098559999999996,0.85156,-1.3864079999999999,4
2024-06-14 12:39:27.898,-71.12,243.88,-102.83,4.242672,0.657336,-1.265872,4
2024-06-14 12:39:27.903,-85.75,214.48,-129.01,4.567192,0.43676,-1.1946240000000001,4
2024-06-14 12:39:27.908,-98.07,181.16,-151.69,4.825832,0.19276,-1.177056,4
2024-06-14 12:39:27.913,-101.22,143.43,-169.19,4.910743999999999,-0.044896,-1.1546079999999999,4
2024-06-14 12:39:27.917,-91.21,98.91,-181.3,4.808264,-0.244976,-1.12972,4
2024-06-14 12:39:27.922,-66.92,49.63,-187.6,4.55792,-0.387472,-1.092144,4
2024-06-14 12:39:27.927,-34.23,-2.73,-188.44,4.227055999999999,-0.46994400000000003,-1.079944,4
2024-06-14 12:39:27.932,1.19,-55.86,-183.89,3.8503199999999995,-0.482632,-1.111664,4
2024-06-14 12:39:27.937,34.51,-107.03,-174.23,3.458944,-0.433344,-1.208776,4
2024-06-14 12:39:27.942,52.36,-139.44,-158.13,3.06708,-0.40748,-1.375672,4
2024-06-14 12:39:27.946,73.78,-168.56,-133.14,2.733288,-0.38552,-1.487424,4
2024-06-14 12:39:27.951,94.71,-186.76,-99.89,2.4043759999999996,-0.288408,-1.51524,4
2024-06-14 12:39:27.956,27.3,-161.35,-71.82,0.5426559999999999,-1.5440319999999998,-10.480288,4
2024-06-14 12:39:27.961,129.64,-32.41,-41.23,-3.809328,-1.2214639999999999,7.596208,4
