time,gyroscope_x,gyroscope_y,gyroscope_z,accelerometer_x,accelerometer_y,accelerometer_z,phase
2024-06-14 10:34:49.094,193.62,-324.73,-17.71,6.571896,-0.33427999999999997,-4.139704,1
2024-06-14 10:34:49.099,177.17,-98.07,-29.12,-2.538576,0.003904,1.921744,1
2024-06-14 10:34:49.104,161.77,-167.51,-31.64,0.521184,0.07466400000000001,-2.1740399999999998,1
2024-06-14 10:34:49.108,116.41,-293.51,-12.95,-1.354688,-0.177632,-1.82024,1
2024-06-14 10:34:49.113,52.22,-359.94,14.35,-0.793,0.179096,-2.0378879999999997,1
2024-06-14 10:34:49.118,-24.15,-360.01,37.59,0.313784,0.188368,-1.939312,1
2024-06-14 10:34:49.123,-67.41,-367.43,59.08,1.005768,0.13419999999999999,-2.043744,1
2024-06-14 10:34:49.128,-98.7,-372.26,66.78,0.672952,-0.105408,-2.423408,1
2024-06-14 10:34:49.133,-92.05,-374.71,63.42,0.344528,-0.076128,-2.239432,1
2024-06-14 10:34:49.138,-71.05,-367.5,50.89,0.018056000000000003,-0.38356799999999996,-2.42048,1
2024-06-14 10:34:49.142,-51.31,-333.2,33.25,0.208864,-0.39039999999999997,-2.9953440000000002,1
2024-06-14 10:34:49.147,-39.69,-264.53,15.33,0.25717599999999996,-0.17079999999999998,-2.2911599999999996,1
2024-06-14 10:34:49.152,-26.6,-248.22,6.93,0.26352,-0.00244,-2.289208,1
2024-06-14 10:34:49.157,-9.66,-227.01,3.85,0.23668,0.055632,-1.9061279999999998,1
2024-06-14 10:34:49.162,0.07,-193.55,4.2,0.16494399999999998,0.10492,-1.51036,1
2024-06-14 10:34:49.167,15.75,-149.59,10.5,0.12736799999999998,0.089792,-1.414712,1
2024-06-14 10:34:49.171,7.28,-74.55,14.42,0.159576,0.00244,-1.316624,1
2024-06-14 10:34:49.176,-4.13,-37.87,11.62,0.054655999999999996,-0.02928,-1.162416,1
2024-06-14 10:34:49.181,-5.25,-11.76,4.9,0.07564,-0.040992,-1.117032,1
2024-06-14 10:34:49.186,0.07,3.57,0.21,0.073688,-0.006344,-1.06384,1
2024-06-14 10:34:49.191,0.77,2.24,-0.84,0.09711199999999999,0.037576,-1.060912,2
2024-06-14 10:34:49.196,2.87,0.56,3.92,0.12834399999999999,0.045384,-1.0574959999999998,2
2024-06-14 10:34:49.201,3.29,-3.64,3.5,0.040504,-0.027816,-1.04188,2
2024-06-14 10:34:49.205,1.61,-2.1,1.82,0.012199999999999999,-0.036112000000000005,-1.012112,2
2024-06-14 10:34:49.210,0.0,-1.54,0.56,0.013663999999999999,-0.040015999999999996,-1.013088,2
2024-06-14 10:34:49.215,-0.63,-2.8,-1.19,0.016592,-0.003904,-1.024312,2
2024-06-14 10:34:49.220,-1.12,-4.9,-1.61,-0.000488,-0.005368,-1.020408,2
2024-06-14 10:34:49.225,-1.82,-6.44,-1.61,-0.005368,0.002928,-1.011624,2
2024-06-14 10:34:49.230,-1.82,-6.51,-1.61,-0.015128,-0.00244,-1.0145520000000001,2
2024-06-14 10:34:49.234,-2.1,-8.33,-1.54,-0.017079999999999998,-0.006344,-1.01504,2
2024-06-14 10:34:49.239,-2.59,-10.5,-1.61,-0.016104,-0.008296,-1.01504,2
2024-06-14 10:34:49.244,-3.08,-13.58,-1.75,-0.020007999999999998,-0.00976,-1.012112,2
2024-06-14 10:34:49.249,-3.43,-16.31,-1.82,-0.017567999999999997,-0.006344,-1.0091839999999999,2
2024-06-14 10:34:49.254,-3.85,-17.29,-1.61,-0.014152,-0.002928,-1.008696,2
2024-06-14 10:34:49.259,-4.2,-17.92,-1.26,-0.01464,-0.00488,-1.0126,2
2024-06-14 10:34:49.264,-3.22,-13.51,-1.47,-0.012688,-0.001952,-1.008696,2
2024-06-14 10:34:49.268,-4.48,-18.55,-1.68,-0.017567999999999997,-0.000976,-1.008696,2
2024-06-14 10:34:49.273,-4.62,-18.27,-1.82,-0.010248,0.004391999999999999,-1.00772,2
2024-06-14 10:34:49.278,-2.1,-16.66,-1.19,-0.010736,0.004391999999999999,-1.008208,2
2024-06-14 10:34:49.283,-1.96,-19.74,-0.91,-0.003904,0.002928,-1.00528,2
2024-06-14 10:34:49.288,-1.05,-18.41,-1.12,-0.008783999999999998,0.000488,-1.00284,2
2024-06-14 10:34:49.293,-0.42,-19.95,-1.19,-0.00488,0.008296,-1.001376,2
2024-06-14 10:34:49.297,-1.12,-15.82,-1.12,-0.00488,0.009272,-1.007232,2
2024-06-14 10:34:49.302,-1.19,-16.94,-0.84,-0.0034159999999999998,0.000976,-0.9969839999999999,2
2024-06-14 10:34:49.307,-1.19,-16.31,-1.05,0.0,0.005368,-1.006256,2
2024-06-14 10:34:49.312,1.96,-13.93,-1.33,-0.005856,0.005856,-0.994544,2
2024-06-14 10:34:49.317,-0.56,-11.69,-2.03,0.001464,0.006344,-1.0004,2
2024-06-14 10:34:49.322,0.35,-17.15,-0.98,0.007808,0.009272,-0.997472,2
2024-06-14 10:34:49.327,-0.07,-12.88,0.0,0.010248,0.008783999999999998,-0.997472,2
2024-06-14 10:34:49.331,-0.07,-8.19,-1.05,0.008783999999999998,0.011224,-0.9969839999999999,2
2024-06-14 10:34:49.336,-1.47,-12.25,-2.45,0.010736,0.011224,-0.9960079999999999,2
2024-06-14 10:34:49.341,-1.61,-12.95,-2.24,0.011224,0.006344,-1.001864,2
2024-06-14 10:34:49.346,-1.33,-15.96,-1.19,0.013663999999999999,0.008296,-0.997472,2
2024-06-14 10:34:49.351,-1.82,-17.08,-1.26,0.013663999999999999,0.015128,-0.999424,2
2024-06-14 10:34:49.356,3.22,-19.11,-1.96,0.015616,0.011712,-0.999424,2
2024-06-14 10:34:49.360,-0.35,-15.89,-2.52,0.02196,0.006344,-0.999424,2
2024-06-14 10:34:49.365,-1.89,-16.31,-1.89,0.020496,0.007808,-1.001376,2
2024-06-14 10:34:49.370,0.63,-16.8,-1.26,0.026352,0.00732,-1.0047920000000001,2
2024-06-14 10:34:49.375,1.75,-17.01,-1.82,0.023424,0.010248,-1.005768,2
2024-06-14 10:34:49.380,4.55,-16.59,-2.24,0.024399999999999998,0.010736,-0.99308,2
2024-06-14 10:34:49.385,3.43,-16.38,-2.24,0.03172,0.00732,-0.99308,2
2024-06-14 10:34:49.390,4.34,-15.05,-1.82,0.043432000000000005,0.013663999999999999,-0.992592,2
2024-06-14 10:34:49.394,4.9,-13.65,-2.45,0.014152,0.027327999999999998,-0.989664,2
2024-06-14 10:34:49.399,6.44,-13.37,-3.43,0.033184,0.0068319999999999995,-0.992592,2
2024-06-14 10:34:49.404,6.65,-12.18,-3.29,0.039528,-0.011712,-0.9940559999999999,2
2024-06-14 10:34:49.409,7.56,-11.69,-2.73,0.037576,-0.00244,-0.9960079999999999,2
2024-06-14 10:34:49.414,6.44,-10.22,-2.31,0.03904,0.000488,-0.992592,2
2024-06-14 10:34:49.419,5.95,-8.26,-2.73,0.041479999999999996,0.002928,-0.9916159999999999,2
2024-06-14 10:34:49.423,6.23,-6.09,-3.01,0.042455999999999994,0.001464,-0.992592,2
2024-06-14 10:34:49.428,5.88,-4.76,-3.01,0.042455999999999994,-0.003904,-0.9950319999999999,2
2024-06-14 10:34:49.433,5.67,-3.57,-2.8,0.04392,-0.005856,-1.000888,2
2024-06-14 10:34:49.438,4.97,-3.08,-2.66,0.041968,-0.009272,-0.999424,2
2024-06-14 10:34:49.443,4.83,-3.5,-2.66,0.040015999999999996,-0.00488,-1.00772,2
2024-06-14 10:34:49.448,4.97,-4.97,-2.73,0.035624,0.000976,-1.013576,2
2024-06-14 10:34:49.453,5.88,-7.7,-2.66,0.03172,0.004391999999999999,-1.022848,2
2024-06-14 10:34:49.457,7.21,-11.55,-2.8,0.030256,0.020496,-1.029192,2
2024-06-14 10:34:49.462,8.47,-17.15,-2.8,0.024887999999999997,0.020984,-1.0365119999999999,2
2024-06-14 10:34:49.467,10.15,-22.26,-3.22,0.025376,0.019032,-1.042368,2
2024-06-14 10:34:49.472,11.13,-27.86,-3.57,0.034648,0.013663999999999999,-1.042856,2
2024-06-14 10:34:49.477,9.8,-33.32,-3.64,0.036112000000000005,0.023912,-1.053104,2
2024-06-14 10:34:49.482,11.13,-37.38,-4.48,0.028791999999999998,0.027327999999999998,-1.057008,2
2024-06-14 10:34:49.486,11.69,-40.88,-5.32,0.032208,0.042944,-1.060912,2
2024-06-14 10:34:49.491,15.54,-43.68,-5.81,0.038552,0.059536,-1.133136,2
2024-06-14 10:34:49.496,34.65,-44.24,-6.09,0.040015999999999996,0.0732,-1.1448479999999999,2
2024-06-14 10:34:49.501,36.05,-45.5,-7.63,0.057583999999999996,0.006344,-1.111664,2
2024-06-14 10:34:49.506,20.79,-44.94,-9.52,0.052216,0.027816,-1.118496,2
2024-06-14 10:34:49.511,11.13,-39.34,-11.76,0.06539199999999999,0.10248,-1.2043840000000001,2
2024-06-14 10:34:49.516,5.88,-37.87,-13.16,0.081496,-0.011712,-1.324432,2
2024-06-14 10:34:49.520,3.71,-42.28,-13.16,0.0732,-0.037088,-1.360544,2
2024-06-14 10:34:49.525,-1.12,-46.9,-11.76,0.06831999999999999,-0.185928,-1.539152,2
2024-06-14 10:34:49.530,-2.03,-61.6,-9.17,0.059536,-0.108336,-1.49572,2
2024-06-14 10:34:49.535,-2.38,-66.71,-7.14,0.07027199999999999,-0.088816,-1.3542,2
2024-06-14 10:34:49.540,-9.45,-73.43,-6.23,0.073688,-0.06588,-1.487424,3
2024-06-14 10:34:49.545,-10.01,-81.83,-5.18,0.05856,-0.074176,-1.50304,3
2024-06-14 10:34:49.549,-13.37,-92.75,-4.27,0.046848,-0.08003199999999999,-1.533296,3
2024-06-14 10:34:49.554,-18.41,-104.44,-3.22,0.07027199999999999,-0.098088,-1.532808,3
2024-06-14 10:34:49.559,-19.6,-112.21,-1.82,0.060512,-0.093696,-1.49572,3
2024-06-14 10:34:49.564,-29.4,-123.13,-0.84,0.055632,-0.13176,-1.4923039999999999,3
2024-06-14 10:34:49.569,-34.93,-134.61,0.84,0.057095999999999994,-0.14884,-1.5240239999999998,3
2024-06-14 10:34:49.574,-39.55,-146.65,2.45,0.044408,-0.087352,-1.531344,3
2024-06-14 10:34:49.579,-50.89,-159.74,3.01,0.077104,-0.119072,-1.62748,3
2024-06-14 10:34:49.583,-47.25,-175.0,3.57,0.058072,-0.013663999999999999,-1.4747359999999998,3
2024-06-14 10:34:49.588,-58.52,-187.46,2.59,0.02684,-0.05368,-1.5049919999999999,3
2024-06-14 10:34:49.593,-66.08,-204.26,2.8,0.043432000000000005,-0.14152,-1.630896,3
2024-06-14 10:34:49.598,-67.13,-225.54,4.55,0.040992,-0.130296,-1.6772559999999999,3
2024-06-14 10:34:49.603,-73.01,-245.0,5.04,0.0366,-0.079056,-1.737768,3
2024-06-14 10:34:49.608,-82.32,-264.39,5.25,0.013176,-0.07027199999999999,-1.94956,3
2024-06-14 10:34:49.612,-82.88,-287.35,4.9,0.005368,-0.02684,-2.013976,3
2024-06-14 10:34:49.617,-90.51,-308.35,5.25,0.020496,-0.18544,-2.279936,3
2024-06-14 10:34:49.622,-92.61,-328.09,8.47,0.024887999999999997,-0.25132,-2.395104,3
2024-06-14 10:34:49.627,-96.88,-349.44,11.2,0.012199999999999999,-0.10003999999999999,-2.456592,3
2024-06-14 10:34:49.632,-108.01,-369.6,11.55,0.009272,-0.03172,-2.4848959999999995,3
2024-06-14 10:34:49.637,-119.7,-389.34,11.34,-0.026352,-0.044896,-2.590304,3
2024-06-14 10:34:49.642,-128.87,-413.98,11.27,-0.041479999999999996,-0.026352,-2.78648,3
2024-06-14 10:34:49.646,-141.89,-435.19,10.01,-0.091744,0.13322399999999998,-2.920192,3
2024-06-14 10:34:49.651,-155.96,-458.01,6.58,-0.07222400000000001,0.07027199999999999,-3.21348,3
2024-06-14 10:34:49.656,-165.27,-479.99,5.04,-0.06831999999999999,-0.058072,-3.486272,3
2024-06-14 10:34:49.661,-161.98,-501.34,4.76,0.048799999999999996,-0.22594399999999998,-3.7180720000000003,3
2024-06-14 10:34:49.666,-150.71,-522.62,7.63,0.063928,-0.244,-3.7893199999999996,3
2024-06-14 10:34:49.671,-151.76,-532.84,8.33,0.00244,-0.219112,-3.974272,3
2024-06-14 10:34:49.675,-135.38,-543.69,8.12,-0.071248,-0.550952,-4.137752,3
2024-06-14 10:34:49.680,-104.23,-544.04,14.0,-0.18544,-0.333792,-4.1602,3
2024-06-14 10:34:49.685,-86.73,-533.61,13.3,-0.70028,0.040992,-3.78688,3
2024-06-14 10:34:49.690,-85.19,-520.24,8.54,-1.1619279999999998,0.19276,-3.5570319999999995,3
2024-06-14 10:34:49.695,-83.58,-504.28,-0.84,-1.631872,-0.030744,-3.187616,3
2024-06-14 10:34:49.700,-109.13,-502.25,-11.83,-2.5986,0.39088799999999996,-3.1705360000000002,3
2024-06-14 10:34:49.713,-110.25,-521.22,-20.86,-3.048536,0.354288,-2.7196239999999996,3
2024-06-14 10:34:49.717,-85.75,-544.18,-33.81,-3.4750479999999997,0.28694400000000003,-0.837408,3
2024-06-14 10:34:49.722,-110.53,-510.79,-55.86,-3.9284,-0.042455999999999994,0.9389120000000001,4
2024-06-14 10:34:49.727,-56.49,-432.95,-91.84,-2.5097840000000002,0.12395199999999999,0.957456,4
2024-06-14 10:34:49.732,17.92,-206.85,-82.32,-1.640656,0.32452,-3.05976,4
2024-06-14 10:34:49.737,20.79,-194.25,-68.88,-2.0559439999999998,-0.049775999999999994,-2.197952,4
2024-06-14 10:34:49.741,38.5,-76.16,-40.46,-2.9728959999999995,-0.136152,-1.079456,4
2024-06-14 10:34:49.746,48.86,25.97,-23.45,-2.924096,-0.008783999999999998,-1.365912,4
2024-06-14 10:34:49.751,63.56,88.13,-17.92,-2.3497199999999996,-0.022448,-1.424472,4
2024-06-14 10:34:49.756,70.84,119.42,-15.68,-2.03984,0.01952,-1.210728,4
2024-06-14 10:34:49.761,86.17,132.51,-15.05,-1.9451679999999998,0.10248,-1.0360239999999998,4
2024-06-14 10:34:49.765,92.82,137.76,-19.46,-1.809504,0.126392,-0.9437920000000001,4
2024-06-14 10:34:49.770,93.31,140.84,-26.46,-1.627968,0.124928,-0.855952,4
2024-06-14 10:34:49.775,91.0,145.39,-33.18,-1.51524,0.106872,-0.782264,4
2024-06-14 10:34:49.780,84.14,154.07,-38.71,-1.480592,0.061975999999999996,-0.693448,4
2024-06-14 10:34:49.785,75.18,168.42,-42.63,-1.4571679999999998,-0.00488,-0.6222,4
2024-06-14 10:34:49.789,67.06,187.74,-44.52,-1.414712,-0.095648,-0.584136,4
2024-06-14 10:34:49.794,65.03,209.23,-44.52,-1.350296,-0.186904,-0.575352,4
2024-06-14 10:34:49.799,67.97,231.7,-43.47,-1.274656,-0.250832,-0.574864,4
2024-06-14 10:34:49.804,75.46,254.45,-42.35,-1.1843759999999999,-0.32744799999999996,-0.632936,4
2024-06-14 10:34:49.809,81.06,277.34,-40.46,-1.089704,-0.304512,-0.657824,4
2024-06-14 10:34:49.814,93.1,298.34,-38.78,-0.99796,-0.293288,-0.718336,4
2024-06-14 10:34:49.818,103.6,317.73,-38.5,-0.909632,-0.27376799999999996,-0.819352,4
2024-06-14 10:34:49.823,111.72,336.14,-39.83,-0.8091039999999999,-0.223992,-0.903288,4
2024-06-14 10:34:49.828,117.32,352.87,-42.35,-0.715896,-0.171776,-0.9989359999999999,4
2024-06-14 10:34:49.833,120.75,366.94,-45.36,-0.6212239999999999,-0.122976,-1.070672,4
2024-06-14 10:34:49.838,122.99,379.05,-48.16,-0.5426559999999999,-0.087352,-1.123864,4
2024-06-14 10:34:49.842,122.43,389.9,-51.17,-0.479704,-0.044408,-1.169248,4
2024-06-14 10:34:49.847,120.47,398.37,-54.25,-0.41577600000000003,-0.00244,-1.22244,4
2024-06-14 10:34:49.852,117.88,405.02,-57.26,-0.35624,0.026352,-1.277096,4
2024-06-14 10:34:49.857,115.08,409.71,-59.43,-0.298168,0.059536,-1.340048,4
2024-06-14 10:34:49.862,111.79,414.26,-60.9,-0.235216,0.08784,-1.402512,4
2024-06-14 10:34:49.866,107.52,417.27,-61.6,-0.171288,0.10736,-1.458144,4
2024-06-14 10:34:49.871,102.2,419.79,-61.04,-0.11467999999999999,0.132736,-1.510848,4
2024-06-14 10:34:49.876,95.9,420.49,-59.01,-0.068808,0.159576,-1.5650160000000002,4
2024-06-14 10:34:49.881,88.48,419.37,-56.0,-0.022936,0.196176,-1.63968,4
2024-06-14 10:34:49.886,78.96,416.64,-52.29,0.0366,0.22350399999999998,-1.6972639999999999,4
2024-06-14 10:34:49.890,68.81,411.88,-47.53,0.095648,0.252784,-1.7563119999999999,4
2024-06-14 10:34:49.895,59.64,405.72,-41.51,0.15372,0.27376799999999996,-1.804624,4
2024-06-14 10:34:49.900,50.4,397.39,-34.44,0.203496,0.303048,-1.8866079999999998,4
2024-06-14 10:34:49.905,39.62,388.5,-26.95,0.23179999999999998,0.324032,-1.938824,4
2024-06-14 10:34:49.910,29.4,379.75,-18.83,0.251808,0.325496,-1.96664,4
2024-06-14 10:34:49.915,19.67,371.49,-10.5,0.27571999999999997,0.331352,-2.021784,4
2024-06-14 10:34:49.919,9.73,364.07,-2.03,0.305976,0.330376,-2.079368,4
2024-06-14 10:34:49.924,-0.07,356.44,6.65,0.349408,0.310856,-2.137928,4
2024-06-14 10:34:49.929,-9.17,348.74,15.47,0.385032,0.304512,-2.167208,4
2024-06-14 10:34:49.934,-18.69,340.76,23.59,0.411384,0.30109600000000003,-2.201368,4
2024-06-14 10:34:49.939,-31.01,333.06,30.66,0.449936,0.28694400000000003,-2.2325999999999997,4
2024-06-14 10:34:49.943,-46.55,325.78,36.4,0.49044,0.27376799999999996,-2.2565120000000003,4
2024-06-14 10:34:49.948,-62.02,319.27,41.02,0.530456,0.238144,-2.2652959999999998,4
2024-06-14 10:34:49.953,-76.44,314.72,45.01,0.574376,0.170312,-2.279448,4
2024-06-14 10:34:49.958,-86.17,312.62,49.21,0.6070720000000001,0.081008,-2.29848,4
2024-06-14 10:34:49.963,-88.06,313.25,53.9,0.632936,-0.017079999999999998,-2.294088,4
2024-06-14 10:34:49.967,-81.69,316.82,58.59,0.65392,-0.09467199999999999,-2.292136,4
2024-06-14 10:34:49.972,-68.67,321.44,62.86,0.678808,-0.14444800000000002,-2.308728,4
2024-06-14 10:34:49.977,-51.66,325.85,66.43,0.71004,-0.1586,-2.328248,4
2024-06-14 10:34:49.982,-33.88,329.35,68.53,0.7422479999999999,-0.14103200000000002,-2.342888,4
2024-06-14 10:34:49.987,-18.13,332.22,68.95,0.7817759999999999,-0.093208,-2.3482559999999997,4
2024-06-14 10:34:49.992,-5.67,334.46,66.92,0.8418,-0.032208,-2.3458159999999997,4
2024-06-14 10:34:49.996,3.08,336.35,62.58,0.930616,0.041968,-2.345328,4
2024-06-14 10:34:50.001,8.68,336.91,56.0,1.03456,0.121024,-2.35704,4
2024-06-14 10:34:50.006,11.55,335.44,47.74,1.1721759999999999,0.197152,-2.37412,4
2024-06-14 10:34:50.011,12.11,331.38,38.01,1.334192,0.279624,-2.399008,4
2024-06-14 10:34:50.016,10.92,324.8,27.09,1.511824,0.35233600000000004,-2.411696,4
2024-06-14 10:34:50.020,8.26,317.59,15.68,1.700192,0.411384,-2.386808,4
2024-06-14 10:34:50.025,5.53,310.73,15.4,1.7977919999999998,0.683688,-2.3331280000000003,4
2024-06-14 10:34:50.030,-2.45,301.91,-3.22,2.21796,0.42456,-2.274568,4
2024-06-14 10:34:50.035,-6.51,292.81,-21.28,2.45708,0.499224,-2.175504,4
2024-06-14 10:34:50.040,-15.68,281.47,-34.09,2.78404,0.501664,-2.077904,4
2024-06-14 10:34:50.044,-26.74,268.38,-45.36,3.15248,0.465064,-1.950536,4
2024-06-14 10:34:50.049,-39.41,251.23,-54.74,3.5375119999999995,0.387472,-1.845616,4
2024-06-14 10:34:50.054,-52.99,230.23,-61.6,3.9435279999999997,0.254248,-1.7324,4
2024-06-14 10:34:50.059,-64.26,204.47,-64.89,4.3212399999999995,0.079056,-1.62992,4
2024-06-14 10:34:50.064,-68.81,171.22,-63.63,4.607208,-0.093208,-1.565992,4
2024-06-14 10:34:50.068,-63.7,129.57,-58.38,4.771176,-0.240584,-1.518656,4
2024-06-14 10:34:50.073,-46.76,83.23,-50.96,4.791184,-0.348432,-1.401048,4
2024-06-14 10:34:50.078,-19.95,35.14,-42.98,4.590616,-0.368928,-1.328336,4
2024-06-14 10:34:50.083,13.02,-11.27,-36.54,4.2748800000000005,-0.29524,-1.301984,0
2024-06-14 10:34:50.088,42.98,-50.26,-32.9,3.9069279999999997,-0.120536,-1.2312239999999999,0
2024-06-14 10:34:50.093,67.69,-80.43,-31.15,3.523848,0.073688,-1.3200399999999999,0
2024-06-14 10:34:50.097,1.75,-227.85,-36.54,5.391424,0.630496,-5.11424,0
2024-06-14 10:34:50.102,160.58,-239.82,-50.54,4.696024,-0.07222400000000001,4.264632,0
