time,gyroscope_x,gyroscope_y,gyroscope_z,accelerometer_x,accelerometer_y,accelerometer_z,phase
2024-06-14 11:36:01.554,250.18,-325.605,-80.99000000000001,7.212152,-2.304824,-1.310768,1
2024-06-14 11:36:01.559,333.235,-378.66499999999996,-76.265,4.5018,-0.3843,-0.3484320000000001,1
2024-06-14 11:36:01.564,392.805,-409.885,-79.275,-0.13054,0.101504,-0.09881999999999996,1
2024-06-14 11:36:01.569,432.91499999999996,-392.7,-61.495,0.9359839999999999,0.33915999999999996,-2.04106,1
2024-06-14 11:36:01.573,280.315,-368.58500000000004,-33.879999999999995,0.034892000000000006,-0.345748,-2.2204,1
2024-06-14 11:36:01.578,185.04500000000002,-366.41499999999996,12.985000000000001,-0.8125199999999999,0.333548,-2.527108,1
2024-06-14 11:36:01.583,130.48000000000002,-386.29499999999996,50.015,-0.8662000000000001,0.615124,-1.870504,1
2024-06-14 11:36:01.588,90.33500000000001,-408.03,73.605,-0.06758800000000001,0.16518799999999997,-2.186972,1
2024-06-14 11:36:01.593,82.53,-395.185,88.83,0.23741199999999998,-0.277184,-3.3837920000000006,1
2024-06-14 11:36:01.598,72.835,-314.09000000000003,86.1,0.929884,-1.090436,-3.5382439999999997,1
2024-06-14 11:36:01.602,33.495,-260.015,62.370000000000005,0.43724799999999997,-0.703208,-2.639836,1
2024-06-14 11:36:01.607,29.645,-222.075,53.480000000000004,0.47018799999999994,-0.19349199999999997,-2.44244,1
2024-06-14 11:36:01.612,12.81,-187.67000000000002,50.365,0.25742,-0.29158,-1.9903080000000002,1
2024-06-14 11:36:01.617,34.02,-106.92500000000001,38.185,0.368928,-0.62952,-2.9140919999999997,1
2024-06-14 11:36:01.622,17.325000000000003,-43.47,10.29,0.011711999999999993,-0.134444,-1.685308,1
2024-06-14 11:36:01.627,21.490000000000002,-17.43,7.84,0.137128,0.15372,-1.314428,1
2024-06-14 11:36:01.632,18.515,-22.155,16.415,0.113216,-0.028059999999999995,-1.2795359999999998,1
2024-06-14 11:36:01.636,19.32,-25.235,15.295,0.24448799999999998,0.073932,-1.24196,1
2024-06-14 11:36:01.641,18.27,-26.845,21.035,0.14249599999999998,0.046116,-1.079456,1
2024-06-14 11:36:01.646,17.5,-14.875,21.28,0.11345999999999999,-0.070516,-1.030168,1
2024-06-14 11:36:01.651,20.37,-2.135,15.295,0.08003199999999999,-0.026596,-0.948672,2
2024-06-14 11:36:01.656,24.85,4.9,6.265000000000001,0.079788,-0.014395999999999999,-0.983808,2
2024-06-14 11:36:01.661,28.525,7.245,0.175,0.048555999999999995,-0.041968000000000005,-1.00406,2
2024-06-14 11:36:01.665,26.075000000000003,7.035,1.1199999999999999,-0.0014639999999999998,-0.061,-1.012112,2
2024-06-14 11:36:01.670,25.445,6.4399999999999995,3.36,0.013908,-0.03782,-1.045784,2
2024-06-14 11:36:01.675,25.48,3.57,3.8150000000000004,0.008296,0.014395999999999999,-1.129964,2
2024-06-14 11:36:01.680,25.375,-1.8900000000000001,3.115,-0.032208,-0.053436000000000004,-1.153388,2
2024-06-14 11:36:01.685,21.490000000000002,-8.015,2.275,-0.091988,-0.099552,-1.102636,2
2024-06-14 11:36:01.690,17.5,-11.515,2.31,-0.098576,-0.071736,-1.0777480000000002,2
2024-06-14 11:36:01.695,15.015,-14.91,2.03,-0.073444,-0.045871999999999996,-1.085312,2
2024-06-14 11:36:01.699,13.684999999999999,-18.549999999999997,1.6099999999999999,-0.076372,-0.034892,-1.079212,2
2024-06-14 11:36:01.704,13.125,-22.189999999999998,1.225,-0.090524,-0.0427,-1.057496,2
2024-06-14 11:36:01.709,12.985,-25.13,0.77,-0.07197999999999999,-0.044896,-1.053592,2
2024-06-14 11:36:01.714,10.99,-28.42,0.595,-0.043432,-0.08174000000000001,-1.057984,2
2024-06-14 11:36:01.719,6.86,-31.955,0.8049999999999999,-0.032208,-0.101748,-1.054568,2
2024-06-14 11:36:01.724,2.45,-35.42,0.945,-0.054412,-0.094428,-1.053836,2
2024-06-14 11:36:01.728,-0.98,-38.43,0.735,-0.083204,-0.078568,-1.0643280000000002,2
2024-06-14 11:36:01.733,-2.625,-42.035,0.315,-0.08613200000000001,-0.041724,-1.093608,2
2024-06-14 11:36:01.738,-2.59,-47.32,-0.49,-0.070272,-0.015371999999999999,-1.114348,2
2024-06-14 11:36:01.743,-1.82,-52.150000000000006,-1.33,-0.06295200000000001,-0.01464,-1.102392,2
2024-06-14 11:36:01.748,-1.435,-53.864999999999995,-1.855,-0.053436,-0.03782,-1.0606680000000002,2
2024-06-14 11:36:01.753,-2.205,-53.2,-1.785,-0.033672,-0.075152,-1.0340719999999999,2
2024-06-14 11:36:01.758,-4.0600000000000005,-52.08,-1.5750000000000002,-0.022935999999999998,-0.091988,-1.029436,2
2024-06-14 11:36:01.762,-6.79,-51.17,-1.3650000000000002,-0.017079999999999998,-0.092476,-1.0372439999999998,2
2024-06-14 11:36:01.767,-13.405000000000001,-48.44,-1.47,-0.011224000000000001,-0.071736,-1.04676,2
2024-06-14 11:36:01.772,-11.9,-50.295,-0.98,-0.00976,-0.06197599999999999,-1.042612,2
2024-06-14 11:36:01.777,-12.285,-49.7,-0.31500000000000006,-0.011467999999999999,-0.051484,-1.037732,2
2024-06-14 11:36:01.782,-14.315,-51.379999999999995,-0.875,-0.014883999999999998,-0.05367999999999999,-1.0396839999999998,2
2024-06-14 11:36:01.787,-10.99,-53.06,-0.14,-0.006344,-0.04636,-1.033584,2
2024-06-14 11:36:01.791,-11.445,-52.78,-0.13999999999999999,0.00366,-0.040992,-1.03334,2
2024-06-14 11:36:01.796,-2.135,-58.834999999999994,0.42,0.007808,-0.041968000000000005,-1.0238239999999998,3
2024-06-14 11:36:01.801,-20.405,-60.06,-0.455,0.001708,-0.046848,-1.0252879999999998,3
2024-06-14 11:36:01.806,-6.755,-54.39,0.35,0.011712,-0.035868,-1.03212,3
2024-06-14 11:36:01.811,-11.445,-54.53,0.28,0.013176,-0.036112,-1.0311439999999998,3
2024-06-14 11:36:01.816,-9.135,-53.795,0.77,0.017568,-0.032451999999999995,-1.03456,3
2024-06-14 11:36:01.821,-9.100000000000001,-54.215,0.595,0.017812,-0.024156,-1.035536,3
2024-06-14 11:36:01.825,-9.345,-52.43,-0.035,0.027083999999999997,-0.020007999999999998,-1.042856,3
2024-06-14 11:36:01.830,-8.785,-53.55,-0.245,0.027084,-0.012199999999999999,-1.04188,3
2024-06-14 11:36:01.835,-9.065000000000001,-52.394999999999996,-0.14,0.030743999999999997,-0.034404,-1.0921439999999998,3
2024-06-14 11:36:01.840,-13.3,-49.245000000000005,-0.84,0.034404000000000004,-0.00732,-1.0531039999999998,3
2024-06-14 11:36:01.845,-13.79,-45.815,-1.505,0.032695999999999996,-0.011224000000000001,-1.046272,3
2024-06-14 11:36:01.850,-10.254999999999999,-45.955,-1.75,0.043188000000000004,-0.016104,-1.038708,3
2024-06-14 11:36:01.854,-9.66,-45.08,-1.75,0.04636,-0.024399999999999998,-1.0323639999999998,3
2024-06-14 11:36:01.859,-7.140000000000001,-44.1,-1.435,0.053436,-0.02684,-1.018944,3
2024-06-14 11:36:01.864,-6.859999999999999,-42.980000000000004,-1.6099999999999999,0.059536,-0.029036,-1.03212,3
2024-06-14 11:36:01.869,-6.65,-41.370000000000005,-1.26,0.06466,-0.038796,-1.032364,3
2024-06-14 11:36:01.874,-5.8100000000000005,-39.235,-0.56,0.072468,-0.039528,-1.026996,3
2024-06-14 11:36:01.879,-5.494999999999999,-37.835,0.17500000000000002,0.07295600000000001,-0.047336,-1.024556,3
2024-06-14 11:36:01.884,-3.1500000000000004,-36.19,0.525,0.07564,-0.050996,-1.0309,3
2024-06-14 11:36:01.888,2.59,-35.35,1.19,0.07564000000000001,-0.051239999999999994,-1.02602,3
2024-06-14 11:36:01.893,0.7,-34.055,1.015,0.073932,-0.040015999999999996,-1.0177239999999999,3
2024-06-14 11:36:01.898,0.10500000000000001,-32.269999999999996,1.155,0.083448,-0.03172,-1.010404,3
2024-06-14 11:36:01.903,-0.8400000000000001,-29.085,0.665,0.086132,-0.017079999999999998,-1.027972,3
2024-06-14 11:36:01.908,-1.505,-25.375,-0.245,0.081984,-0.015127999999999999,-1.0045479999999998,3
2024-06-14 11:36:01.913,0.245,-24.955,-0.665,0.083204,-0.008052,-0.998692,3
2024-06-14 11:36:01.917,1.75,-24.22,-1.0150000000000001,0.088816,-0.006587999999999998,-1.0006439999999999,3
2024-06-14 11:36:01.922,3.6049999999999995,-23.625,-1.4,0.09296399999999999,-0.009272,-0.9896639999999999,3
2024-06-14 11:36:01.927,4.970000000000001,-22.54,-1.89,0.094916,-0.00976,-0.98332,3
2024-06-14 11:36:01.932,6.125,-21.35,-2.2750000000000004,0.100772,-0.024888,-0.98088,3
2024-06-14 11:36:01.937,6.825,-19.810000000000002,-2.38,0.10394400000000001,-0.031231999999999996,-0.983564,3
2024-06-14 11:36:01.942,7.035,-18.34,-2.45,0.10394400000000001,-0.036599999999999994,-0.983564,3
2024-06-14 11:36:01.947,7.07,-16.275,-2.4850000000000003,0.112728,-0.03904,-0.977708,3
2024-06-14 11:36:01.951,7.07,-14.35,-2.38,0.10931199999999999,-0.036844,-0.9818559999999998,3
2024-06-14 11:36:01.956,6.545,-13.055,-2.52,0.10931199999999999,-0.045628,-0.9862479999999999,3
2024-06-14 11:36:01.961,6.404999999999999,-11.62,-2.345,0.107116,-0.050263999999999996,-0.9891759999999998,3
2024-06-14 11:36:01.966,5.705,-10.465,-2.24,0.110288,-0.051728,-0.999668,3
2024-06-14 11:36:01.971,5.075,-9.695,-2.17,0.10272400000000001,-0.049776,-1.0157720000000001,3
2024-06-14 11:36:01.976,4.725,-9.625,-2.1,0.102236,-0.041968000000000005,-1.0328519999999999,3
2024-06-14 11:36:01.980,4.865,-9.905,-1.96,0.097356,-0.034892,-1.036756,3
2024-06-14 11:36:01.985,5.285,-11.13,-2.135,0.090036,-0.028547999999999997,-1.056032,3
2024-06-14 11:36:01.990,6.265000000000001,-12.915,-2.17,0.09516,-0.028304,-1.062132,3
2024-06-14 11:36:01.995,6.859999999999999,-14.629999999999999,-2.31,0.096624,-0.030743999999999997,-1.073356,3
2024-06-14 11:36:02.000,7.5600000000000005,-17.045,-2.31,0.09833199999999999,-0.038064,-1.0882399999999999,3
2024-06-14 11:36:02.005,7.49,-19.215,-2.2750000000000004,0.09955199999999999,-0.043432,-1.099464,3
2024-06-14 11:36:02.010,6.965,-22.085,-1.995,0.099796,-0.044164,-1.1101999999999999,3
2024-06-14 11:36:02.014,5.985,-24.57,-1.995,0.101016,-0.048311999999999994,-1.123376,3
2024-06-14 11:36:02.019,5.32,-27.86,-1.715,0.100528,-0.047824,-1.134356,3
2024-06-14 11:36:02.024,4.795,-30.8,-1.575,0.10052799999999999,-0.04148,-1.147288,3
2024-06-14 11:36:02.032,3.92,-33.599999999999994,-1.5750000000000002,0.10589599999999999,-0.042456,-1.162172,3
2024-06-14 11:36:02.037,3.29,-37.135,-1.505,0.107604,-0.050264,-1.1880359999999999,3
2024-06-14 11:36:02.042,3.255,-40.81,-1.365,0.101748,-0.050264,-1.1904759999999999,3
2024-06-14 11:36:02.046,1.05,-43.82,-1.47,0.11516799999999999,-0.032696,-1.202188,3
2024-06-14 11:36:02.051,0.49,-47.915,-1.75,0.11223999999999999,-0.040992,-1.202188,3
2024-06-14 11:36:02.056,-0.315,-51.905,-1.61,0.11467999999999999,-0.053192,-1.2261000000000002,3
2024-06-14 11:36:02.061,-0.7,-56.735,-1.295,0.11760799999999999,-0.061488,-1.240252,3
2024-06-14 11:36:02.066,-1.785,-60.83,-0.735,0.11712,-0.07075999999999999,-1.254892,3
2024-06-14 11:36:02.070,-2.905,-69.965,0.27999999999999997,0.122,-0.078812,-1.280024,3
2024-06-14 11:36:02.075,-1.9249999999999998,-70.525,1.19,0.11102000000000001,-0.111996,-1.314184,3
2024-06-14 11:36:02.080,-0.28,-74.34,2.7649999999999997,0.11516799999999999,-0.092476,-1.337364,3
2024-06-14 11:36:02.085,-1.855,-81.19999999999999,3.5,0.126636,-0.054655999999999996,-1.340048,3
2024-06-14 11:36:02.090,-4.83,-86.275,3.7800000000000002,0.142496,-0.043432,-1.34688,3
2024-06-14 11:36:02.095,-6.51,-93.1,4.06,0.136396,-0.06124400000000001,-1.350296,3
2024-06-14 11:36:02.099,-9.345,-99.08500000000001,4.41,0.143472,-0.073932,-1.335412,3
2024-06-14 11:36:02.104,-11.935,-105.98,4.9350000000000005,0.13907999999999998,-0.091988,-1.345904,3
2024-06-14 11:36:02.109,-14.350000000000001,-112.035,5.495,0.142252,-0.08588799999999999,-1.39202,3
2024-06-14 11:36:02.114,-16.1,-118.61500000000001,5.81,0.141276,-0.075152,-1.4010479999999998,3
2024-06-14 11:36:02.119,-17.535,-127.33,5.915,0.138348,-0.03904,-1.433256,3
2024-06-14 11:36:02.123,-18.375,-137.935,5.32,0.13785999999999998,0.0036599999999999996,-1.48962,3
2024-06-14 11:36:02.128,-17.71,-150.46499999999997,4.235,0.137372,0.028059999999999995,-1.53964,3
2024-06-14 11:36:02.133,-16.59,-161.21,2.975,0.136396,0.066124,-1.5762399999999999,3
2024-06-14 11:36:02.138,-15.82,-173.985,0.595,0.141764,0.086864,-1.597468,3
2024-06-14 11:36:02.143,-14.14,-185.465,-1.8199999999999998,0.132004,0.007807999999999999,-1.735816,3
2024-06-14 11:36:02.148,-11.165,-199.95499999999998,-2.625,0.10736,0.032696,-1.668472,3
2024-06-14 11:36:02.152,-12.075,-215.32,-4.445,0.12102399999999999,0.04636,-1.729472,3
2024-06-14 11:36:02.157,-11.48,-232.155,-6.16,0.10125999999999999,0.056608,-1.8065759999999997,3
2024-06-14 11:36:02.162,-12.635,-248.115,-8.4,0.09174399999999999,0.07442,-1.86904,3
2024-06-14 11:36:02.167,-17.185000000000002,-265.44,-10.43,0.09223200000000001,0.06466,-1.911984,3
2024-06-14 11:36:02.172,-21.560000000000002,-283.01,-13.3,0.08662,0.10125999999999999,-2.02276,3
2024-06-14 11:36:02.176,-22.61,-302.96000000000004,-16.205000000000002,0.068808,0.119804,-2.229672,3
2024-06-14 11:36:02.181,-24.465,-323.645,-19.880000000000003,0.045384,0.198616,-2.275056,3
2024-06-14 11:36:02.186,-27.86,-344.89,-24.71,0.023667999999999998,0.23668,-2.35826,3
2024-06-14 11:36:02.191,-29.365000000000002,-368.27,-29.575,0.042456,0.192028,-2.5925,3
2024-06-14 11:36:02.196,-30.625,-388.64,-32.305,0.061487999999999994,0.12492799999999998,-2.7755,3
2024-06-14 11:36:02.201,-32.48,-412.3,-33.67,0.094428,0.126148,-2.925316,3
2024-06-14 11:36:02.205,-31.885,-433.895,-35.665,0.138348,0.11467999999999999,-3.064152,3
2024-06-14 11:36:02.210,-34.79,-451.57000000000005,-35.175,0.24448799999999998,0.111508,-3.3398719999999997,3
2024-06-14 11:36:02.215,-42.805,-466.025,-37.905,0.159088,0.425536,-3.3398719999999997,3
2024-06-14 11:36:02.220,-53.025000000000006,-479.53499999999997,-44.730000000000004,0.227408,0.493856,-3.162972,3
2024-06-14 11:36:02.225,-70.41999999999999,-487.865,-52.115,0.196176,0.449936,-3.416488,3
2024-06-14 11:36:02.230,-71.47,-495.565,-60.655,0.136396,0.30402399999999996,-3.412828,3
2024-06-14 11:36:02.234,-65.555,-506.69500000000005,-66.22,0.099064,0.052216,-3.597048,3
2024-06-14 11:36:02.239,-55.125,-517.1600000000001,-67.55000000000001,-0.034648,-0.020252,-3.63804,3
2024-06-14 11:36:02.244,-36.61,-521.745,-69.50999999999999,-0.19397999999999999,0.022691999999999997,-3.50384,3
2024-06-14 11:36:02.249,-11.865,-514.01,-73.22,-0.327448,0.007808,-3.2310479999999995,3
2024-06-14 11:36:02.254,15.434999999999999,-495.635,-74.235,-0.615368,-0.0046359999999999995,-3.053904,4
2024-06-14 11:36:02.258,37.834999999999994,-472.395,-74.41,-0.9667279999999999,0.031476000000000004,-2.6249519999999995,4
2024-06-14 11:36:02.263,58.625,-444.5,-74.86500000000001,-1.443504,0.13541999999999998,-2.2179599999999997,4
2024-06-14 11:36:02.268,79.44999999999999,-428.155,-75.81,-1.6857959999999999,0.36185199999999995,-2.114992,4
2024-06-14 11:36:02.273,93.38,-421.085,-81.62,-1.925892,0.53436,-1.9693239999999999,4
2024-06-14 11:36:02.278,106.19,-412.195,-93.625,-2.057164,0.785924,-0.8940159999999999,4
2024-06-14 11:36:02.283,104.265,-393.71500000000003,-106.96000000000001,-1.42496,1.01626,0.15713599999999997,4
2024-06-14 11:36:02.287,100.695,-401.38,-112.14,-0.39771999999999996,1.2056040000000001,-0.20691199999999998,4
2024-06-14 11:36:02.292,55.79,-337.575,-123.51499999999999,-0.268644,1.294908,-1.66286,4
2024-06-14 11:36:02.297,-25.165,-247.38,-144.89999999999998,-0.83326,1.5291479999999997,-1.759728,4
2024-06-14 11:36:02.302,-95.75999999999999,-164.22,-164.605,-1.5813640000000002,1.184132,-1.135332,4
2024-06-14 11:36:02.307,-134.12,-75.67,-168.35000000000002,-1.876604,0.48775599999999997,-0.6971080000000001,4
2024-06-14 11:36:02.311,-136.5,7.734999999999999,-156.59,-1.656028,0.030744,-0.5997520000000001,4
2024-06-14 11:36:02.316,-106.015,67.34,-135.38,-1.2688000000000001,-0.247904,-0.756156,4
2024-06-14 11:36:02.321,-58.099999999999994,107.31,-109.76,-1.0152839999999999,-0.433832,-0.93696,4
2024-06-14 11:36:02.326,-8.819999999999999,131.915,-82.53,-0.9089,-0.561688,-0.93818,4
2024-06-14 11:36:02.331,34.3,143.675,-53.864999999999995,-0.846436,-0.588284,-0.817156,4
2024-06-14 11:36:02.336,67.725,148.32999999999998,-26.18,-0.7807999999999999,-0.47775199999999995,-0.727608,4
2024-06-14 11:36:02.340,90.405,150.465,-2.3449999999999998,-0.7085759999999999,-0.31890799999999997,-0.653188,4
2024-06-14 11:36:02.345,103.81,150.92,17.57,-0.6439159999999999,-0.18202400000000002,-0.5873079999999999,4
2024-06-14 11:36:02.350,110.6,152.18,34.895,-0.6075599999999999,-0.07661599999999999,-0.523868,4
2024-06-14 11:36:02.355,112.0,155.64499999999998,50.364999999999995,-0.608536,0.020984,-0.45774400000000004,4
2024-06-14 11:36:02.360,108.185,161.805,63.595,-0.629276,0.119316,-0.400404,4
2024-06-14 11:36:02.364,98.735,170.275,74.515,-0.650016,0.204472,-0.377712,4
2024-06-14 11:36:02.369,84.525,180.705,82.63499999999999,-0.6670959999999999,0.274988,-0.360388,4
2024-06-14 11:36:02.374,67.58500000000001,193.02499999999998,88.655,-0.6822239999999999,0.32256799999999997,-0.36234,4
2024-06-14 11:36:02.379,49.349999999999994,205.765,92.645,-0.6871039999999999,0.343796,-0.363316,4
2024-06-14 11:36:02.384,30.59,219.27499999999998,94.78,-0.67588,0.33672,-0.382104,4
2024-06-14 11:36:02.389,12.25,232.435,95.48,-0.652212,0.298168,-0.424072,4
2024-06-14 11:36:02.393,-4.41,244.47500000000002,95.41,-0.630008,0.24741599999999997,-0.460184,4
2024-06-14 11:36:02.398,-17.744999999999997,255.885,95.305,-0.595116,0.176412,-0.493124,4
2024-06-14 11:36:02.403,-27.65,267.12,95.27000000000001,-0.565836,0.11712,-0.544852,4
2024-06-14 11:36:02.408,-34.894999999999996,278.07500000000005,95.095,-0.539728,0.042212,-0.5934079999999999,4
2024-06-14 11:36:02.413,-39.480000000000004,289.20500000000004,95.48,-0.51484,-0.02318,-0.643184,4
2024-06-14 11:36:02.417,-40.705,299.915,96.425,-0.5070319999999999,-0.09174399999999999,-0.7007680000000001,4
2024-06-14 11:36:02.422,-38.64,309.855,98.0,-0.471896,-0.159332,-0.751276,4
2024-06-14 11:36:02.427,-33.67,319.445,99.61,-0.439932,-0.21276799999999998,-0.798856,4
2024-06-14 11:36:02.432,-25.97,328.02,101.045,-0.402356,-0.25717599999999996,-0.848876,4
2024-06-14 11:36:02.437,-16.345,335.195,101.78,-0.369172,-0.27059599999999995,-0.900848,4
2024-06-14 11:36:02.442,-5.949999999999999,340.62,101.395,-0.324032,-0.259372,-0.950624,4
2024-06-14 11:36:02.446,3.535,344.75,99.29499999999999,-0.281576,-0.23399599999999998,-1.00284,4
2024-06-14 11:36:02.451,11.235,347.69,95.515,-0.23521599999999998,-0.194468,-1.047492,4
2024-06-14 11:36:02.456,16.66,349.23,89.95,-0.19178399999999998,-0.155672,-1.094828,4
2024-06-14 11:36:02.461,19.6,350.07,82.775,-0.15372000000000002,-0.10589599999999999,-1.140944,4
2024-06-14 11:36:02.466,19.53,350.945,74.16499999999999,-0.122,-0.06466,-1.1897440000000001,4
2024-06-14 11:36:02.470,17.045,352.87,64.26,-0.105652,-0.03294,-1.238788,4
2024-06-14 11:36:02.475,13.475,355.32,54.005,-0.085156,-0.016835999999999997,-1.302228,4
2024-06-14 11:36:02.480,10.115,358.4,44.03,-0.061488,-0.02074,-1.369572,4
2024-06-14 11:36:02.485,7.875,361.655,34.685,-0.024155999999999997,-0.030744,-1.449848,4
2024-06-14 11:36:02.490,6.265000000000001,365.47,26.705,0.016104,-0.06099999999999999,-1.522316,4
2024-06-14 11:36:02.495,5.705,369.67,20.265,0.05977999999999999,-0.086132,-1.584292,4
2024-06-14 11:36:02.499,7.035,373.765,16.310000000000002,0.105896,-0.11175199999999999,-1.6491959999999999,4
2024-06-14 11:36:02.504,8.82,377.055,14.559999999999999,0.144936,-0.127124,-1.71654,4
2024-06-14 11:36:02.509,10.43,379.78499999999997,15.505,0.191296,-0.13541999999999998,-1.799256,4
2024-06-14 11:36:02.514,12.495,381.255,19.494999999999997,0.260348,-0.15079199999999998,-1.8841679999999998,4
2024-06-14 11:36:02.519,14.629999999999999,382.06,27.545,0.327692,-0.156648,-1.9441920000000001,4
2024-06-14 11:36:02.523,16.415,382.095,39.76,0.389668,-0.14566800000000002,-2.009584,4
2024-06-14 11:36:02.528,17.535,381.605,56.035,0.46628400000000003,-0.125904,-2.093032,4
2024-06-14 11:36:02.533,18.445,380.205,76.755,0.5551,-0.094428,-2.1825799999999997,4
2024-06-14 11:36:02.538,19.25,377.29999999999995,102.41,0.647332,-0.050264,-2.2667599999999997,4
2024-06-14 11:36:02.543,19.845,373.555,132.965,0.7412719999999999,-0.0014640000000000009,-2.335324,4
2024-06-14 11:36:02.548,20.755000000000003,369.46000000000004,167.615,0.821792,0.064172,-2.400228,4
2024-06-14 11:36:02.552,23.065,365.53999999999996,205.94,0.914512,0.1281,-2.473428,4
2024-06-14 11:36:02.557,26.880000000000003,361.76,247.065,1.030168,0.209108,-2.547848,4
2024-06-14 11:36:02.562,32.515,358.085,289.79999999999995,1.1636360000000001,0.315736,-2.607628,4
2024-06-14 11:36:02.567,41.3,354.83000000000004,332.815,1.3110119999999998,0.448472,-2.6591120000000004,4
2024-06-14 11:36:02.572,53.06,351.82,373.905,1.45058,0.604144,-2.6596,4
2024-06-14 11:36:02.578,64.575,349.195,410.16499999999996,1.586976,0.783728,-2.6742399999999997,4
2024-06-14 11:36:02.582,75.005,348.32,438.2,1.739964,0.9943,-2.702788,4
2024-06-14 11:36:02.587,87.39500000000001,346.115,457.485,1.9283320000000002,1.2099959999999998,-2.70352,4
2024-06-14 11:36:02.592,99.68,339.78,468.93,2.103768,1.447408,-2.671312,4
2024-06-14 11:36:02.597,107.31,330.12,473.865,2.284816,1.663592,-2.6286120000000004,4
2024-06-14 11:36:02.602,109.655,317.65999999999997,474.32000000000005,2.4797719999999996,1.8927079999999998,-2.5268639999999998,4
2024-06-14 11:36:02.606,106.645,301.0,471.485,2.656916,2.09352,-2.416088,4
2024-06-14 11:36:02.611,98.45500000000001,281.05,466.655,2.8325959999999997,2.272616,-2.278472,4
2024-06-14 11:36:02.616,85.05,258.93,459.515,2.9833879999999997,2.453664,-2.120604,4
2024-06-14 11:36:02.621,68.39,235.26999999999998,450.24,3.1163679999999996,2.616656,-1.966396,4
2024-06-14 11:36:02.626,49.0,209.51,437.535,3.207136,2.768424,-1.808772,4
2024-06-14 11:36:02.630,13.44,176.64499999999998,417.655,3.376472,2.917752,-2.098888,4
2024-06-14 11:36:02.635,-32.935,135.59,388.85,3.597292,3.673908,-1.149728,4
2024-06-14 11:36:02.640,-61.599999999999994,106.47,357.28,3.38306,3.48432,-0.75274,0
2024-06-14 11:36:02.645,-111.685,93.275,317.45,3.537512,3.178832,-0.11956,0
2024-06-14 11:36:02.650,-141.54,50.435,271.6,3.7644320000000002,3.155408,-1.4971839999999998,0
2024-06-14 11:36:02.654,-175.28,22.575,223.825,3.802496,2.938004,-1.20536,0
2024-06-14 11:36:02.659,-206.185,-3.78,177.905,3.688548,2.3838800000000004,-1.3298,0
2024-06-14 11:36:02.664,-231.315,-26.775,138.04000000000002,3.6429199999999997,1.8697719999999998,-1.040416,0
2024-06-14 11:36:02.669,-244.02,-62.894999999999996,106.995,3.804448,1.440576,-1.258552,0
2024-06-14 11:36:02.674,-238.875,-103.565,86.695,3.690988,0.997228,-0.921832,0
2024-06-14 11:36:02.679,-238.0,-133.14,71.05,3.2720399999999996,1.004304,-0.8825479999999999,0
2024-06-14 11:36:02.683,-245.735,-129.04500000000002,52.535,1.569652,0.443592,-0.984784,0
2024-06-14 11:36:02.688,-212.20499999999998,-119.595,42.315,0.639768,-0.053192,-0.7847040000000001,0
2024-06-14 11:36:02.693,-62.089999999999996,-122.815,45.709999999999994,-0.525088,0.506544,-1.3366319999999998,0
2024-06-14 11:36:02.698,-53.515,-116.9,27.509999999999998,-0.695888,-0.56242,-1.717516,0
2024-06-14 11:36:02.703,17.5,-90.475,21.7,-0.304024,0.48922,-2.278716,0
2024-06-14 11:36:02.707,-11.934999999999999,-69.93,9.205,-0.221308,0.18080400000000002,-2.126216,0
2024-06-14 11:36:02.712,-14.175,-73.22,0.2799999999999998,-0.12907599999999997,0.013420000000000005,-2.89262,0
