time,gyroscope_x,gyroscope_y,gyroscope_z,accelerometer_x,accelerometer_y,accelerometer_z,phase
2024-06-14 11:35:57.802,-428.71500000000003,-439.18,59.08,2.856752,3.527752,-7.328296,1
2024-06-14 11:35:57.806,-360.43,-347.83,49.035,-0.316956,-0.709308,-0.10126000000000002,1
2024-06-14 11:35:57.811,-499.59000000000003,-341.915,10.919999999999998,-0.6902759999999999,-0.732,-1.799744,1
2024-06-14 11:35:57.816,-443.87,-243.88,-23.134999999999998,-0.526064,-1.1712,-1.6545640000000001,1
2024-06-14 11:35:57.821,-253.785,-222.60000000000002,-45.955,-1.6643240000000001,0.871812,-1.71044,1
2024-06-14 11:35:57.826,-204.05,-240.135,-89.39,-0.63928,-0.049288,-1.201456,1
2024-06-14 11:35:57.831,-141.575,-293.895,-115.185,-0.36404800000000004,-0.19007600000000002,-1.01504,1
2024-06-14 11:35:57.835,-99.47,-334.53,-125.125,0.19080799999999998,0.24863599999999997,-1.96664,1
2024-06-14 11:35:57.840,-61.74,-343.385,-123.55,0.523868,0.426512,-1.865624,1
2024-06-14 11:35:57.845,-54.775,-344.435,-121.555,0.454816,0.24814799999999998,-2.1896560000000003,1
2024-06-14 11:35:57.850,-43.89,-294.665,-108.185,0.5033719999999999,1.118984,-2.78648,1
2024-06-14 11:35:57.855,-41.614999999999995,-242.27,-73.36,0.366,0.9943,-2.392908,1
2024-06-14 11:35:57.860,-56.875,-195.72,-35.805,0.314028,0.6141479999999999,-2.213812,1
2024-06-14 11:35:57.865,-73.255,-125.44,-6.579999999999999,0.281576,0.126392,-2.6871720000000003,1
2024-06-14 11:35:57.869,-54.705,-56.84,11.34,0.271572,0.254004,-2.342888,1
2024-06-14 11:35:57.874,-32.655,-36.4,5.285,0.094916,-0.30768399999999996,-1.571116,1
2024-06-14 11:35:57.879,-18.515,-38.5,-21.525,0.089304,-0.16958,-1.4579,1
2024-06-14 11:35:57.884,-9.1,-33.879999999999995,-37.66,0.19934799999999997,-0.12468399999999999,-1.4559479999999998,2
2024-06-14 11:35:57.889,-16.625,-43.75,-40.67,0.111264,-0.058804,-1.35176,2
2024-06-14 11:35:57.894,-25.13,-46.445,-33.775,-0.009272,0.056608,-1.21024,2
2024-06-14 11:35:57.898,-25.27,-39.269999999999996,-20.895,0.016836,0.194956,-1.147532,2
2024-06-14 11:35:57.903,-21.56,-33.25,-9.905,-0.002196,0.116876,-1.0177239999999999,2
2024-06-14 11:35:57.908,-17.675,-24.814999999999998,-7.0,0.007808,0.09808800000000001,-1.020652,2
2024-06-14 11:35:57.913,-14.42,-20.65,-9.030000000000001,0.027816,0.033672,-1.06994,2
2024-06-14 11:35:57.918,-14.84,-17.43,-11.305,0.058072,-0.0075639999999999995,-1.1287440000000002,2
2024-06-14 11:35:57.923,-19.145,-15.82,-9.765,0.065148,-0.05734,-1.158756,2
2024-06-14 11:35:57.928,-22.155,-11.899999999999999,-6.4399999999999995,-0.00024399999999999943,0.026108,-1.123376,2
2024-06-14 11:35:57.932,-19.39,-9.135,-4.9350000000000005,-0.039040000000000005,0.09540399999999999,-1.074576,2
2024-06-14 11:35:57.937,-14.035,-7.945,-4.83,-0.07124799999999999,0.070272,-1.0906799999999999,2
2024-06-14 11:35:57.942,-9.905000000000001,-8.435,-4.9350000000000005,-0.048311999999999994,0.058072,-1.120204,2
2024-06-14 11:35:57.947,-8.05,-9.24,-4.375,-0.036356,0.028548,-1.132648,2
2024-06-14 11:35:57.952,-5.95,-10.71,-3.885,-0.049776,0.057096,-1.119228,2
2024-06-14 11:35:57.957,-3.185,-14.07,-3.745,-0.07442,0.05368,-1.099464,2
2024-06-14 11:35:57.961,-1.4,-17.64,-3.6399999999999997,-0.08906,0.030744,-1.104588,2
2024-06-14 11:35:57.966,-1.155,-21.035,-3.255,-0.090768,0.020496,-1.102392,2
2024-06-14 11:35:57.971,-1.295,-23.835,-2.835,-0.076372,0.030987999999999995,-1.102392,2
2024-06-14 11:35:57.976,-0.10499999999999998,-26.705,-2.73,-0.079056,0.07198,-1.0723799999999999,2
2024-06-14 11:35:57.981,2.135,-27.65,-2.975,-0.04392,0.050508,-1.077016,2
2024-06-14 11:35:57.986,4.41,-29.785,-3.15,-0.066368,0.056852,-1.087264,2
2024-06-14 11:35:57.991,6.3,-31.185000000000002,-3.1500000000000004,-0.069784,0.03782,-1.0923880000000001,2
2024-06-14 11:35:57.995,7.56,-32.864999999999995,-2.9050000000000002,-0.070028,0.024887999999999997,-1.0943399999999999,2
2024-06-14 11:35:58.000,7.35,-34.195,-3.045,-0.032696,0.007807999999999999,-1.133868,2
2024-06-14 11:35:58.005,7.42,-36.644999999999996,-2.45,-0.070272,0.015372,-1.090924,2
2024-06-14 11:35:58.010,7.665,-38.325,-2.345,-0.087352,0.04758,-1.0814080000000001,2
2024-06-14 11:35:58.015,7.91,-38.78,-2.205,-0.059536000000000006,0.013176,-1.06872,2
2024-06-14 11:35:58.020,7.3149999999999995,-41.894999999999996,-2.625,-0.014396000000000006,0.030743999999999994,-1.018212,2
2024-06-14 11:35:58.024,4.305,-13.684999999999999,-2.24,-0.06368399999999999,0.027572,-1.0796999999999999,2
2024-06-14 11:35:58.029,6.09,-44.905,-1.75,0.0031719999999999943,0.012688,-1.117764,2
2024-06-14 11:35:58.034,8.120000000000001,-41.405,-1.925,-0.049532,0.019763999999999997,-0.946476,2
2024-06-14 11:35:58.039,4.41,-54.355,-1.8900000000000001,0.033184000000000005,0.02928,-1.161928,2
2024-06-14 11:35:58.044,7.244999999999999,-45.64,-1.505,-0.10711599999999999,0.051727999999999996,-1.0640839999999998,2
2024-06-14 11:35:58.049,8.33,-44.135,-1.295,-0.08125199999999999,0.027327999999999998,-0.95038,2
2024-06-14 11:35:58.054,6.895,-44.625,-1.33,0.026108000000000003,-0.014639999999999999,-0.966484,2
2024-06-14 11:35:58.058,7.28,-44.625,-1.26,0.07002799999999999,-0.0009759999999999999,-1.0299239999999998,2
2024-06-14 11:35:58.063,8.225,-42.735,-0.7,0.04587199999999999,0.021228,-1.130696,2
2024-06-14 11:35:58.068,13.3,-39.76,0.35,0.019032000000000007,0.014152000000000001,-1.118252,2
2024-06-14 11:35:58.076,12.075,-37.31,0.56,-0.04392,0.017811999999999998,-1.0169920000000001,2
2024-06-14 11:35:58.081,9.555,-35.385000000000005,0.63,-0.027572,0.0017079999999999994,-0.960872,2
2024-06-14 11:35:58.086,7.630000000000001,-33.635,0.735,0.012200000000000003,0.0007320000000000017,-0.958188,2
2024-06-14 11:35:58.090,4.025,-31.674999999999997,0.875,0.06978399999999998,0.013908,-1.086532,2
2024-06-14 11:35:58.095,2.975,-32.445,1.12,-0.03781999999999999,0.009271999999999999,-1.0494439999999998,2
2024-06-14 11:35:58.100,1.96,-32.585,1.505,-0.038064,-0.006588,-1.008452,2
2024-06-14 11:35:58.105,0.0,-31.64,1.9249999999999998,0.0021960000000000035,-0.01586,-1.0104039999999999,2
2024-06-14 11:35:58.110,-0.7000000000000001,-30.8,2.065,0.026108,0.006588,-1.0260200000000002,2
2024-06-14 11:35:58.114,-1.505,-30.905,2.065,0.054411999999999995,0.023668,-1.042124,2
2024-06-14 11:35:58.119,-1.89,-30.625,1.96,-0.003904,0.033671999999999994,-1.058716,2
2024-06-14 11:35:58.124,-4.305,-31.01,1.05,0.040748,0.04148,-1.0765280000000002,2
2024-06-14 11:35:58.129,-4.34,-33.81,1.26,0.024156,0.01952,-1.0323639999999998,2
2024-06-14 11:35:58.134,-4.445,-32.83,1.155,0.028791999999999998,0.008783999999999998,-1.082872,2
2024-06-14 11:35:58.139,-3.29,-33.985,1.68,0.020496,0.014152000000000001,-1.059448,2
2024-06-14 11:35:58.143,-3.4299999999999997,-34.335,2.0300000000000002,0.038064,-0.0060999999999999995,-1.065792,2
2024-06-14 11:35:58.148,-4.62,-36.05,2.45,0.043432,0.00024399999999999997,-1.076528,2
2024-06-14 11:35:58.153,-5.88,-36.68,2.9050000000000002,0.055875999999999995,-0.010003999999999999,-1.0692080000000002,2
2024-06-14 11:35:58.158,-7.7,-37.24,3.29,0.05856,-0.0060999999999999995,-1.062376,2
2024-06-14 11:35:58.163,-9.59,-37.065,3.815,0.056608000000000006,-0.0021959999999999996,-1.0543239999999998,2
2024-06-14 11:35:58.167,-12.25,-37.31,4.2,0.05856,0.004392,-1.0553,2
2024-06-14 11:35:58.172,-14.629999999999999,-37.625,4.655,0.0549,0.0068319999999999995,-1.05164,2
2024-06-14 11:35:58.177,-17.465,-36.715,5.005,0.059292,0.003904,-1.050176,2
2024-06-14 11:35:58.182,-20.055,-37.345,5.495,0.059048,0.00732,-1.067012,2
2024-06-14 11:35:58.187,-22.994999999999997,-38.535,5.6,0.056119999999999996,0.007076000000000001,-1.072624,2
2024-06-14 11:35:58.192,-24.395,-40.004999999999995,5.984999999999999,0.058316,0.017568,-1.0821399999999999,2
2024-06-14 11:35:58.196,-25.585,-42.35,6.16,0.055875999999999995,0.016104,-1.102148,2
2024-06-14 11:35:58.201,-26.005,-45.605000000000004,6.335,0.054168,0.020496,-1.122156,2
2024-06-14 11:35:58.206,-26.25,-49.385000000000005,6.37,0.06368399999999999,0.03294,-1.134356,2
2024-06-14 11:35:58.211,-23.345,-53.165,6.545,0.06490399999999999,0.025132,-1.1650999999999998,2
2024-06-14 11:35:58.216,-20.02,-57.715,6.720000000000001,0.069052,0.038552,-1.16998,2
2024-06-14 11:35:58.220,-16.38,-61.46,6.615,0.06661199999999999,0.052704,-1.19926,2
2024-06-14 11:35:58.225,-12.635,-65.975,6.23,0.07808000000000001,0.044408,-1.209508,2
2024-06-14 11:35:58.230,-11.585,-71.57499999999999,6.824999999999999,0.07539599999999999,-0.028791999999999998,-1.231224,3
2024-06-14 11:35:58.235,-8.785,-77.42,7.49,0.08832799999999999,0.077592,-1.2465959999999998,3
2024-06-14 11:35:58.240,-7.7,-78.89,6.335,0.109068,0.08784,-1.262944,3
2024-06-14 11:35:58.245,-5.495,-80.64,5.355,0.11419199999999999,0.116144,-1.2556239999999999,3
2024-06-14 11:35:58.249,-1.365,-80.67500000000001,3.885,0.10125999999999999,0.16421200000000002,-1.303204,3
2024-06-14 11:35:58.254,3.5,-84.385,2.24,0.12029199999999998,0.160064,-1.2856359999999998,3
2024-06-14 11:35:58.259,5.635,-86.38,0.20999999999999996,0.139324,0.14591200000000001,-1.2614800000000002,3
2024-06-14 11:35:58.264,7.805,-86.905,-1.26,0.14762000000000003,0.15372000000000002,-1.266116,3
2024-06-14 11:35:58.269,10.43,-88.34,-3.08,0.12346399999999999,0.193004,-1.3136959999999998,3
2024-06-14 11:35:58.274,14.385,-90.895,-5.25,0.106384,0.164456,-1.3722560000000001,3
2024-06-14 11:35:58.278,15.05,-94.00999999999999,-7.035,0.109068,0.12932,-1.4364279999999998,3
2024-06-14 11:35:58.283,17.395,-101.71000000000001,-7.875,0.124928,0.06002400000000001,-1.444236,3
2024-06-14 11:35:58.288,19.005000000000003,-108.815,-7.84,0.134932,0.045384,-1.46156,3
2024-06-14 11:35:58.293,21.595,-116.41,-7.945,0.129076,0.054900000000000004,-1.501332,3
2024-06-14 11:35:58.298,22.47,-125.265,-8.504999999999999,0.13298,0.083204,-1.468636,3
2024-06-14 11:35:58.302,24.22,-133.0,-9.239999999999998,0.137616,0.10736,-1.51402,3
2024-06-14 11:35:58.307,28.98,-137.655,-10.08,0.140544,0.15079199999999998,-1.49938,3
2024-06-14 11:35:58.312,33.915,-144.095,-11.48,0.13541999999999998,0.16372399999999998,-1.5623319999999998,3
2024-06-14 11:35:58.317,38.22,-152.88,-12.565000000000001,0.13566399999999998,0.104432,-1.6169879999999999,3
2024-06-14 11:35:58.322,42.805,-164.60500000000002,-12.67,0.12102399999999999,0.051972,-1.647488,3
2024-06-14 11:35:58.327,41.58,-179.095,-12.565000000000001,0.123952,0.030011999999999997,-1.729472,3
2024-06-14 11:35:58.331,40.635000000000005,-189.875,-12.04,0.084424,-0.001464,-1.788764,3
2024-06-14 11:35:58.336,36.785,-210.735,-10.64,0.072956,-0.080764,-1.7833959999999998,3
2024-06-14 11:35:58.341,30.205,-228.72500000000002,-8.4,0.060756,-0.08418,-2.0920560000000004,3
2024-06-14 11:35:58.346,25.97,-241.29,-5.46,0.026839999999999996,-0.136884,-2.123532,3
2024-06-14 11:35:58.351,24.990000000000002,-262.01,-2.5549999999999997,0.018788,-0.12224399999999999,-2.0708279999999997,3
2024-06-14 11:35:58.355,33.495,-275.41499999999996,0.49,-0.023423999999999997,-0.07905599999999999,-2.204052,3
2024-06-14 11:35:58.360,34.72,-305.06,2.415,-0.0053679999999999995,-0.04026,-2.12646,3
2024-06-14 11:35:58.365,39.935,-326.585,5.074999999999999,-0.036112,-0.093208,-2.4773319999999996,3
2024-06-14 11:35:58.370,36.120000000000005,-344.33,8.435,-0.04953199999999999,-0.11346,-2.367776,3
2024-06-14 11:35:58.375,33.74,-370.475,11.095,-0.08174000000000001,-0.12980799999999998,-2.5144199999999994,3
2024-06-14 11:35:58.380,24.255000000000003,-393.78499999999997,12.600000000000001,-0.10272400000000001,-0.135664,-2.81942,3
2024-06-14 11:35:58.384,15.26,-414.61,16.625,-0.07295600000000001,-0.217648,-3.079524,3
2024-06-14 11:35:58.389,4.76,-437.185,18.655,-0.23058,-0.30622,-2.93532,3
2024-06-14 11:35:58.394,4.27,-469.84000000000003,21.665,-0.179584,-0.586088,-2.9463,3
2024-06-14 11:35:58.399,22.015,-496.615,29.715,-0.11712,-0.691252,-3.2586199999999996,3
2024-06-14 11:35:58.404,32.095,-520.8,41.825,-0.086132,-0.542656,-3.347192,3
2024-06-14 11:35:58.408,33.285,-543.935,45.955,-0.0004880000000000006,-0.282064,-3.474804,3
2024-06-14 11:35:58.413,36.504999999999995,-564.725,46.235,-0.024155999999999997,-0.357216,-3.5929,3
2024-06-14 11:35:58.418,45.325,-578.97,51.905,0.0019520000000000023,-0.48238799999999993,-3.334992,3
2024-06-14 11:35:58.423,58.8,-592.27,59.08,0.093208,-0.49288,-3.6131519999999995,3
2024-06-14 11:35:58.428,85.25999999999999,-601.405,60.445,0.257664,-0.496296,-4.170692,3
2024-06-14 11:35:58.433,116.655,-603.855,67.445,0.045384,-0.828624,-4.656495999999999,4
2024-06-14 11:35:58.437,130.82999999999998,-607.075,80.535,0.072712,-0.9725839999999999,-4.7650760000000005,4
2024-06-14 11:35:58.442,137.55,-597.94,98.875,-0.37868799999999997,-0.978684,-4.09554,4
2024-06-14 11:35:58.447,148.155,-567.385,120.47,-1.4181279999999998,-0.9367159999999999,-3.3501199999999995,4
2024-06-14 11:35:58.452,166.35500000000002,-531.685,142.275,-2.008608,-0.8793759999999999,-2.8899359999999996,4
2024-06-14 11:35:58.457,165.725,-500.64,163.41500000000002,-2.10328,-0.893284,-2.303848,4
2024-06-14 11:35:58.461,130.69,-485.135,176.95999999999998,-2.101816,-1.01138,-1.927844,4
2024-06-14 11:35:58.466,65.765,-494.375,175.945,-1.537688,-0.8764479999999999,-1.5877080000000001,4
2024-06-14 11:35:58.471,-7.629999999999999,-537.39,155.82,-0.71614,-0.41626399999999997,-0.9811239999999999,4
2024-06-14 11:35:58.476,-30.73,-484.4,127.855,-1.031876,-0.320616,-1.221464,4
2024-06-14 11:35:58.481,-22.33,-369.39,105.7,-1.5389079999999997,-0.542168,-0.8654679999999999,4
2024-06-14 11:35:58.486,-7.3149999999999995,-247.695,80.535,-1.992748,-0.61854,-0.739808,4
2024-06-14 11:35:58.490,-7.245,-135.8,42.315,-2.118652,-0.46286799999999995,-0.62098,4
2024-06-14 11:35:58.495,-12.879999999999999,-35.105,0.9100000000000001,-1.868064,-0.34233199999999997,-0.63684,4
2024-06-14 11:35:58.500,-26.284999999999997,52.325,-35.525,-1.65798,-0.216184,-0.811544,4
2024-06-14 11:35:58.505,-45.15,123.305,-67.97,-1.5337839999999998,-0.072224,-0.990396,4
2024-06-14 11:35:58.510,-71.54,175.175,-95.095,-1.35054,-0.15372,-1.115324,4
2024-06-14 11:35:58.514,-94.885,203.98,-114.52000000000001,-1.179252,-0.22082000000000002,-1.180228,4
2024-06-14 11:35:58.519,-111.055,216.54500000000002,-127.4,-1.0979999999999999,-0.22106399999999998,-1.16998,4
2024-06-14 11:35:58.524,-123.095,223.51,-136.675,-1.059936,-0.22692,-1.036024,4
2024-06-14 11:35:58.529,-130.375,230.54500000000002,-142.73000000000002,-1.0230920000000001,-0.27645200000000003,-0.862296,4
2024-06-14 11:35:58.534,-131.67000000000002,238.385,-145.46,-0.9545279999999999,-0.35624,-0.745908,4
2024-06-14 11:35:58.539,-128.20499999999998,246.505,-145.565,-0.878644,-0.42846399999999996,-0.684908,4
2024-06-14 11:35:58.543,-121.625,254.45,-143.64,-0.819108,-0.481656,-0.6561159999999999,4
2024-06-14 11:35:58.548,-112.21000000000001,261.38,-139.615,-0.756888,-0.520208,-0.6283000000000001,4
2024-06-14 11:35:58.553,-101.045,268.905,-133.525,-0.6951559999999999,-0.5541240000000001,-0.610488,4
2024-06-14 11:35:58.558,-89.14500000000001,275.905,-125.30000000000001,-0.630984,-0.5790120000000001,-0.5992639999999999,4
2024-06-14 11:35:58.563,-76.755,282.59000000000003,-115.43,-0.577548,-0.581696,-0.600484,4
2024-06-14 11:35:58.567,-63.91,289.135,-104.265,-0.527284,-0.57584,-0.6104879999999999,4
2024-06-14 11:35:58.572,-51.379999999999995,296.1,-92.47,-0.480924,-0.564616,-0.626836,4
2024-06-14 11:35:58.577,-39.235,302.92499999999995,-80.08,-0.441152,-0.551928,-0.645868,4
2024-06-14 11:35:58.582,-28.455,308.90999999999997,-67.795,-0.41235999999999995,-0.52216,-0.6995480000000001,4
2024-06-14 11:35:58.587,-18.619999999999997,315.03499999999997,-55.72,-0.374784,-0.47287199999999996,-0.731268,4
2024-06-14 11:35:58.592,-9.73,322.35,-44.275,-0.360876,-0.42114399999999996,-0.7761640000000001,4
2024-06-14 11:35:58.596,-1.68,329.875,-33.67,-0.33696400000000004,-0.35209199999999996,-0.8291120000000001,4
2024-06-14 11:35:58.601,4.62,338.24,-24.36,-0.3172,-0.28425999999999996,-0.8879159999999999,4
2024-06-14 11:35:58.606,9.065,346.5,-16.205,-0.300852,-0.218868,-0.957456,4
2024-06-14 11:35:58.611,11.585,354.655,-9.100000000000001,-0.29499600000000004,-0.154696,-1.020408,4
2024-06-14 11:35:58.616,12.495000000000001,362.495,-3.255,-0.282796,-0.098332,-1.0677439999999998,4
2024-06-14 11:35:58.619,12.075,370.44,1.435,-0.27449999999999997,-0.049532,-1.105808,4
2024-06-14 11:35:58.623,10.92,377.65,5.145,-0.26571599999999995,-0.011712,-1.146068,4
2024-06-14 11:35:58.628,9.555,383.95000000000005,8.225,-0.257664,0.011956,-1.1990159999999999,4
2024-06-14 11:35:58.633,8.82,389.235,10.955,-0.23668,0.022935999999999998,-1.259284,4
2024-06-14 11:35:58.638,8.295,393.155,13.125,-0.20739999999999997,0.028791999999999998,-1.319796,4
2024-06-14 11:35:58.643,8.120000000000001,395.85,15.05,-0.180072,0.034404000000000004,-1.361764,4
2024-06-14 11:35:58.648,8.085,397.32,16.485,-0.152744,0.040504,-1.413248,4
2024-06-14 11:35:58.652,8.155,397.425,17.57,-0.13151599999999997,0.0427,-1.464488,4
2024-06-14 11:35:58.657,8.4,396.83000000000004,18.48,-0.10248,0.033428,-1.5130439999999998,4
2024-06-14 11:35:58.662,8.89,395.675,19.18,-0.074664,0.024399999999999998,-1.5623319999999998,4
2024-06-14 11:35:58.667,9.52,393.96000000000004,19.425,-0.049288,0.012931999999999999,-1.608936,4
2024-06-14 11:35:58.672,10.99,392.315,19.32,-0.040016,-0.00024400000000000008,-1.652368,4
2024-06-14 11:35:58.677,12.6,390.845,18.9,-0.033916,-0.021228,-1.7104400000000002,4
2024-06-14 11:35:58.681,14.28,390.28499999999997,17.990000000000002,-0.026352,-0.038796,-1.76168,4
2024-06-14 11:35:58.686,16.555,389.97,16.415,-0.030255999999999998,-0.054167999999999994,-1.811944,4
2024-06-14 11:35:58.691,18.935000000000002,390.6,14.35,-0.026108,-0.08052000000000001,-1.865624,4
2024-06-14 11:35:58.696,21.91,391.755,11.969999999999999,-0.017324,-0.096136,-1.937116,4
2024-06-14 11:35:58.701,24.78,392.45500000000004,9.274999999999999,-0.008539999999999999,-0.10614,-2.017392,4
2024-06-14 11:35:58.706,27.335,392.49,6.125,0.00244,-0.12566,-2.107672,4
2024-06-14 11:35:58.710,30.134999999999998,391.65,2.9050000000000002,0.023912000000000003,-0.144692,-2.224304,4
2024-06-14 11:35:58.715,33.145,390.46000000000004,-0.10499999999999998,0.053436,-0.17787599999999998,-2.3599680000000003,4
2024-06-14 11:35:58.720,36.644999999999996,388.67499999999995,-3.745,0.093696,-0.211304,-2.5002679999999997,4
2024-06-14 11:35:58.725,41.335,386.645,-7.805,0.133956,-0.24156,-2.641788,4
2024-06-14 11:35:58.730,47.565,385.41999999999996,-12.495000000000001,0.18885600000000002,-0.27327999999999997,-2.775744,4
2024-06-14 11:35:58.735,55.3,385.14,-18.095,0.26547200000000004,-0.301828,-2.89628,4
2024-06-14 11:35:58.739,64.505,386.015,-24.955,0.35868,-0.319396,-3.016572,4
2024-06-14 11:35:58.744,75.005,388.01,-33.11,0.456036,-0.31012399999999996,-3.132716,4
2024-06-14 11:35:58.749,86.03,391.23,-42.42,0.564128,-0.28425999999999996,-3.270332,4
2024-06-14 11:35:58.754,96.005,395.815,-52.64,0.7080879999999999,-0.23424,-3.419904,4
2024-06-14 11:35:58.759,103.18,401.73,-63.665,0.897432,-0.164456,-3.52214,4
2024-06-14 11:35:58.764,105.035,408.555,-75.495,1.116056,-0.071248,-3.609248,4
2024-06-14 11:35:58.768,101.29,416.78,-87.745,1.3908,0.012932,-3.662196,4
2024-06-14 11:35:58.773,92.015,425.21500000000003,-99.505,1.689456,0.068076,-3.6895239999999996,4
2024-06-14 11:35:58.778,80.185,431.865,-109.375,2.0110479999999997,0.104188,-3.670492,4
2024-06-14 11:35:58.783,69.22999999999999,436.38,-116.655,2.360944,0.146888,-3.6107120000000004,4
2024-06-14 11:35:58.788,60.41,435.96000000000004,-120.36500000000001,2.7567120000000003,0.17177599999999998,-3.505548,4
2024-06-14 11:35:58.793,51.975,428.155,-120.19,3.2452,0.176656,-3.367444,4
2024-06-14 11:35:58.797,40.775,411.705,-116.69,3.8647159999999996,0.140056,-3.164924,4
2024-06-14 11:35:58.802,33.355000000000004,384.895,-105.77000000000001,4.574999999999999,0.109556,-2.76696,4
2024-06-14 11:35:58.807,32.269999999999996,349.615,-82.11,5.340184000000001,0.03904,-2.343376,4
2024-06-14 11:35:58.812,32.269999999999996,308.66499999999996,-59.395,6.094144,-0.09345200000000001,-2.0547239999999998,4
2024-06-14 11:35:58.817,15.54,259.98,-14.21,6.8024759999999995,-0.294996,-1.853424,4
2024-06-14 11:35:58.822,-12.67,204.05,41.23,7.29072,-0.435784,-1.670424,4
2024-06-14 11:35:58.826,-37.485,146.09,97.615,7.607432,-0.37088,-1.364936,4
2024-06-14 11:35:58.831,-45.15,95.2,144.33999999999997,7.7950680000000006,-0.192272,-1.051884,4
2024-06-14 11:35:58.836,-40.915000000000006,44.66,175.07,7.625488,0.05929199999999999,-1.057496,4
2024-06-14 11:35:58.841,-35.349999999999994,-11.795,189.035,7.1065,0.30866,-1.2866119999999999,4
2024-06-14 11:35:58.846,-37.8,-71.92500000000001,188.825,6.349856000000001,0.458232,-1.48474,4
2024-06-14 11:35:58.851,-235.13,-273.7,131.635,7.281204,4.291228,-5.490732,4
