time,gyroscope_x,gyroscope_y,gyroscope_z,accelerometer_x,accelerometer_y,accelerometer_z,phase
2024-06-14 11:35:57.317,289.38,-423.57,24.009999999999998,0.343796,-1.1082480000000001,-4.209244,1
2024-06-14 11:35:57.322,217.98000000000002,-330.96000000000004,22.05,-1.738744,1.233176,1.6565159999999999,1
2024-06-14 11:35:57.327,366.52,-283.745,31.744999999999997,0.20325200000000002,-0.145424,-1.4559479999999998,1
2024-06-14 11:35:57.332,343.49,-305.55,42.35,-1.439112,-0.438468,-2.239432,1
2024-06-14 11:35:57.336,249.26999999999998,-321.78999999999996,57.085,-0.811056,-0.602436,-2.138172,1
2024-06-14 11:35:57.341,206.64,-350.805,68.53,-0.43114800000000003,-0.443104,-1.89222,1
2024-06-14 11:35:57.346,159.53,-372.71500000000003,75.18,0.304756,-0.49824799999999997,-2.214544,1
2024-06-14 11:35:57.351,138.145,-370.545,85.785,0.453596,-0.21228000000000002,-2.904576,1
2024-06-14 11:35:57.356,123.55000000000001,-326.34000000000003,89.705,0.51606,-0.7498119999999999,-3.2769199999999996,1
2024-06-14 11:35:57.361,50.75,-270.79499999999996,74.515,0.6026799999999999,-0.7376119999999999,-2.8416240000000004,1
2024-06-14 11:35:57.365,52.64,-219.625,53.269999999999996,0.35306799999999994,-0.610976,-2.8935959999999996,1
2024-06-14 11:35:57.370,51.03,-167.86,31.150000000000002,0.23643599999999998,-0.530212,-2.423652,1
2024-06-14 11:35:57.375,59.324999999999996,-130.235,12.985,0.1586,-0.164456,-2.332152,1
2024-06-14 11:35:57.380,45.57,-50.995000000000005,1.4000000000000001,0.167628,-0.29987600000000003,-2.1679399999999998,1
2024-06-14 11:35:57.385,28.909999999999997,-31.185000000000002,1.225,-0.019764,-0.014395999999999999,-1.45302,1
2024-06-14 11:35:57.390,20.37,-31.535000000000004,9.66,-0.017812,0.060023999999999994,-1.300764,1
2024-06-14 11:35:57.394,18.689999999999998,-29.505,20.58,0.057583999999999996,0.059780000000000014,-1.280268,1
2024-06-14 11:35:57.399,15.504999999999999,-24.08,25.689999999999998,-0.026352,-0.020496,-1.056032,1
2024-06-14 11:35:57.404,15.925,-17.99,21.42,-0.014151999999999998,-0.09296399999999999,-1.0482239999999998,1
2024-06-14 11:35:57.409,15.96,-16.205,14.035,0.011468000000000002,-0.086376,-1.0667680000000002,1
2024-06-14 11:35:57.414,12.355,-4.55,7.14,0.05221600000000001,-0.12590400000000002,-1.027728,1
2024-06-14 11:35:57.419,11.515,-2.205,2.1,0.052704,-0.068564,-1.0116239999999999,1
2024-06-14 11:35:57.423,10.254999999999999,-0.595,1.575,0.070028,-0.063928,-1.05896,1
2024-06-14 11:35:57.428,9.94,-1.4,1.47,0.002927999999999999,-0.005855999999999997,-1.070916,1
2024-06-14 11:35:57.433,11.375,-3.395,1.7850000000000001,-0.040504,-0.014152,-1.098244,1
2024-06-14 11:35:57.438,12.74,-5.46,1.47,-0.088816,-0.036356,-1.1065399999999999,1
2024-06-14 11:35:57.443,11.27,-9.765,0.8049999999999999,-0.112484,-0.07490799999999999,-1.121424,1
2024-06-14 11:35:57.448,7.56,-14.035,1.12,-0.1037,-0.08662,-1.125084,1
2024-06-14 11:35:57.452,3.15,-18.48,1.365,-0.09394,-0.08296,-1.1309399999999998,1
2024-06-14 11:35:57.457,-0.525,-21.630000000000003,1.68,-0.100284,-0.066856,-1.0887280000000001,2
2024-06-14 11:35:57.462,-2.66,-24.675,1.4700000000000002,-0.116144,-0.050264,-1.062132,2
2024-06-14 11:35:57.467,-3.955,-28.84,0.9450000000000001,-0.114924,-0.042212,-1.053592,2
2024-06-14 11:35:57.472,-4.795,-32.900000000000006,0.525,-0.100772,-0.036112,-1.0555439999999998,2
2024-06-14 11:35:57.477,-5.775,-37.379999999999995,0.455,-0.08906,-0.038552,-1.062376,2
2024-06-14 11:35:57.481,-7.35,-41.44,0.28,-0.094428,-0.047092,-1.063596,2
2024-06-14 11:35:57.486,-9.345,-45.57,0.14,-0.10589599999999999,-0.054168,-1.06506,2
2024-06-14 11:35:57.491,-11.235,-49.245000000000005,-0.105,-0.108336,-0.03904,-1.069208,2
2024-06-14 11:35:57.496,-12.6,-52.92,-0.525,-0.134444,-0.044407999999999996,-1.06628,2
2024-06-14 11:35:57.501,-12.985,-56.525,-1.085,-0.09808800000000001,-0.026352,-1.0811639999999998,2
2024-06-14 11:35:57.505,-12.705,-58.730000000000004,-1.505,-0.086376,-0.013176,-1.0616439999999998,2
2024-06-14 11:35:57.510,-12.285,-60.935,-2.0300000000000002,-0.071492,-0.017812,-1.053592,2
2024-06-14 11:35:57.515,-11.795,-61.425,-2.275,-0.06514799999999998,-0.024399999999999998,-1.0401719999999999,2
2024-06-14 11:35:57.520,-9.905000000000001,-62.055,-2.3449999999999998,-0.053436,-0.018544,-1.0396839999999998,2
2024-06-14 11:35:57.525,-9.870000000000001,-62.93,-2.31,-0.06539199999999999,-0.032208,-1.0482239999999998,2
2024-06-14 11:35:57.530,-9.555,-66.5,-2.135,-0.058804,-0.029036,-1.0548119999999999,2
2024-06-14 11:35:57.534,-7.49,-67.62,-2.17,-0.050752,-0.024399999999999998,-1.0494439999999998,2
2024-06-14 11:35:57.539,-8.19,-69.685,-1.96,-0.046848,-0.029767999999999996,-1.045784,2
2024-06-14 11:35:57.544,-8.190000000000001,-73.78,-1.855,-0.02806,-0.030987999999999998,-1.033096,2
2024-06-14 11:35:57.549,-7.245,-75.25,-1.365,-0.013907999999999998,-0.034648,-1.024312,2
2024-06-14 11:35:57.554,-6.369999999999999,-78.33,-0.77,-0.00366,-0.031964,-1.01382,2
2024-06-14 11:35:57.559,-7.35,-80.22,-0.105,-0.00048800000000000004,-0.0305,-1.0177239999999999,2
2024-06-14 11:35:57.563,-10.71,-101.78,-0.13999999999999999,0.005124,-0.015616,-1.0177239999999999,2
2024-06-14 11:35:57.568,-5.3549999999999995,-77.91,-0.2100000000000002,-0.0026839999999999998,-0.0053679999999999995,-1.038708,2
2024-06-14 11:35:57.573,-13.02,-75.775,-0.07000000000000006,0.008052,-0.010248,-1.1162999999999998,2
2024-06-14 11:35:57.578,-25.795,-66.57,-0.945,0.011712,-0.001464,-1.05652,2
2024-06-14 11:35:57.583,-24.64,-64.505,-1.7149999999999999,0.012688000000000001,0.0075639999999999995,-1.0650600000000001,2
2024-06-14 11:35:57.588,-26.810000000000002,-64.47,-3.045,0.015616000000000001,0.001952,-1.029436,2
2024-06-14 11:35:57.592,-20.335,-66.045,-2.31,0.031476,-0.018544,-1.059692,2
2024-06-14 11:35:57.597,-18.655,-66.01,0.56,0.022935999999999998,-0.03782,-1.111908,2
2024-06-14 11:35:57.602,-12.705,-66.5,1.995,0.037332,-0.012932,-1.073356,2
2024-06-14 11:35:57.607,-11.690000000000001,-66.43,1.96,0.030988,0.010735999999999999,-1.086288,2
2024-06-14 11:35:57.612,-16.345,-67.235,0.035,0.037576,0.008539999999999999,-1.087508,2
2024-06-14 11:35:57.617,-16.485,-58.800000000000004,0.0,0.051484,-0.009516,-1.0718919999999998,2
2024-06-14 11:35:57.621,-16.03,-54.25,-0.42,0.028547999999999997,-0.027084,-1.1370399999999998,2
2024-06-14 11:35:57.626,-20.23,-51.870000000000005,-2.065,0.055632,0.020007999999999998,-1.061888,2
2024-06-14 11:35:57.631,-18.13,-51.555,-1.995,0.06612399999999999,-0.06734399999999999,-1.061644,2
2024-06-14 11:35:57.636,-11.760000000000002,-50.785,-0.21000000000000002,0.062464000000000006,-0.061975999999999996,-1.0714039999999998,2
2024-06-14 11:35:57.641,-10.57,-49.980000000000004,0.91,0.062952,-0.012931999999999999,-1.0372439999999998,2
2024-06-14 11:35:57.647,-10.395,-48.335,0.665,0.078324,-0.009271999999999999,-0.999668,2
2024-06-14 11:35:57.651,-10.43,-46.865,0.45499999999999996,0.08784,-0.0068319999999999995,-1.002108,2
2024-06-14 11:35:57.656,-10.465,-44.94,0.245,0.10003999999999999,0.004148,-0.9835639999999999,2
2024-06-14 11:35:57.661,-11.2,-42.629999999999995,0.245,0.100284,0.011956,-0.972828,2
2024-06-14 11:35:57.666,-10.395,-40.040000000000006,-0.10500000000000001,0.106384,0.011956,-0.9699,2
2024-06-14 11:35:57.671,-9.415,-38.010000000000005,-0.49,0.106628,0.016347999999999998,-0.9574560000000001,2
2024-06-14 11:35:57.675,-7.77,-35.595,-0.875,0.112728,0.013176,-0.964532,2
2024-06-14 11:35:57.680,-5.145,-33.285,-1.0150000000000001,0.107116,0.029524,-0.979416,3
2024-06-14 11:35:57.685,-2.065,-32.2,-1.33,0.10931199999999999,0.036112,-0.966484,3
2024-06-14 11:35:57.690,1.89,-30.939999999999998,-1.8199999999999998,0.110044,0.061,-0.9516,3
2024-06-14 11:35:57.695,5.425000000000001,-30.134999999999998,-2.905,0.114924,0.083448,-0.948916,3
2024-06-14 11:35:57.700,8.82,-29.189999999999998,-4.2,0.11785199999999998,0.07808000000000001,-0.958676,3
2024-06-14 11:35:57.704,12.95,-28.875,-5.04,0.11956,0.068076,-0.975268,3
2024-06-14 11:35:57.709,17.395,-29.12,-5.775,0.113216,0.056608,-0.9913719999999999,3
2024-06-14 11:35:57.714,19.845,-29.96,-6.65,0.11712,0.049044,-0.982588,3
2024-06-14 11:35:57.719,21.770000000000003,-31.15,-7.3149999999999995,0.11907200000000001,0.031964,-1.013088,3
2024-06-14 11:35:57.724,22.4,-32.025000000000006,-7.63,0.120048,0.008052,-1.0482239999999998,3
2024-06-14 11:35:57.728,22.575,-33.81,-7.525,0.122488,-0.026108,-1.085312,3
2024-06-14 11:35:57.733,21.490000000000002,-36.364999999999995,-7.140000000000001,0.127612,-0.017812,-1.1021480000000001,3
2024-06-14 11:35:57.738,19.67,-39.269999999999996,-6.93,0.12907599999999997,-0.041724,-1.138748,3
2024-06-14 11:35:57.743,17.045,-42.455,-6.404999999999999,0.12370799999999998,-0.062464,-1.201212,3
2024-06-14 11:35:57.748,12.565000000000001,-45.535,-5.705,0.12980799999999998,-0.073688,-1.2224400000000002,3
2024-06-14 11:35:57.753,8.295,-50.085,-4.725,0.132492,-0.07442,-1.242692,3
2024-06-14 11:35:57.757,3.675,-54.635000000000005,-3.6399999999999997,0.132736,-0.091012,-1.245864,3
2024-06-14 11:35:57.762,-0.385,-58.17,-2.485,0.139812,-0.106872,-1.2495239999999999,3
2024-06-14 11:35:57.767,-5.005,-60.865,-1.05,0.14152,-0.108824,-1.234884,3
2024-06-14 11:35:57.772,-8.120000000000001,-63.21,0.8400000000000001,0.14322800000000002,-0.119804,-1.253916,3
2024-06-14 11:35:57.777,-12.775,-65.695,2.3449999999999998,0.144204,-0.096136,-1.263676,3
2024-06-14 11:35:57.781,-17.395,-68.67,3.465,0.148596,-0.094916,-1.260748,3
2024-06-14 11:35:57.786,-20.895,-71.925,4.795,0.147864,-0.083692,-1.270996,3
2024-06-14 11:35:57.791,-23.765,-76.125,5.74,0.147864,-0.052947999999999995,-1.3354119999999998,3
2024-06-14 11:35:57.796,-26.634999999999998,-81.86500000000001,6.404999999999999,0.13834799999999997,-0.018788,-1.421544,3
2024-06-14 11:35:57.801,-26.215,-90.93,6.545,0.139812,0.00122,-1.452044,3
2024-06-14 11:35:57.806,-25.515,-101.255,6.265,0.134444,0.027327999999999998,-1.4510679999999998,3
2024-06-14 11:35:57.810,-25.235,-111.755,5.6,0.13590799999999997,0.005856,-1.4461879999999998,3
2024-06-14 11:35:57.815,-25.515,-120.89,5.495,0.140056,-0.034892,-1.43838,3
2024-06-14 11:35:57.820,-27.37,-128.765,5.775,0.141764,-0.061244,-1.4557039999999999,3
2024-06-14 11:35:57.825,-31.29,-138.11,6.37,0.140544,-0.072468,-1.5252439999999998,3
2024-06-14 11:35:57.830,-34.650000000000006,-148.85500000000002,6.825,0.13883600000000001,-0.058072,-1.562088,3
2024-06-14 11:35:57.834,-36.855000000000004,-159.95,6.6850000000000005,0.122,0.009516,-1.584536,3
2024-06-14 11:35:57.839,-37.8,-173.04,5.81,0.10858,0.035136,-1.619916,3
2024-06-14 11:35:57.844,-35.595,-188.3,4.865,0.101748,0.056852,-1.645292,3
2024-06-14 11:35:57.849,-32.864999999999995,-205.1,3.6399999999999997,0.09223200000000001,0.088084,-1.726056,3
2024-06-14 11:35:57.854,-31.814999999999998,-218.575,1.505,0.13224799999999998,0.08052,-1.8016960000000002,3
2024-06-14 11:35:57.859,-28.805,-229.35500000000002,0.06999999999999999,0.08271600000000001,0.050019999999999995,-1.98738,3
2024-06-14 11:35:57.863,-28.315,-251.23000000000002,-1.435,0.072956,0.102724,-1.825608,3
2024-06-14 11:35:57.868,-28.560000000000002,-269.605,-3.395,0.06539199999999999,0.059536,-1.943216,3
2024-06-14 11:35:57.873,-28.630000000000003,-290.43,-4.375,0.04514,0.047091999999999995,-2.011292,3
2024-06-14 11:35:57.878,-28.875,-309.4,-5.915,0.04758,0.068808,-2.074732,3
2024-06-14 11:35:57.883,-25.515,-332.91999999999996,-7.35,0.027816,0.076128,-2.239432,3
2024-06-14 11:35:57.887,-21.595,-355.635,-8.855,0.021471999999999998,0.07905599999999999,-2.418284,3
2024-06-14 11:35:57.892,-21.805,-377.615,-9.870000000000001,0.021471999999999998,0.06124399999999999,-2.541016,3
2024-06-14 11:35:57.897,-18.095,-401.275,-11.83,0.009271999999999999,0.18788,-2.6622839999999997,3
2024-06-14 11:35:57.902,-15.575,-421.12,-16.205,0.09759999999999999,0.267912,-3.089284,3
2024-06-14 11:35:57.907,-19.425,-445.97,-16.520000000000003,0.210084,0.30255999999999994,-3.359636,3
2024-06-14 11:35:57.912,-30.310000000000002,-468.02,-21.84,0.136152,0.45798799999999995,-3.5126239999999997,3
2024-06-14 11:35:57.916,-28.98,-492.275,-28.805,0.24644,0.361364,-3.659268,3
2024-06-14 11:35:57.921,-35.56,-508.97,-31.36,0.29255600000000004,0.34111199999999997,-3.9772,3
2024-06-14 11:35:57.926,-41.825,-524.1949999999999,-34.615,0.293532,0.335744,-4.10164,3
2024-06-14 11:35:57.931,-36.925,-538.23,-36.995000000000005,0.26181200000000004,0.234728,-4.087,3
2024-06-14 11:35:57.936,-32.83,-551.53,-37.519999999999996,0.18666,0.15079199999999998,-4.297328,4
2024-06-14 11:35:57.940,-26.6,-562.31,-39.900000000000006,0.002683999999999999,0.13566399999999998,-4.37248,4
2024-06-14 11:35:57.945,-8.82,-571.2,-42.7,-0.299388,0.05075199999999999,-4.074800000000001,4
2024-06-14 11:35:57.950,22.155,-570.36,-45.955,-0.647332,0.046848,-3.80884,4
2024-06-14 11:35:57.955,62.86,-555.905,-44.765,-0.8437520000000001,0.048556,-3.765164,4
2024-06-14 11:35:57.960,91.035,-528.675,-40.04,-1.338584,0.20422799999999997,-3.3781799999999995,4
2024-06-14 11:35:57.965,102.165,-490.595,-38.115,-1.924672,0.537532,-2.938736,4
2024-06-14 11:35:57.969,107.83500000000001,-459.9,-44.275000000000006,-2.372168,0.93574,-2.47172,4
2024-06-14 11:35:57.974,99.82,-422.625,-63.209999999999994,-2.846504,1.1799840000000001,-1.4610719999999997,4
2024-06-14 11:35:57.979,78.61,-375.62,-93.625,-2.705716,1.4149559999999999,0.08857199999999996,4
2024-06-14 11:35:57.984,79.765,-383.355,-104.02,-1.134112,1.793888,0.502884,4
2024-06-14 11:35:57.989,38.815,-325.15,-106.19,-0.5550999999999999,1.5764839999999998,-2.168428,4
2024-06-14 11:35:57.993,-53.30500000000001,-191.45,-129.85,-1.049932,1.9066159999999999,-2.408524,4
2024-06-14 11:35:57.998,-103.88,-97.78999999999999,-146.895,-1.9136920000000002,1.02724,-1.484984,4
2024-06-14 11:35:58.003,-116.935,-3.780000000000001,-135.485,-2.393396,0.10589599999999999,-1.135332,4
2024-06-14 11:35:58.008,-89.355,83.93,-108.64,-2.09596,-0.24278,-1.148996,4
2024-06-14 11:35:58.013,-31.605,139.54500000000002,-80.43,-1.593076,-0.37063599999999997,-1.18584,4
2024-06-14 11:35:58.018,29.259999999999998,167.89499999999998,-55.65,-1.3378519999999998,-0.386984,-1.2695319999999999,4
2024-06-14 11:35:58.022,80.535,183.155,-34.02,-1.2773400000000001,-0.30963599999999997,-1.2810000000000001,4
2024-06-14 11:35:58.027,119.525,191.24,-15.260000000000002,-1.241716,-0.154452,-1.097024,4
2024-06-14 11:35:58.032,145.18,193.585,-0.595,-1.186572,0.0427,-0.932812,4
2024-06-14 11:35:58.037,155.995,195.475,8.575,-1.122644,0.20373999999999998,-0.8156920000000001,4
2024-06-14 11:35:58.042,153.195,199.255,12.6,-1.067012,0.390888,-0.712968,4
2024-06-14 11:35:58.047,141.785,205.8,11.83,-1.0055239999999999,0.5553440000000001,-0.610976,4
2024-06-14 11:35:58.051,123.23500000000001,214.41000000000003,7.595,-0.9633120000000001,0.66612,-0.5475359999999999,4
2024-06-14 11:35:58.056,97.37,224.875,0.98,-0.920612,0.7183360000000001,-0.53436,4
2024-06-14 11:35:58.061,68.32,234.71,-6.755,-0.865224,0.704916,-0.5367999999999999,4
2024-06-14 11:35:58.066,40.32,243.67000000000002,-14.07,-0.803004,0.6429400000000001,-0.5526599999999999,4
2024-06-14 11:35:58.071,16.17,251.405,-19.915,-0.750788,0.545828,-0.579988,4
2024-06-14 11:35:58.075,-1.8899999999999997,257.21500000000003,-23.625,-0.7019880000000001,0.439932,-0.602924,4
2024-06-14 11:35:58.080,-14.385000000000002,262.28999999999996,-25.13,-0.6502600000000001,0.33062,-0.628788,4
2024-06-14 11:35:58.085,-22.259999999999998,266.63,-24.64,-0.60878,0.24497599999999997,-0.674904,4
2024-06-14 11:35:58.090,-27.02,271.53,-22.435000000000002,-0.576572,0.173728,-0.717116,4
2024-06-14 11:35:58.095,-29.54,277.54999999999995,-18.795,-0.5548559999999999,0.12322,-0.758108,4
2024-06-14 11:35:58.100,-29.47,285.03999999999996,-14.0,-0.5416799999999999,0.07197999999999999,-0.792268,4
2024-06-14 11:35:58.104,-27.685000000000002,293.65,-8.33,-0.530456,0.034404,-0.8418000000000001,4
2024-06-14 11:35:58.109,-26.285,303.31,-2.31,-0.511424,0.026352,-0.878644,4
2024-06-14 11:35:58.114,-25.445,313.04,3.4299999999999997,-0.496784,0.037332,-0.927444,4
2024-06-14 11:35:58.119,-25.585,322.595,8.61,-0.4758,0.056119999999999996,-0.964776,4
2024-06-14 11:35:58.124,-27.09,331.38,13.055,-0.45872,0.07417599999999999,-0.995764,4
2024-06-14 11:35:58.128,-30.1,339.115,16.240000000000002,-0.42456,0.09638,-1.033096,4
2024-06-14 11:35:58.133,-34.475,345.1,18.165,-0.39405999999999997,0.108336,-1.073356,4
2024-06-14 11:35:58.138,-39.095,349.37,19.285,-0.35624,0.118584,-1.12484,4
2024-06-14 11:35:58.143,-44.834999999999994,352.625,19.74,-0.32256799999999997,0.110288,-1.172908,4
2024-06-14 11:35:58.148,-50.504999999999995,355.25,19.6,-0.29646000000000006,0.101992,-1.2148759999999998,4
2024-06-14 11:35:58.153,-55.195,358.05,19.18,-0.27693999999999996,0.08759600000000001,-1.261236,4
2024-06-14 11:35:58.157,-58.975,361.095,18.34,-0.266692,0.061,-1.31516,4
2024-06-14 11:35:58.162,-62.055,365.04999999999995,17.43,-0.26083599999999996,0.039528,-1.368108,4
2024-06-14 11:35:58.167,-64.295,369.46,16.310000000000002,-0.25327199999999994,0.035868,-1.4213,4
2024-06-14 11:35:58.172,-65.72999999999999,374.15,15.33,-0.25107599999999997,0.028304000000000003,-1.4732720000000001,4
2024-06-14 11:35:58.177,-66.88499999999999,378.7,14.0,-0.245708,0.023668,-1.5311,4
2024-06-14 11:35:58.181,-68.03999999999999,383.21500000000003,12.495000000000001,-0.241072,0.021716,-1.593564,4
2024-06-14 11:35:58.186,-69.09,387.38,11.165,-0.22399199999999997,0.017812,-1.6592,4
2024-06-14 11:35:58.191,-70.035,390.91499999999996,9.835,-0.204472,0.010003999999999999,-1.7202,4
2024-06-14 11:35:58.195,-70.805,393.78499999999997,8.995000000000001,-0.180316,0.011224,-1.780468,4
2024-06-14 11:35:58.200,-71.855,395.78,8.295,-0.16958,0.014639999999999999,-1.8426879999999999,4
2024-06-14 11:35:58.205,-73.43,397.53,8.085,-0.14762,0.015371999999999999,-1.904664,4
2024-06-14 11:35:58.209,-75.985,398.65,7.734999999999999,-0.139568,0.030987999999999998,-1.977376,4
2024-06-14 11:35:58.214,-79.975,399.14,7.49,-0.125416,0.043432,-2.067412,4
2024-06-14 11:35:58.219,-84.77,399.875,7.279999999999999,-0.113704,0.047091999999999995,-2.1696480000000005,4
2024-06-14 11:35:58.224,-89.985,400.785,8.05,-0.09272,0.055876,-2.29848,4
2024-06-14 11:35:58.229,-93.765,401.625,10.115,-0.054900000000000004,0.051484,-2.423408,4
2024-06-14 11:35:58.234,-95.58500000000001,403.13,14.105,-0.008052,0.032452,-2.548336,4
2024-06-14 11:35:58.238,-97.22999999999999,405.54499999999996,20.16,0.034892,0.030987999999999995,-2.6757039999999996,4
2024-06-14 11:35:58.243,-98.595,408.24,27.79,0.097844,0.033671999999999994,-2.816004,4
2024-06-14 11:35:58.248,-100.66,411.565,36.925,0.17836399999999997,0.030011999999999997,-2.94874,4
2024-06-14 11:35:58.253,-102.865,414.855,47.215,0.265228,0.026352,-3.089284,4
2024-06-14 11:35:58.258,-104.61500000000001,418.03999999999996,58.45,0.389424,0.011956,-3.225192,4
2024-06-14 11:35:58.263,-105.77000000000001,420.49,69.93,0.53192,-0.0060999999999999995,-3.356708,4
2024-06-14 11:35:58.267,-104.685,422.52,81.62,0.739076,-0.030987999999999995,-3.454796,4
2024-06-14 11:35:58.272,-102.51499999999999,425.04,92.96000000000001,0.954528,-0.027327999999999998,-3.5643519999999995,4
2024-06-14 11:35:58.277,-98.175,427.175,102.69,1.192184,-0.030988,-3.622668,4
2024-06-14 11:35:58.282,-92.82,427.7,110.145,1.477176,-0.025132,-3.640236,4
2024-06-14 11:35:58.287,-87.78,427.28,114.41499999999999,1.802428,-0.018056,-3.6619520000000003,4
2024-06-14 11:35:58.291,-83.195,424.585,115.255,2.1757480000000005,-0.011712,-3.658292,4
2024-06-14 11:35:58.296,-77.28,416.85,112.42,2.5805439999999997,-0.001464,-3.635112,4
2024-06-14 11:35:58.301,-66.955,403.48,106.155,3.021696,0.022691999999999997,-3.554592,4
2024-06-14 11:35:58.306,-52.885000000000005,384.3,95.83,3.562888,0.0305,-3.3591480000000002,4
2024-06-14 11:35:58.311,-41.335,361.725,81.305,4.1533679999999995,0.061,-3.0309679999999997,4
2024-06-14 11:35:58.316,-29.015,335.055,61.81,4.691876000000001,0.143716,-2.6742399999999997,4
2024-06-14 11:35:58.320,-13.825,304.57,36.504999999999995,5.2301400000000005,0.21911199999999997,-2.284328,4
2024-06-14 11:35:58.325,4.48,268.65999999999997,4.4799999999999995,5.764744,0.35941199999999995,-1.9920159999999998,4
2024-06-14 11:35:58.330,14.56,227.185,-34.230000000000004,6.272508,0.41870399999999997,-1.823656,4
2024-06-14 11:35:58.335,12.11,179.935,-74.025,6.725372,0.34208799999999995,-1.7141,4
2024-06-14 11:35:58.340,-2.975,129.5,-106.68,7.0594079999999995,0.043188000000000004,-1.628944,4
2024-06-14 11:35:58.345,-14.98,74.935,-124.635,7.106012,-0.39649999999999996,-1.6023479999999999,4
2024-06-14 11:35:58.349,-7.07,13.334999999999999,-127.085,6.794668,-0.8125199999999999,-1.610156,4
2024-06-14 11:35:58.354,20.09,-50.364999999999995,-118.965,6.211264,-1.06872,-1.5713599999999999,4
2024-06-14 11:35:58.359,57.400000000000006,-107.625,-104.37,5.470479999999999,-1.06262,-1.558428,4
2024-06-14 11:35:58.364,92.96000000000001,-154.175,-86.83500000000001,4.788256,-0.843264,-1.6225999999999998,4
2024-06-14 11:35:58.369,118.545,-187.53,-69.82499999999999,4.17484,-0.485072,-1.727032,4
2024-06-14 11:35:58.374,143.92000000000002,-351.53999999999996,-50.19,1.2566,0.778848,-5.940911999999999,4
