time,gyroscope_x,gyroscope_y,gyroscope_z,accelerometer_x,accelerometer_y,accelerometer_z,phase
2024-06-14 10:00:07.091,60.165,-286.3,58.519999999999996,5.191587999999999,-0.45847599999999994,-5.043235999999999,1
2024-06-14 10:00:07.096,50.015,-248.43,46.76,2.3990080000000003,0.5436319999999999,1.289296,1
2024-06-14 10:00:07.101,96.075,-292.28499999999997,28.770000000000003,1.0487119999999999,0.5873079999999999,-0.168604,1
2024-06-14 10:00:07.106,236.74,-285.04,21.735,-0.784216,-0.043920000000000015,-1.675792,1
2024-06-14 10:00:07.111,250.25,-332.815,22.435000000000002,-0.74054,-0.093696,-1.453264,1
2024-06-14 10:00:07.116,253.68,-357.63,26.145,-0.531676,-0.193248,-1.832928,1
2024-06-14 10:00:07.120,218.89,-345.31,34.265,0.3477,-0.260592,-2.504416,1
2024-06-14 10:00:07.125,170.51999999999998,-323.71500000000003,44.905,0.59658,-0.30744000000000005,-2.351916,1
2024-06-14 10:00:07.130,126.595,-322.45500000000004,56.455,0.539972,-0.22960399999999997,-1.5086519999999999,1
2024-06-14 10:00:07.135,74.235,-277.655,68.775,0.16250399999999998,-0.29889999999999994,-2.106696,1
2024-06-14 10:00:07.140,32.095,-250.88,73.08,0.027572,-0.484584,-2.096448,1
2024-06-14 10:00:07.145,3.955000000000001,-215.985,65.59,0.14395999999999998,-0.736148,-2.430484,2
2024-06-14 10:00:07.149,-7.49,-182.28,46.269999999999996,0.271572,-0.753228,-2.05082,2
2024-06-14 10:00:07.154,-15.05,-167.055,21.455,0.20544799999999996,-0.678076,-1.9610279999999998,2
2024-06-14 10:00:07.159,-12.18,-146.195,2.135,0.116632,-0.472628,-1.759484,2
2024-06-14 10:00:07.164,-18.76,-134.925,-8.575,0.032940000000000004,-0.199104,-1.6304079999999999,2
2024-06-14 10:00:07.169,-23.134999999999998,-118.125,-6.58,0.028791999999999998,0.07002799999999999,-1.551352,2
2024-06-14 10:00:07.173,-28.490000000000002,-98.735,4.06,0.007319999999999998,0.198372,-1.463512,2
2024-06-14 10:00:07.178,-31.395000000000003,-88.34,16.555,-0.048556,0.157136,-1.3122319999999998,2
2024-06-14 10:00:07.183,-35.175,-78.19,24.29,-0.04489599999999999,0.011955999999999998,-1.220732,2
2024-06-14 10:00:07.188,-33.775,-73.28999999999999,24.675,-0.023668,-0.104432,-1.157048,2
2024-06-14 10:00:07.193,-30.380000000000003,-68.32,18.83,-0.001708,-0.17812,-1.1358199999999998,2
2024-06-14 10:00:07.198,-26.6,-66.045,11.235,-0.02196,-0.140788,-1.108736,2
2024-06-14 10:00:07.202,-25.619999999999997,-62.545,7.3149999999999995,-0.027816,-0.068076,-1.1446040000000002,2
2024-06-14 10:00:07.207,-30.064999999999998,-47.879999999999995,7.035,0.34306400000000004,-0.05099600000000001,-1.861232,2
2024-06-14 10:00:07.212,-31.465000000000003,-13.965,7.21,-0.106628,0.024643999999999996,-1.278804,2
2024-06-14 10:00:07.217,-14.875,-6.895,4.445,0.14493599999999998,-0.0019520000000000023,-1.394704,2
2024-06-14 10:00:07.222,-1.3650000000000002,-3.85,1.26,0.112728,-0.122976,-1.3244319999999998,2
2024-06-14 10:00:07.227,-6.755,-7.07,0.7000000000000001,-0.10833599999999999,-0.091256,-1.051884,2
2024-06-14 10:00:07.231,-10.36,-7.0,0.7,-0.08710799999999999,-0.03538,-1.0833599999999999,2
2024-06-14 10:00:07.236,-8.049999999999999,-8.295,-0.595,-0.044896,-0.021228,-1.098732,2
2024-06-14 10:00:07.241,-7.035,-7.035,-0.42000000000000004,-0.017324,-0.028059999999999998,-1.1058080000000001,2
2024-06-14 10:00:07.246,-6.825,-6.055,-0.595,-0.025132,-0.039772,-1.106784,2
2024-06-14 10:00:07.251,-6.824999999999999,-4.725,-0.9450000000000001,-0.051727999999999996,-0.033916,-1.0870199999999999,2
2024-06-14 10:00:07.256,-6.755000000000001,-4.97,-1.19,-0.063928,-0.033184,-1.090436,2
2024-06-14 10:00:07.260,-6.37,-6.02,-1.365,-0.05953599999999999,-0.026840000000000003,-1.095316,2
2024-06-14 10:00:07.265,-5.8100000000000005,-8.190000000000001,-1.575,-0.058072,-0.021471999999999998,-1.096536,2
2024-06-14 10:00:07.270,-5.215,-10.115,-1.82,-0.060756,-0.025132,-1.0899480000000001,2
2024-06-14 10:00:07.275,-5.145,-11.41,-2.0999999999999996,-0.063928,-0.030012,-1.090924,2
2024-06-14 10:00:07.280,-4.97,-12.67,-2.38,-0.06734399999999999,-0.027083999999999997,-1.093608,2
2024-06-14 10:00:07.285,-4.795,-13.754999999999999,-2.66,-0.060511999999999996,-0.026108,-1.092632,2
2024-06-14 10:00:07.289,-4.970000000000001,-15.085,-2.7649999999999997,-0.052947999999999995,-0.030256,-1.085312,2
2024-06-14 10:00:07.294,-5.46,-16.205,-2.87,-0.056119999999999996,-0.033671999999999994,-1.081896,2
2024-06-14 10:00:07.299,-5.984999999999999,-17.325000000000003,-2.9050000000000002,-0.057583999999999996,-0.035868,-1.0804319999999998,2
2024-06-14 10:00:07.304,-6.37,-18.549999999999997,-2.835,-0.054167999999999994,-0.034404,-1.082628,2
2024-06-14 10:00:07.309,-6.475,-19.46,-2.8,-0.048068,-0.028304,-1.087508,2
2024-06-14 10:00:07.313,-6.16,-20.23,-2.4850000000000003,-0.045871999999999996,-0.023668,-1.0870199999999999,2
2024-06-14 10:00:07.318,-5.39,-20.72,-2.3449999999999998,-0.04514,-0.02196,-1.087264,2
2024-06-14 10:00:07.323,-4.725,-20.405,-2.1,-0.045871999999999996,-0.018543999999999998,-1.0848239999999998,2
2024-06-14 10:00:07.328,-3.71,-21.0,-1.9249999999999998,-0.04074799999999999,-0.017079999999999998,-1.0821399999999999,2
2024-06-14 10:00:07.333,-2.835,-21.384999999999998,-1.75,-0.039527999999999994,-0.016104,-1.079456,2
2024-06-14 10:00:07.338,-1.9250000000000003,-21.525,-1.575,-0.040015999999999996,-0.020008,-1.082628,2
2024-06-14 10:00:07.342,-0.875,-21.490000000000002,-1.505,-0.037088,-0.016104,-1.0833599999999999,2
2024-06-14 10:00:07.347,0.385,-20.65,-1.435,-0.032452,-0.01464,-1.0777480000000002,2
2024-06-14 10:00:07.352,1.3650000000000002,-20.58,-1.365,-0.032208,-0.0183,-1.0728680000000002,2
2024-06-14 10:00:07.357,1.61,-19.985,-1.365,-0.027327999999999998,-0.029524,-1.0677439999999998,2
2024-06-14 10:00:07.362,1.54,-19.810000000000002,-1.295,-0.027084,-0.023668,-1.0750639999999998,2
2024-06-14 10:00:07.367,1.645,-20.125,-1.26,-0.0244,-0.018788,-1.078236,2
2024-06-14 10:00:07.371,1.96,-20.509999999999998,-1.4,-0.02318,-0.02318,-1.074576,2
2024-06-14 10:00:07.376,2.0999999999999996,-20.615000000000002,-1.295,-0.028791999999999998,-0.020252,-1.079944,2
2024-06-14 10:00:07.381,2.1,-20.825,-1.365,-0.015127999999999999,-0.022692,-1.072624,2
2024-06-14 10:00:07.386,1.7149999999999999,-21.314999999999998,-1.33,-0.027327999999999998,-0.02806,-1.082872,2
2024-06-14 10:00:07.391,1.155,-21.28,-1.4,-0.0026839999999999998,-0.024156000000000004,-1.064328,2
2024-06-14 10:00:07.396,0.8049999999999999,-21.630000000000003,-1.295,-0.028304000000000003,-0.022448,-1.086044,2
2024-06-14 10:00:07.400,0.8049999999999999,-21.665,-1.365,-0.016347999999999998,-0.036112000000000005,-1.06994,2
2024-06-14 10:00:07.405,0.21,-21.525,-1.435,0.004879999999999999,-0.02318,-1.061644,2
2024-06-14 10:00:07.410,-0.175,-21.595,-1.365,-0.024399999999999998,-0.028304000000000003,-1.079944,2
2024-06-14 10:00:07.415,-0.5249999999999999,-21.28,-1.4,-0.0004879999999999997,-0.041724,-1.057496,2
2024-06-14 10:00:07.420,-1.435,-21.14,-1.4,-0.004148,-0.018788,-1.0723799999999999,2
2024-06-14 10:00:07.425,-1.5750000000000002,-21.384999999999998,-1.295,-0.016104,-0.04074799999999999,-1.0772599999999999,2
2024-06-14 10:00:07.429,-2.135,-21.384999999999998,-1.295,0.012444,-0.023668,-1.06506,2
2024-06-14 10:00:07.434,-2.135,-21.42,-1.26,-0.009271999999999999,-0.016104,-1.0894599999999999,2
2024-06-14 10:00:07.439,-2.555,-19.775,-1.435,-0.01586,-0.030012,-1.091412,2
2024-06-14 10:00:07.444,-2.24,-19.950000000000003,-1.4,-0.0068319999999999995,-0.023668,-1.0894599999999999,2
2024-06-14 10:00:07.449,-8.89,-20.335,-4.725,-0.00732,0.016592000000000003,-1.125572,2
2024-06-14 10:00:07.454,0.9450000000000001,-18.83,-0.6299999999999999,0.00366,-0.01586,-1.077992,2
2024-06-14 10:00:07.458,-2.24,-19.145,0.17499999999999993,0.006588,-0.018544,-1.0784799999999999,2
2024-06-14 10:00:07.463,17.29,-67.235,1.26,0.008784,-0.016104,-1.0999519999999998,2
2024-06-14 10:00:07.468,2.485,-17.15,-3.955,-0.001708,-0.012199999999999999,-1.0821399999999999,2
2024-06-14 10:00:07.473,1.9249999999999998,-18.165,-1.3649999999999998,0.008784,-0.009760000000000001,-1.0789680000000001,2
2024-06-14 10:00:07.478,3.85,-18.445,-0.14,0.00854,-0.013908,-1.072624,2
2024-06-14 10:00:07.482,4.0600000000000005,-18.41,-2.555,0.004636,-0.008539999999999999,-1.0728680000000002,2
2024-06-14 10:00:07.487,5.25,-18.935000000000002,-4.34,0.009271999999999999,-0.012688000000000001,-1.0675,2
2024-06-14 10:00:07.492,5.285,-19.46,-2.905,0.015127999999999999,-0.01952,-1.0704280000000002,2
2024-06-14 10:00:07.497,5.145,-19.32,-1.505,0.02196,-0.025619999999999997,-1.067988,2
2024-06-14 10:00:07.502,5.355,-18.97,-2.24,0.019276,-0.024888,-1.0716480000000002,2
2024-06-14 10:00:07.507,5.04,-19.53,-3.8499999999999996,0.018056,-0.030255999999999998,-1.0845799999999999,2
2024-06-14 10:00:07.511,5.32,-20.825,-3.4299999999999997,0.014395999999999999,-0.022448000000000003,-1.082872,2
2024-06-14 10:00:07.516,5.355,-22.715,-2.065,0.00976,-0.020007999999999998,-1.0894599999999999,2
2024-06-14 10:00:07.521,5.914999999999999,-23.205,-2.275,0.016835999999999997,-0.018788,-1.0970239999999998,2
2024-06-14 10:00:07.526,5.635,-24.29,-3.71,0.013907999999999998,-0.016348,-1.103856,2
2024-06-14 10:00:07.531,5.390000000000001,-25.27,-4.235,0.024888,-0.023424,-1.098732,2
2024-06-14 10:00:07.536,4.725,-26.705,-3.57,0.020739999999999998,-0.022204,-1.098976,2
2024-06-14 10:00:07.540,3.78,-26.95,-3.3600000000000003,0.025131999999999998,-0.026352,-1.1009280000000001,2
2024-06-14 10:00:07.545,2.205,-28.630000000000003,-4.27,0.039040000000000005,-0.025132,-1.103856,2
2024-06-14 10:00:07.550,0.20999999999999996,-29.259999999999998,-5.145,0.04636,-0.028304,-1.1102,2
2024-06-14 10:00:07.555,-2.8,-31.78,-5.145,0.043676,-0.02196,-1.119228,2
2024-06-14 10:00:07.560,-4.654999999999999,-33.81,-5.18,0.033671999999999994,-0.015616,-1.117764,2
2024-06-14 10:00:07.565,-5.95,-36.54,-6.58,0.034159999999999996,0.019276,-1.118008,2
2024-06-14 10:00:07.569,-10.325,-39.41,-10.36,0.030987999999999995,0.101016,-1.110932,2
2024-06-14 10:00:07.574,-10.71,-45.57,-11.76,0.047092,-0.033916,-1.1873040000000001,2
2024-06-14 10:00:07.579,-4.76,-46.30500000000001,-10.745000000000001,0.045628,0.007076,-1.19804,3
2024-06-14 10:00:07.584,-2.73,-55.334999999999994,-11.025,0.04392,-0.0017080000000000003,-1.224636,3
2024-06-14 10:00:07.589,2.66,-53.235,-10.43,0.030255999999999998,-0.047092,-1.3585919999999998,3
2024-06-14 10:00:07.594,3.36,-59.15,-7.385,0.03294,-0.20739999999999997,-1.447164,3
2024-06-14 10:00:07.598,0.7000000000000001,-66.85,-5.32,0.029524,0.042943999999999996,-1.283196,3
2024-06-14 10:00:07.603,-6.615,-69.44,-7.98,0.049044000000000004,0.072224,-1.28954,3
2024-06-14 10:00:07.608,-9.065000000000001,-73.01,-9.274999999999999,0.06197599999999999,-0.053436000000000004,-1.315648,3
2024-06-14 10:00:07.613,-12.18,-77.035,-9.100000000000001,0.055144,-0.06588,-1.331508,3
2024-06-14 10:00:07.618,-16.415,-80.08000000000001,-8.645,0.061731999999999995,-0.09662399999999999,-1.3488319999999998,3
2024-06-14 10:00:07.622,-20.09,-84.735,-7.35,0.056364,-0.12614799999999998,-1.399584,3
2024-06-14 10:00:07.627,-23.1,-89.915,-5.460000000000001,0.053924,-0.169092,-1.415444,3
2024-06-14 10:00:07.632,-21.384999999999998,-95.34,-2.905,0.048068,-0.160308,-1.448384,3
2024-06-14 10:00:07.637,-19.95,-101.22,-0.595,0.039284,-0.11907199999999998,-1.427156,3
2024-06-14 10:00:07.642,-20.825,-111.125,0.385,0.038552,-0.023423999999999997,-1.511336,3
2024-06-14 10:00:07.647,-24.15,-118.50999999999999,-0.35,0.060756000000000004,-0.022448,-1.521096,3
2024-06-14 10:00:07.651,-23.485,-125.755,-0.595,0.047091999999999995,-0.011468,-1.5267080000000002,3
2024-06-14 10:00:07.656,-24.43,-134.54,-1.3650000000000002,0.040748,0.017568,-1.555256,3
2024-06-14 10:00:07.661,-22.61,-139.755,-1.8900000000000001,0.042456,0.008052,-1.568432,3
2024-06-14 10:00:07.666,-22.75,-153.86,-2.065,0.037576,0.022692,-1.5554999999999999,3
2024-06-14 10:00:07.671,-23.555,-164.46499999999997,-3.115,0.02928,0.036356,-1.586244,3
2024-06-14 10:00:07.676,-32.655,-174.51,-5.075,0.04953199999999999,-0.024644,-1.635044,3
2024-06-14 10:00:07.680,-35.56,-186.34,-6.02,0.032452,-0.072956,-1.729228,3
2024-06-14 10:00:07.685,-34.79,-198.485,-5.32,0.033916,-0.071492,-1.7685119999999999,3
2024-06-14 10:00:07.690,-34.055,-213.22,-5.495,0.02318,0.058072,-1.7636319999999999,3
2024-06-14 10:00:07.695,-37.415,-225.855,-8.89,0.05978,0.152988,-1.813164,3
2024-06-14 10:00:07.700,-34.58,-242.375,-14.875,0.017811999999999998,0.241316,-1.780956,3
2024-06-14 10:00:07.705,-33.32,-258.755,-20.965,-0.004392,0.21911200000000003,-1.81292,3
2024-06-14 10:00:07.709,-28.28,-277.165,-25.165,-0.043188000000000004,0.183976,-1.7514319999999999,3
2024-06-14 10:00:07.714,-22.505000000000003,-296.94,-29.015,-0.08662,0.100772,-1.8490319999999998,3
2024-06-14 10:00:07.719,-19.32,-311.04499999999996,-29.855,-0.086376,-0.12322,-2.1081600000000003,3
2024-06-14 10:00:07.724,-21.314999999999998,-333.27,-26.67,-0.11956,-0.24278,-1.889292,3
2024-06-14 10:00:07.729,-2.7649999999999997,-346.605,-20.685000000000002,-0.106384,-0.10833599999999999,-2.03374,3
2024-06-14 10:00:07.734,-8.61,-384.3,-18.795,-0.019275999999999998,-0.0068319999999999995,-2.075708,3
2024-06-14 10:00:07.738,-5.494999999999999,-387.73,-18.130000000000003,0.007076,0.067832,-2.299944,3
2024-06-14 10:00:07.743,-10.15,-426.685,-19.04,0.031232,0.014396,-2.2103960000000002,3
2024-06-14 10:00:07.748,-0.875,-434.63,-15.155000000000001,0.024888,0.022203999999999995,-2.675216,3
2024-06-14 10:00:07.753,2.625,-469.385,-15.400000000000002,0.083448,-0.018544,-2.661552,3
2024-06-14 10:00:07.758,21.07,-468.685,-11.27,0.25254,-0.342576,-2.7337759999999998,3
2024-06-14 10:00:07.763,46.935,-496.54499999999996,-0.8399999999999999,0.268644,-0.27449999999999997,-2.870416,3
2024-06-14 10:00:07.767,32.76,-488.91499999999996,9.73,0.16372399999999998,-0.06832,-3.324744,3
2024-06-14 10:00:07.772,14.489999999999998,-480.34000000000003,7.7700000000000005,0.346236,-0.03318399999999999,-3.274724,3
2024-06-14 10:00:07.777,21.91,-476.455,15.995000000000001,0.059292,-0.435052,-2.977532,3
2024-06-14 10:00:07.782,20.229999999999997,-476.45500000000004,23.975,-0.02196,-0.297192,-3.056344,3
2024-06-14 10:00:07.787,23.03,-474.18,27.509999999999998,-0.260592,-0.24814799999999998,-3.1883479999999995,3
2024-06-14 10:00:07.791,28.314999999999998,-470.78499999999997,32.34,-0.477264,-0.213744,-3.222264,3
2024-06-14 10:00:07.796,36.4,-472.57,36.995000000000005,-0.76006,-0.17812,-3.061224,3
2024-06-14 10:00:07.801,41.825,-468.265,41.72,-0.997228,-0.179584,-2.98534,4
2024-06-14 10:00:07.806,37.415000000000006,-462.315,44.379999999999995,-1.266848,-0.116388,-2.821372,4
2024-06-14 10:00:07.811,28.105,-446.32,40.565,-1.5567199999999999,-0.213256,-2.393884,4
2024-06-14 10:00:07.816,16.94,-422.83500000000004,42.56,-1.849276,0.5392399999999999,-1.52866,4
2024-06-14 10:00:07.820,31.990000000000002,-406.56,56.035,-1.385432,0.515328,-0.686616,4
2024-06-14 10:00:07.825,48.230000000000004,-385.875,67.445,-1.3090600000000001,0.33916,-1.36518,4
2024-06-14 10:00:07.830,40.355000000000004,-277.76,68.215,-1.895392,0.064904,-2.44976,4
2024-06-14 10:00:07.835,24.115000000000002,-156.38,67.935,-2.034472,-0.080764,-2.205516,4
2024-06-14 10:00:07.840,14.7,-49.0,66.955,-2.141832,0.162016,-1.628212,4
2024-06-14 10:00:07.845,19.424999999999997,41.125,64.225,-2.086932,0.20813199999999998,-1.48962,4
2024-06-14 10:00:07.849,28.245,101.99000000000001,59.92,-1.80682,0.128832,-1.6423639999999997,4
2024-06-14 10:00:07.854,25.41,137.79500000000002,52.010000000000005,-1.535492,0.155184,-1.662128,4
2024-06-14 10:00:07.859,15.61,152.67000000000002,41.44,-1.347124,0.215452,-1.446432,4
2024-06-14 10:00:07.864,2.9050000000000002,155.155,29.61,-1.250012,0.24863599999999997,-1.219024,4
2024-06-14 10:00:07.869,-10.045,152.45999999999998,16.310000000000002,-1.139236,0.24936799999999998,-1.03822,4
2024-06-14 10:00:07.874,-22.05,148.995,2.1,-1.03456,0.224724,-0.943792,4
2024-06-14 10:00:07.878,-32.725,146.79000000000002,-12.04,-0.963556,0.162016,-0.89182,4
2024-06-14 10:00:07.883,-41.02,147.49,-24.884999999999998,-0.9274439999999999,0.081252,-0.8449720000000001,4
2024-06-14 10:00:07.888,-44.345,151.26999999999998,-35.28,-0.8893800000000001,-0.018543999999999998,-0.784948,4
2024-06-14 10:00:07.893,-41.86,158.165,-42.42,-0.86742,-0.131028,-0.753716,4
2024-06-14 10:00:07.898,-34.545,167.01999999999998,-46.480000000000004,-0.8461919999999999,-0.222528,-0.749812,4
2024-06-14 10:00:07.903,-23.134999999999998,177.66,-47.88,-0.821548,-0.285724,-0.759084,4
2024-06-14 10:00:07.907,-10.045,189.49,-47.18,-0.801296,-0.311832,-0.772748,4
2024-06-14 10:00:07.912,3.1500000000000004,202.44,-45.115,-0.7783599999999999,-0.30744000000000005,-0.7912919999999999,4
2024-06-14 10:00:07.917,14.594999999999999,216.195,-42.315,-0.763476,-0.27815999999999996,-0.818864,4
2024-06-14 10:00:07.922,23.66,230.57999999999998,-39.585,-0.7383439999999999,-0.23668,-0.8398479999999999,4
2024-06-14 10:00:07.927,29.96,244.79000000000002,-37.45,-0.7127239999999999,-0.1891,-0.8732759999999999,4
2024-06-14 10:00:07.933,33.67,259.03499999999997,-35.735,-0.685884,-0.144448,-0.9135359999999999,4
2024-06-14 10:00:07.937,35.245000000000005,272.96500000000003,-34.65,-0.658068,-0.11346,-0.946964,4
2024-06-14 10:00:07.942,35.56,286.51,-33.74,-0.626348,-0.091988,-0.9779519999999999,4
2024-06-14 10:00:07.947,35.49,299.005,-33.32,-0.588284,-0.071004,-1.0067439999999999,4
2024-06-14 10:00:07.952,35.35,310.16999999999996,-33.18,-0.548268,-0.048556,-1.040904,4
2024-06-14 10:00:07.957,34.93,319.9,-33.32,-0.49166,-0.032208,-1.077992,4
2024-06-14 10:00:07.961,34.125,327.91499999999996,-33.46,-0.452376,-0.020008,-1.1155680000000001,4
2024-06-14 10:00:07.966,32.9,334.355,-33.705,-0.404308,-0.011712,-1.145092,4
2024-06-14 10:00:07.971,31.465,339.5,-33.985,-0.359656,-0.0060999999999999995,-1.1702240000000002,4
2024-06-14 10:00:07.976,30.310000000000002,343.245,-34.05500000000001,-0.321592,-0.00024400000000000008,-1.206092,4
2024-06-14 10:00:07.981,29.259999999999998,345.83500000000004,-34.125,-0.288652,0.0053679999999999995,-1.246352,4
2024-06-14 10:00:07.986,28.244999999999997,348.03999999999996,-34.23,-0.261812,0.007808,-1.27978,4
2024-06-14 10:00:07.990,26.985,349.86,-34.334999999999994,-0.24888,0.017568,-1.319064,4
2024-06-14 10:00:07.995,25.305,351.575,-34.51,-0.232532,0.020496,-1.36274,4
2024-06-14 10:00:08.000,23.66,353.53499999999997,-34.965,-0.22399199999999997,0.027327999999999998,-1.413736,4
2024-06-14 10:00:08.005,22.295,355.985,-35.315,-0.216428,0.02806,-1.469612,4
2024-06-14 10:00:08.010,21.28,358.925,-35.980000000000004,-0.20569199999999999,0.02562,-1.523536,4
2024-06-14 10:00:08.014,20.44,361.83000000000004,-36.82,-0.197396,0.035868,-1.586244,4
2024-06-14 10:00:08.019,19.740000000000002,364.84000000000003,-37.835,-0.18324400000000002,0.046848,-1.652368,4
2024-06-14 10:00:08.024,18.619999999999997,368.06,-39.129999999999995,-0.1708,0.059048,-1.7226400000000002,4
2024-06-14 10:00:08.029,16.66,371.525,-40.6,-0.161528,0.069784,-1.7943759999999997,4
2024-06-14 10:00:08.034,13.719999999999999,375.20000000000005,-42.525,-0.153476,0.086864,-1.8646479999999999,4
2024-06-14 10:00:08.039,10.045000000000002,379.155,-44.695,-0.14127599999999998,0.10126,-1.9427279999999998,4
2024-06-14 10:00:08.043,5.529999999999999,382.76,-47.005,-0.12102399999999999,0.11468,-2.040816,4
2024-06-14 10:00:08.048,0.06999999999999995,386.365,-49.455,-0.08662,0.13102799999999998,-2.141832,4
2024-06-14 10:00:08.053,-6.51,389.13,-51.905,-0.04636,0.146156,-2.2374799999999997,4
2024-06-14 10:00:08.058,-14.28,391.475,-54.495000000000005,0.009028000000000001,0.166164,-2.341668,4
2024-06-14 10:00:08.063,-23.03,392.98,-56.980000000000004,0.083448,0.17519200000000001,-2.4546400000000004,4
2024-06-14 10:00:08.067,-33.145,393.26,-59.15,0.16836,0.18592799999999998,-2.565416,4
2024-06-14 10:00:08.072,-43.47,392.0,-60.025000000000006,0.27571999999999997,0.19154,-2.66936,4
2024-06-14 10:00:08.077,-53.375,388.92,-59.29,0.415776,0.18446400000000002,-2.736704,4
2024-06-14 10:00:08.082,-63.14,383.03999999999996,-56.91,0.573888,0.21032800000000001,-2.781844,4
2024-06-14 10:00:08.087,-75.39,374.57,-53.97,0.71492,0.213256,-2.85602,4
2024-06-14 10:00:08.092,-92.47,365.26,-50.959999999999994,0.864736,0.181292,-2.9589879999999997,4
2024-06-14 10:00:08.096,-109.025,355.74,-46.55,1.03334,0.117364,-3.014376,4
2024-06-14 10:00:08.101,-121.695,347.16499999999996,-40.67,1.1589999999999998,0.035868000000000004,-3.047804,4
2024-06-14 10:00:08.106,-129.29,342.19500000000005,-33.11,1.265628,-0.071736,-3.072448,4
2024-06-14 10:00:08.111,-131.18,341.775,-24.465,1.3754279999999999,-0.17665599999999998,-3.0927,4
2024-06-14 10:00:08.116,-126.175,344.71500000000003,-14.77,1.4732720000000001,-0.280844,-3.0834279999999996,4
2024-06-14 10:00:08.120,-115.64,350.14,-4.025,1.577704,-0.360144,-3.029748,4
2024-06-14 10:00:08.125,-100.38,355.95,7.1049999999999995,1.725324,-0.407236,-2.9768,4
2024-06-14 10:00:08.130,-82.18,359.065,18.13,1.912716,-0.417484,-2.89872,4
2024-06-14 10:00:08.135,-63.349999999999994,357.805,28.035,2.1318279999999996,-0.37185599999999996,-2.801364,4
2024-06-14 10:00:08.140,-46.655,350.595,36.084999999999994,2.3614319999999998,-0.295728,-2.69376,4
2024-06-14 10:00:08.145,-33.81,337.645,41.475,2.6047,-0.180804,-2.564928,4
2024-06-14 10:00:08.149,-25.515,319.40999999999997,44.1,2.8548,-0.041235999999999995,-2.403644,4
2024-06-14 10:00:08.154,-21.735,296.65999999999997,43.89,3.06952,0.12541599999999997,-2.212592,4
2024-06-14 10:00:08.159,-20.58,270.725,41.16,3.2952199999999996,0.29768000000000006,-2.03862,4
2024-06-14 10:00:08.164,-23.345,243.81,39.795,3.324744,0.7717719999999999,-1.852692,4
2024-06-14 10:00:08.169,-30.87,221.865,16.765,3.8671559999999996,0.304024,-1.7919359999999998,4
2024-06-14 10:00:08.173,-47.565,197.54,-5.145,4.035272,0.6573359999999999,-1.6692040000000001,4
2024-06-14 10:00:08.178,-72.975,175.385,-26.810000000000002,4.331488,0.564616,-1.590636,4
2024-06-14 10:00:08.183,-101.78,154.0,-46.095,4.631608,0.28791999999999995,-1.535004,4
2024-06-14 10:00:08.188,-122.535,129.325,-57.75,4.854623999999999,-0.138348,-1.4583879999999998,4
2024-06-14 10:00:08.193,-123.41,97.265,-57.155,4.952712,-0.647576,-1.356152,4
2024-06-14 10:00:08.198,-101.08000000000001,56.455,-45.395,4.893176,-1.040416,-1.236592,4
2024-06-14 10:00:08.202,-56.07,9.275,-24.57,4.660156,-1.2634319999999999,-1.138748,4
2024-06-14 10:00:08.207,1.505,-38.115,-0.41999999999999993,4.325144,-1.291736,-1.124108,4
2024-06-14 10:00:08.212,57.155,-79.94,22.47,3.940112,-1.110444,-1.225612,4
2024-06-14 10:00:08.217,97.965,-111.265,40.32,3.540196,-0.786656,-1.3744519999999998,4
2024-06-14 10:00:08.222,124.88,-127.995,53.585,4.607208,1.6738399999999998,-3.687328,4
