time,gyroscope_x,gyroscope_y,gyroscope_z,accelerometer_x,accelerometer_y,accelerometer_z,phase
2024-06-14 10:00:04.239,-56.87499999999999,-154.735,64.89,0.15493999999999997,1.5920999999999998,-3.452355999999999,1
2024-06-14 10:00:04.244,-17.57,-181.475,60.865,-0.9015799999999999,-0.543388,-1.703608,1
2024-06-14 10:00:04.249,-124.39,-196.0,71.61,-0.917928,-0.27938,-0.20544799999999996,1
2024-06-14 10:00:04.254,-110.565,-91.97999999999999,55.58,-0.793732,-0.404308,-1.362496,1
2024-06-14 10:00:04.259,-134.64499999999998,-163.45,45.185,-0.18397600000000003,-0.60756,-1.9729839999999998,1
2024-06-14 10:00:04.263,-111.16,-223.195,20.72,0.23326400000000003,-0.5977999999999999,-2.055212,1
2024-06-14 10:00:04.268,-76.02,-289.485,-11.34,0.351604,-0.529968,-1.9632239999999999,1
2024-06-14 10:00:04.273,-52.57,-275.20500000000004,-44.415,0.258152,-0.628544,-2.0132440000000003,1
2024-06-14 10:00:04.278,-3.01,-242.06,-71.855,0.113704,-0.37429599999999996,-2.01544,1
2024-06-14 10:00:04.283,16.66,-204.68,-86.72999999999999,0.106384,-0.018788,-1.9703,1
2024-06-14 10:00:04.288,23.59,-178.99,-84.63,0.195444,0.34282,-2.064972,1
2024-06-14 10:00:04.292,18.935,-159.88,-64.96000000000001,0.14957199999999998,0.681248,-1.8407360000000001,1
2024-06-14 10:00:04.297,8.19,-147.52499999999998,-38.22,0.06368399999999999,0.7449319999999999,-1.719712,1
2024-06-14 10:00:04.302,13.02,-133.595,-12.88,0.037576,0.6458679999999999,-1.602592,1
2024-06-14 10:00:04.307,13.09,-120.64500000000001,7.665000000000001,0.058804,0.47506799999999993,-1.505968,1
2024-06-14 10:00:04.312,19.39,-105.7,18.9,0.024156000000000004,0.165432,-1.4327679999999998,1
2024-06-14 10:00:04.317,26.775,-92.225,16.835,-0.034892,-0.13176,-1.39568,1
2024-06-14 10:00:04.321,31.08,-81.58500000000001,5.215,-0.052216,-0.255224,-1.298324,1
2024-06-14 10:00:04.326,35.245,-74.76,-7.56,-0.056852,-0.220576,-1.260016,1
2024-06-14 10:00:04.331,34.3,-66.5,-14.559999999999999,-0.042456,-0.09003599999999999,-1.237568,1
2024-06-14 10:00:04.336,32.2,-59.92,-13.965,-0.018788,0.045384,-1.1848640000000001,1
2024-06-14 10:00:04.341,30.765,-53.620000000000005,-8.82,-0.011224,0.11467999999999999,-1.159,1
2024-06-14 10:00:04.346,30.415,-47.39,-3.5349999999999997,-0.0046359999999999995,0.083204,-1.1431399999999998,1
2024-06-14 10:00:04.350,31.01,-42.665,-0.5599999999999999,-0.01464,0.016104000000000004,-1.134844,1
2024-06-14 10:00:04.355,20.615000000000002,-30.240000000000002,-0.7,0.08979200000000001,-0.134932,-1.3481,1
2024-06-14 10:00:04.360,16.59,-17.36,-8.225,0.03294,-0.19642,-1.2407400000000002,2
2024-06-14 10:00:04.365,11.76,-10.815000000000001,-8.399999999999999,0.07417599999999999,-0.07661599999999999,-1.3066200000000001,2
2024-06-14 10:00:04.370,7.945,-10.605,-7.28,-0.055144000000000006,0.008539999999999999,-1.120204,2
2024-06-14 10:00:04.375,7.140000000000001,-9.73,-5.39,-0.099552,0.030744,-1.042368,2
2024-06-14 10:00:04.379,7.49,-9.135,-3.255,-0.055144,0.011224,-1.0592039999999998,2
2024-06-14 10:00:04.384,8.155000000000001,-7.84,-2.7300000000000004,-0.035379999999999995,-0.016592,-1.0836039999999998,2
2024-06-14 10:00:04.389,8.82,-5.32,-2.7649999999999997,-0.043188000000000004,-0.032208,-1.084092,2
2024-06-14 10:00:04.394,8.05,-4.76,-2.205,-0.055875999999999995,-0.02196,-1.0750640000000002,2
2024-06-14 10:00:04.399,7.699999999999999,-6.37,-1.365,-0.074908,-0.013176,-1.051884,2
2024-06-14 10:00:04.403,8.399999999999999,-8.33,-0.875,-0.08735200000000001,-0.020496,-1.050908,2
2024-06-14 10:00:04.408,8.68,-10.57,-0.385,-0.0793,-0.028304,-1.059692,2
2024-06-14 10:00:04.413,8.89,-13.125,0.14,-0.06953999999999999,-0.026839999999999996,-1.0616439999999998,2
2024-06-14 10:00:04.418,9.45,-16.345,0.8049999999999999,-0.074908,-0.02074,-1.04798,2
2024-06-14 10:00:04.423,10.465,-19.18,1.155,-0.080764,-0.016836,-1.04066,2
2024-06-14 10:00:04.428,11.305,-23.064999999999998,1.26,-0.07539599999999999,-0.015127999999999999,-1.04554,2
2024-06-14 10:00:04.432,12.145,-25.655,1.365,-0.06417199999999999,-0.019764000000000004,-1.048956,2
2024-06-14 10:00:04.437,12.95,-27.23,1.4700000000000002,-0.061244,-0.018299999999999997,-1.060912,2
2024-06-14 10:00:04.442,13.545,-29.225,1.6099999999999999,-0.065148,-0.022935999999999998,-1.0631080000000002,2
2024-06-14 10:00:04.447,14.21,-29.925,1.6800000000000002,-0.056852,-0.019276,-1.06506,2
2024-06-14 10:00:04.452,14.455,-30.905,1.6800000000000002,-0.048799999999999996,-0.027572,-1.0701839999999998,2
2024-06-14 10:00:04.457,14.035,-32.584999999999994,1.75,-0.048555999999999995,-0.037576,-1.065548,2
2024-06-14 10:00:04.461,13.754999999999999,-33.39,1.715,-0.04367599999999999,-0.037332000000000004,-1.0596919999999999,2
2024-06-14 10:00:04.466,13.58,-33.32,1.855,-0.045384,-0.038064,-1.0592039999999998,2
2024-06-14 10:00:04.471,13.02,-33.425,1.8900000000000001,-0.040260000000000004,-0.04026,-1.062864,2
2024-06-14 10:00:04.476,12.46,-33.11,1.995,-0.037820000000000006,-0.046116000000000004,-1.0592039999999998,2
2024-06-14 10:00:04.481,11.76,-32.445,1.9249999999999998,-0.038552,-0.047091999999999995,-1.056276,2
2024-06-14 10:00:04.486,10.5,-32.515,1.7850000000000001,-0.0366,-0.051727999999999996,-1.0506639999999998,2
2024-06-14 10:00:04.490,9.52,-33.425,1.7850000000000001,-0.027327999999999998,-0.050996,-1.05652,2
2024-06-14 10:00:04.495,8.575,-33.985,1.8199999999999998,-0.024156,-0.052216,-1.0543239999999998,2
2024-06-14 10:00:04.500,7.63,-33.25,1.7850000000000001,-0.022935999999999998,-0.05246,-1.05164,2
2024-06-14 10:00:04.505,6.720000000000001,-31.22,1.7850000000000001,-0.02074,-0.055144,-1.048468,2
2024-06-14 10:00:04.510,5.6,-30.765,1.645,-0.019276,-0.051239999999999994,-1.04676,2
2024-06-14 10:00:04.515,4.69,-31.955,1.5750000000000002,-0.014884000000000001,-0.055632,-1.044808,2
2024-06-14 10:00:04.519,3.08,-30.555,1.47,-0.017812,-0.05368,-1.05164,2
2024-06-14 10:00:04.524,-0.3500000000000001,-39.76,1.015,-0.014395999999999999,-0.05538799999999999,-1.03334,2
2024-06-14 10:00:04.529,0.10499999999999998,-28.63,1.05,-0.010003999999999999,-0.054412,-1.051396,2
2024-06-14 10:00:04.534,1.82,-28.14,1.155,-0.011712,-0.044652,-1.050908,2
2024-06-14 10:00:04.539,-0.35,-27.965,1.47,-0.00976,-0.046116000000000004,-1.052128,2
2024-06-14 10:00:04.546,0.42,-14.385,1.4,-0.002196,-0.050264,-1.0506639999999998,2
2024-06-14 10:00:04.550,2.03,-30.695,1.645,-0.002928,-0.041235999999999995,-1.0494439999999998,2
2024-06-14 10:00:04.555,-2.03,-32.410000000000004,1.12,0.00122,-0.041968,-1.048956,2
2024-06-14 10:00:04.560,0.7,-32.34,0.77,0.004636,-0.04392,-1.05164,2
2024-06-14 10:00:04.565,-1.855,-34.265,0.45499999999999996,0.00732,-0.044164,-1.0616439999999998,2
2024-06-14 10:00:04.570,-1.47,-34.755,0.315,0.008052,-0.042212,-1.061888,2
2024-06-14 10:00:04.574,-0.03499999999999992,-34.370000000000005,0.245,0.016348,-0.049776,-1.05408,2
2024-06-14 10:00:04.579,-2.835,-35.21,0.21000000000000002,0.01952,-0.040748000000000006,-1.068232,2
2024-06-14 10:00:04.584,-1.96,-32.375,-0.385,0.025132,-0.043188,-1.055544,2
2024-06-14 10:00:04.589,-2.24,-31.92,-0.63,0.02318,-0.045871999999999996,-1.0543239999999998,2
2024-06-14 10:00:04.594,-2.24,-32.41,-0.595,0.020007999999999998,-0.044163999999999995,-1.06384,2
2024-06-14 10:00:04.598,-0.245,-31.29,-0.455,0.024644,-0.040748,-1.060668,2
2024-06-14 10:00:04.603,-0.7,-31.15,-0.245,0.028304,-0.044164,-1.0579839999999998,2
2024-06-14 10:00:04.608,0.06999999999999999,-30.555,-0.21,0.032695999999999996,-0.0427,-1.0557879999999997,2
2024-06-14 10:00:04.613,0.5950000000000001,-30.310000000000002,-0.24500000000000002,0.032696,-0.039772,-1.0667680000000002,2
2024-06-14 10:00:04.618,0.945,-30.905,-0.245,0.03440399999999999,-0.034404000000000004,-1.0655480000000002,2
2024-06-14 10:00:04.622,2.17,-31.185000000000002,-0.21000000000000002,0.033428,-0.043432,-1.059692,2
2024-06-14 10:00:04.627,2.065,-31.325000000000003,0.0,0.031476000000000004,-0.04636,-1.064328,2
2024-06-14 10:00:04.632,2.135,-31.990000000000002,0.07,0.03489199999999999,-0.048312,-1.070672,2
2024-06-14 10:00:04.637,2.52,-32.445,0.315,0.0427,-0.047824,-1.0748199999999999,2
2024-06-14 10:00:04.642,2.905,-33.53,0.49,0.046604,-0.048556,-1.07116,2
2024-06-14 10:00:04.647,3.675,-33.285,0.77,0.052216,-0.046848,-1.082384,2
2024-06-14 10:00:04.651,4.9350000000000005,-31.5,1.12,0.053192,-0.039772,-1.086532,2
2024-06-14 10:00:04.656,6.02,-30.939999999999998,1.26,0.054655999999999996,-0.04148,-1.079212,2
2024-06-14 10:00:04.661,7.525,-29.855,1.26,0.052704,-0.037332,-1.0799439999999998,2
2024-06-14 10:00:04.666,8.96,-29.575000000000003,1.26,0.05612,-0.045383999999999994,-1.091412,2
2024-06-14 10:00:04.671,10.325,-30.450000000000003,1.96,0.061488,-0.067832,-1.06018,2
2024-06-14 10:00:04.675,12.215,-30.625,2.695,0.058072,-0.057095999999999994,-1.0814080000000001,2
2024-06-14 10:00:04.680,13.545,-30.555,3.2199999999999998,0.06270799999999999,-0.066368,-1.075552,2
2024-06-14 10:00:04.685,18.165,-31.009999999999998,4.6899999999999995,0.057095999999999994,-0.10711599999999999,-1.103124,2
2024-06-14 10:00:04.690,23.310000000000002,-33.915,7.07,0.06124399999999999,-0.088084,-1.111664,2
2024-06-14 10:00:04.695,26.39,-36.33,8.225,0.052216,-0.077104,-1.155828,2
2024-06-14 10:00:04.699,30.52,-37.275000000000006,9.309999999999999,0.05246000000000001,-0.053924,-1.167052,2
2024-06-14 10:00:04.704,33.495,-38.78,9.940000000000001,0.048556,-0.07319999999999999,-1.156804,2
2024-06-14 10:00:04.709,38.115,-41.09,11.34,0.052216,-0.086864,-1.1733959999999999,2
2024-06-14 10:00:04.714,42.0,-44.975,12.215,0.06417199999999999,-0.038307999999999995,-1.156316,2
2024-06-14 10:00:04.719,44.695,-48.370000000000005,15.645,-0.032452,0.233752,-1.163636,2
2024-06-14 10:00:04.723,49.28,-51.52,32.27,0.361608,-0.806908,-1.347368,2
2024-06-14 10:00:04.728,42.84,-54.355000000000004,11.06,0.12566,-0.214964,-1.309304,2
2024-06-14 10:00:04.733,20.755,-62.79,5.04,0.06466,0.0019519999999999989,-1.2956400000000001,2
2024-06-14 10:00:04.738,17.009999999999998,-71.12,4.97,0.033671999999999994,-0.209596,-1.342244,3
2024-06-14 10:00:04.743,15.89,-77.28,7.385,0.06344,-0.13786,-1.337608,3
2024-06-14 10:00:04.748,13.58,-84.805,7.7700000000000005,0.06758799999999998,-0.152012,-1.3481,3
2024-06-14 10:00:04.752,15.715,-90.3,9.24,0.075152,-0.131272,-1.341756,3
2024-06-14 10:00:04.757,17.36,-94.67500000000001,9.695,0.090036,-0.07808,-1.363472,3
2024-06-14 10:00:04.762,21.07,-98.42,9.695,0.094916,-0.061976,-1.369572,3
2024-06-14 10:00:04.767,25.9,-102.655,9.8,0.10345599999999999,-0.05660799999999999,-1.3649360000000001,3
2024-06-14 10:00:04.772,30.625,-107.275,9.695,0.113704,-0.065148,-1.375916,3
2024-06-14 10:00:04.776,36.47,-112.035,9.905,0.104432,-0.063928,-1.403,3
2024-06-14 10:00:04.781,41.230000000000004,-118.125,9.59,0.09759999999999999,-0.016104,-1.40178,3
2024-06-14 10:00:04.786,42.21,-125.37,8.12,0.08759600000000001,-0.0026840000000000006,-1.441796,3
2024-06-14 10:00:04.791,42.595,-132.475,6.58,0.091256,-0.018056000000000003,-1.4886439999999999,3
2024-06-14 10:00:04.796,43.89,-141.54,5.74,0.079788,-0.043432,-1.5181680000000002,3
2024-06-14 10:00:04.800,44.239999999999995,-150.43,4.865,0.07808000000000001,-0.06344,-1.534272,3
2024-06-14 10:00:04.805,44.415,-161.42000000000002,4.585,0.070516,-0.092476,-1.558672,3
2024-06-14 10:00:04.810,43.33,-173.635,4.725,0.06124399999999999,-0.099552,-1.600396,3
2024-06-14 10:00:04.815,39.235,-186.41,4.2700000000000005,0.058316,-0.088816,-1.6540759999999999,3
2024-06-14 10:00:04.820,37.065,-200.375,4.375,0.04636,-0.17397200000000002,-1.690188,3
2024-06-14 10:00:04.825,42.209999999999994,-214.515,6.58,0.060511999999999996,-0.168848,-1.758508,3
2024-06-14 10:00:04.829,45.955,-230.335,7.735,0.056119999999999996,-0.155916,-1.836832,3
2024-06-14 10:00:04.834,50.61,-247.8,9.03,0.040748000000000006,-0.154208,-1.9197920000000002,3
2024-06-14 10:00:04.839,54.285,-265.685,10.115,0.008052,-0.131272,-1.960052,3
2024-06-14 10:00:04.844,49.980000000000004,-286.405,10.395,0.040992,-0.186172,-2.0737560000000004,3
2024-06-14 10:00:04.849,55.650000000000006,-304.78,13.825,0.039528,-0.362828,-2.085712,3
2024-06-14 10:00:04.853,61.635,-324.65999999999997,19.88,0.01952,-0.383812,-2.209908,3
2024-06-14 10:00:04.858,58.275,-346.04499999999996,24.5,-0.0034159999999999998,-0.36185199999999995,-2.2440679999999995,3
2024-06-14 10:00:04.863,58.239999999999995,-356.685,29.47,-0.086864,-0.368928,-2.2872559999999997,3
2024-06-14 10:00:04.868,61.32,-383.21500000000003,31.71,-0.10003999999999999,-0.171532,-2.446588,3
2024-06-14 10:00:04.873,54.95,-407.435,29.33,-0.009516,0.056364000000000004,-2.5627319999999996,3
2024-06-14 10:00:04.877,48.545,-428.33000000000004,24.045,0.19154,0.163236,-2.7532959999999997,3
2024-06-14 10:00:04.882,36.05,-438.34,17.78,0.227408,0.241316,-3.1183199999999998,3
2024-06-14 10:00:04.887,36.995000000000005,-445.445,9.065,0.12566,0.015372000000000004,-3.08904,3
2024-06-14 10:00:04.892,25.060000000000002,-508.16499999999996,4.83,0.183,-0.153476,-3.5667920000000004,3
2024-06-14 10:00:04.897,71.12,-445.48,9.24,0.095892,0.145424,-3.178832,3
2024-06-14 10:00:04.901,37.03,-459.655,1.155,-0.108092,0.19202799999999998,-3.02926,3
2024-06-14 10:00:04.906,31.955,-464.45000000000005,-1.19,-0.29548399999999997,0.130052,-3.5297039999999997,3
2024-06-14 10:00:04.911,2.275,-462.525,-8.365,-0.363316,0.30158399999999996,-3.23422,3
2024-06-14 10:00:04.916,-17.465,-473.79499999999996,-16.765,-0.720776,0.110044,-3.290828,3
2024-06-14 10:00:04.921,-24.15,-476.315,-19.355,-0.9506239999999999,-0.06929600000000001,-3.308396,4
2024-06-14 10:00:04.926,-32.620000000000005,-480.865,-22.89,-1.302228,-0.182512,-3.1834679999999995,4
2024-06-14 10:00:04.930,-28.314999999999998,-470.75,-22.505,-1.4388680000000003,-0.372344,-2.933856,4
2024-06-14 10:00:04.935,-27.825000000000003,-444.91999999999996,-17.92,-1.822436,-0.516548,-2.3431319999999998,4
2024-06-14 10:00:04.940,-40.25,-398.195,-13.86,-2.069364,-0.47458,-1.5413480000000002,4
2024-06-14 10:00:04.945,-56.245,-359.41499999999996,-10.535,-2.168184,-0.414556,-0.94428,4
2024-06-14 10:00:04.950,-87.815,-348.74,25.549999999999997,-1.1411879999999999,-0.326472,-0.05734,4
2024-06-14 10:00:04.954,-94.045,-359.625,5.004999999999999,-1.2744119999999999,-0.918172,-2.4517119999999997,4
2024-06-14 10:00:04.959,-108.045,-141.68,1.33,-2.065948,0.165188,-2.9829,4
2024-06-14 10:00:04.964,-103.495,-113.11999999999999,18.445,-2.0615559999999995,0.13541999999999998,-1.1894999999999998,4
2024-06-14 10:00:04.969,-108.91999999999999,-71.225,47.425,-1.769976,-0.403088,-1.679208,4
2024-06-14 10:00:04.974,-119.66499999999999,8.645,48.44,-1.593076,-0.539728,-1.726544,4
2024-06-14 10:00:04.978,-111.545,35.035,59.010000000000005,-1.489376,-0.385764,-1.512312,4
2024-06-14 10:00:04.983,-93.24000000000001,69.16,75.845,-1.330776,-0.4209,-1.26758,4
2024-06-14 10:00:04.988,-78.82,78.01499999999999,88.97,-1.213168,-0.36722,-1.080432,4
2024-06-14 10:00:04.993,-67.305,92.12,99.53999999999999,-1.1016599999999999,-0.316712,-0.9889319999999999,4
2024-06-14 10:00:04.998,-59.57,97.93,106.47,-1.02724,-0.238144,-0.8283799999999999,4
2024-06-14 10:00:05.003,-59.43000000000001,104.895,110.03999999999999,-0.962824,-0.17324,-0.785192,4
2024-06-14 10:00:05.007,-62.405,109.9,110.63499999999999,-0.913048,-0.132248,-0.675392,4
2024-06-14 10:00:05.012,-68.11,114.625,108.885,-0.87596,-0.09272,-0.636108,4
2024-06-14 10:00:05.017,-73.255,120.715,105.035,-0.8393600000000001,-0.06392799999999998,-0.6082919999999999,4
2024-06-14 10:00:05.022,-78.36500000000001,128.73,99.4,-0.80886,-0.045628,-0.6046320000000001,4
2024-06-14 10:00:05.027,-83.93,139.3,91.875,-0.7771399999999999,-0.036356,-0.6031679999999999,4
2024-06-14 10:00:05.031,-88.76,150.5,82.95,-0.752496,-0.030987999999999998,-0.610244,4
2024-06-14 10:00:05.036,-94.04499999999999,162.32999999999998,72.765,-0.739808,-0.045383999999999994,-0.61976,4
2024-06-14 10:00:05.041,-98.035,173.81,62.335,-0.722728,-0.075884,-0.633912,4
2024-06-14 10:00:05.046,-99.995,185.57,52.045,-0.6956439999999999,-0.111508,-0.6512359999999999,4
2024-06-14 10:00:05.051,-99.96000000000001,198.41500000000002,42.42,-0.674904,-0.152256,-0.668072,4
2024-06-14 10:00:05.055,-97.58,210.245,33.95,-0.6622159999999999,-0.17592400000000002,-0.697352,4
2024-06-14 10:00:05.060,-94.71000000000001,222.46,25.305,-0.6117079999999999,-0.267424,-0.73078,4
2024-06-14 10:00:05.065,-89.42500000000001,233.66,17.815,-0.596336,-0.27205999999999997,-0.7686,4
2024-06-14 10:00:05.070,-83.23,245.63,11.375,-0.5668119999999999,-0.30256000000000005,-0.7827519999999999,4
2024-06-14 10:00:05.075,-76.405,256.935,5.8100000000000005,-0.5363119999999999,-0.315736,-0.8357,4
2024-06-14 10:00:05.079,-68.91499999999999,269.92,0.455,-0.512888,-0.319152,-0.8832800000000001,4
2024-06-14 10:00:05.084,-62.965,281.71500000000003,-4.935,-0.486292,-0.30988,-0.920612,4
2024-06-14 10:00:05.089,-58.625,294.56,-10.395,-0.46116,-0.29280000000000006,-0.964532,4
2024-06-14 10:00:05.091,-55.894999999999996,305.83,-15.68,-0.43602799999999997,-0.27693999999999996,-1.0140639999999999,4
2024-06-14 10:00:05.096,-54.705,317.065,-20.755000000000003,-0.401136,-0.270352,-1.0618879999999997,4
2024-06-14 10:00:05.101,-54.215,326.83,-25.2,-0.37454,-0.27083999999999997,-1.111664,4
2024-06-14 10:00:05.105,-53.795,334.775,-29.225,-0.345504,-0.279624,-1.159,4
2024-06-14 10:00:05.110,-52.745000000000005,342.335,-32.2,-0.32086000000000003,-0.29499600000000004,-1.2112159999999998,4
2024-06-14 10:00:05.115,-50.785,349.055,-34.3,-0.289872,-0.30622,-1.2612359999999998,4
2024-06-14 10:00:05.120,-48.405,353.99,-35.629999999999995,-0.26839999999999997,-0.313296,-1.315648,4
2024-06-14 10:00:05.125,-45.43,358.19,-36.33,-0.24497600000000003,-0.325252,-1.36762,4
2024-06-14 10:00:05.130,-42.385,362.39,-36.61,-0.22716399999999998,-0.33232799999999996,-1.42496,4
2024-06-14 10:00:05.134,-39.41,366.135,-36.19,-0.212036,-0.33696399999999993,-1.49572,4
2024-06-14 10:00:05.139,-35.875,370.51,-35.245000000000005,-0.21228,-0.34184400000000004,-1.562088,4
2024-06-14 10:00:05.144,-32.06,376.845,-33.635000000000005,-0.21472000000000002,-0.339404,-1.627236,4
2024-06-14 10:00:05.149,-28.384999999999998,383.53,-31.465000000000003,-0.213988,-0.34038,-1.703364,4
2024-06-14 10:00:05.154,-24.57,390.32,-28.455,-0.215208,-0.34208799999999995,-1.780468,4
2024-06-14 10:00:05.159,-20.965,398.37,-24.990000000000002,-0.213256,-0.34599199999999997,-1.85806,4
2024-06-14 10:00:05.163,-17.255,406.17499999999995,-21.0,-0.201056,-0.34526,-1.935652,4
2024-06-14 10:00:05.168,-13.265,412.19500000000005,-16.45,-0.178852,-0.345992,-2.008364,4
2024-06-14 10:00:05.173,-8.924999999999999,416.64,-11.2,-0.13907999999999998,-0.362096,-2.087664,4
2024-06-14 10:00:05.178,-2.38,418.91499999999996,-4.97,-0.076128,-0.38674,-2.1493960000000003,4
2024-06-14 10:00:05.183,7.595000000000001,416.395,2.87,0.013908,-0.44334799999999996,-2.206248,4
2024-06-14 10:00:05.188,22.575,410.515,12.809999999999999,0.11297199999999999,-0.516548,-2.311656,4
2024-06-14 10:00:05.192,43.925,401.52,24.57,0.229116,-0.573888,-2.419016,4
2024-06-14 10:00:05.197,67.86500000000001,390.075,36.61,0.33989199999999997,-0.60878,-2.5329639999999998,4
2024-06-14 10:00:05.202,91.38499999999999,376.66999999999996,47.985,0.453352,-0.599752,-2.615436,4
2024-06-14 10:00:05.207,112.21000000000001,364.49,57.855000000000004,0.575108,-0.5429,-2.62544,4
2024-06-14 10:00:05.212,130.48000000000002,351.225,65.66,0.658312,-0.44944799999999996,-2.64984,4
2024-06-14 10:00:05.217,150.29000000000002,340.655,72.66,0.7415160000000001,-0.394304,-2.9204359999999996,4
2024-06-14 10:00:05.222,160.755,331.94,78.785,0.9037759999999999,-0.271084,-3.052196,4
2024-06-14 10:00:05.226,156.485,325.255,81.9,0.98332,-0.125416,-3.061712,4
2024-06-14 10:00:05.231,142.24,325.045,82.495,1.0553,-0.024644,-3.039264,4
2024-06-14 10:00:05.236,124.565,330.225,81.27000000000001,1.163636,0.029523999999999995,-3.0517079999999996,4
2024-06-14 10:00:05.241,106.08500000000001,336.875,79.065,1.293688,0.045384,-3.071228,4
2024-06-14 10:00:05.246,88.58500000000001,344.12,76.055,1.444724,0.047336,-3.042436,4
2024-06-14 10:00:05.251,72.03,350.525,72.41499999999999,1.6033240000000002,0.05246,-2.986072,4
2024-06-14 10:00:05.255,55.93,353.325,67.34,1.75436,0.072712,-2.8906680000000002,4
2024-06-14 10:00:05.260,39.795,353.91999999999996,60.235,1.911252,0.065392,-2.7598839999999996,4
2024-06-14 10:00:05.265,25.375,351.89,51.625,2.074,0.035136,-2.641056,4
2024-06-14 10:00:05.270,17.045,346.57,43.085,2.241872,-0.017811999999999998,-2.5234479999999997,4
2024-06-14 10:00:05.275,16.905,337.505,35.56,2.39364,-0.075396,-2.4038880000000002,4
2024-06-14 10:00:05.280,23.835,324.94,29.295,2.5449200000000003,-0.09759999999999999,-2.2728599999999997,4
2024-06-14 10:00:05.284,33.775,308.21000000000004,24.115000000000002,2.665212,-0.07930000000000001,-2.143784,4
2024-06-14 10:00:05.289,42.665000000000006,288.365,18.655,2.7859920000000002,-0.021471999999999998,-2.018612,4
2024-06-14 10:00:05.294,47.53,266.735,12.635000000000002,2.9248279999999998,0.053924,-1.9441920000000001,4
2024-06-14 10:00:05.299,48.72,244.96499999999997,6.51,3.1058759999999994,0.139324,-1.882216,4
2024-06-14 10:00:05.304,47.599999999999994,224.875,0.6649999999999999,3.3398719999999997,0.221308,-1.81048,4
2024-06-14 10:00:05.309,42.21,203.76999999999998,-4.095000000000001,3.6363319999999995,0.309392,-1.71532,4
2024-06-14 10:00:05.313,32.515,181.195,-7.35,3.9474319999999996,0.411872,-1.6042999999999998,4
2024-06-14 10:00:05.318,19.88,154.735,-9.205,4.230472000000001,0.502884,-1.4730280000000002,4
2024-06-14 10:00:05.323,4.76,121.555,-10.254999999999999,4.423964,0.630008,-1.380064,4
2024-06-14 10:00:05.328,-11.935,83.755,-10.5,4.503996000000001,0.7488360000000001,-1.307108,4
2024-06-14 10:00:05.333,-30.1,40.39,-10.71,4.433236,0.837652,-1.288564,4
2024-06-14 10:00:05.338,-49.28,-2.38,-10.92,4.21876,0.866932,-1.294664,4
2024-06-14 10:00:05.342,-68.46000000000001,-41.44,-11.445,3.921812,0.8357,-1.2683119999999999,4
2024-06-14 10:00:05.347,-84.875,-74.76,-12.25,3.5711839999999997,0.73932,-1.315648,4
2024-06-14 10:00:05.352,-97.545,-97.895,-13.02,3.238612,0.605608,-1.3607879999999999,4
2024-06-14 10:00:05.357,-108.045,-114.275,-13.37,2.935076,0.47897199999999995,-1.409832,4
2024-06-14 10:00:05.362,-115.255,-123.9,-13.09,2.665456,0.35746,-1.4644879999999998,4
2024-06-14 10:00:05.367,-119.14,-130.865,-12.915,2.444392,0.236192,-1.511092,4
2024-06-14 10:00:05.371,-117.915,-135.83499999999998,-12.600000000000001,2.2045399999999997,0.082716,-1.598932,4
2024-06-14 10:00:05.376,17.92,-293.055,1.085,-0.24961199999999997,-0.23838800000000004,-9.583344,4
