time,gyroscope_x,gyroscope_y,gyroscope_z,accelerometer_x,accelerometer_y,accelerometer_z,phase
2024-06-14 10:58:55.612,-165.55,-471.03,-38.22,3.251544,0.571936,-6.299104,1
2024-06-14 10:58:55.617,-179.48,-300.405,-47.67,-2.11426,-0.31232,3.1134399999999998,1
2024-06-14 10:58:55.622,-156.45,-347.725,-33.075,0.685152,0.27157200000000004,-1.824876,1
2024-06-14 10:58:55.627,-195.16,-306.845,-36.365,-0.74542,0.24009599999999998,-1.332972,1
2024-06-14 10:58:55.631,-187.53,-349.72,-34.09,-0.34111199999999997,0.19129599999999997,-1.382504,1
2024-06-14 10:58:55.636,-151.97,-346.57,-30.240000000000002,-0.18348799999999998,0.382348,-1.739964,1
2024-06-14 10:58:55.641,-134.155,-350.875,-25.935000000000002,0.205936,0.255956,-1.588684,1
2024-06-14 10:58:55.646,-119.84,-332.115,-25.585,0.496052,0.23058,-1.82512,1
2024-06-14 10:58:55.651,-102.41,-306.985,-27.58,0.541924,0.29377600000000004,-1.96176,1
2024-06-14 10:58:55.656,-83.58,-277.865,-25.55,0.569984,0.222528,-1.820972,1
2024-06-14 10:58:55.660,-66.675,-251.89499999999998,-20.16,0.404064,0.332572,-2.195024,1
2024-06-14 10:58:55.665,-53.375,-214.89999999999998,-19.53,0.256932,0.133956,-2.1935599999999997,1
2024-06-14 10:58:55.670,-49.805,-178.14999999999998,-18.445,0.257908,0.14127599999999998,-2.289208,1
2024-06-14 10:58:55.675,-42.35,-125.895,-13.615000000000002,0.256444,0.1769,-2.40706,1
2024-06-14 10:58:55.680,-34.894999999999996,-105.69999999999999,-8.855,0.20618,0.029036,-2.128168,1
2024-06-14 10:58:55.685,-34.474999999999994,-88.025,-10.43,0.292068,0.043188,-1.9339439999999999,1
2024-06-14 10:58:55.689,-24.814999999999998,-76.615,-10.675,0.16226,0.093208,-1.6108879999999999,1
2024-06-14 10:58:55.694,-15.68,-62.755,-9.905000000000001,0.206424,0.144936,-1.6008839999999998,1
2024-06-14 10:58:55.699,-7.42,-38.955,-6.58,0.09101200000000001,0.162992,-1.350784,1
2024-06-14 10:58:55.704,-2.52,-34.754999999999995,-2.52,0.069052,0.04514,-1.153388,1
2024-06-14 10:58:55.709,-0.385,-34.405,-1.33,0.088572,0.081252,-1.084092,1
2024-06-14 10:58:55.714,2.765,-29.854999999999997,0.98,-0.029036000000000003,0.134444,-1.0287039999999998,1
2024-06-14 10:58:55.718,2.45,-25.13,0.8049999999999999,-0.06197599999999999,0.091012,-1.0340719999999999,1
2024-06-14 10:58:55.723,1.54,-20.439999999999998,-0.10500000000000001,0.06344,-0.08466800000000001,-1.000156,1
2024-06-14 10:58:55.728,-1.295,-19.845,-0.8399999999999999,0.081252,-0.1769,-1.025532,2
2024-06-14 10:58:55.733,-4.2700000000000005,-17.15,-1.75,0.067344,-0.0060999999999999995,-1.112884,2
2024-06-14 10:58:55.738,-8.645,-16.695,-1.995,0.054655999999999996,0.037576,-1.126548,2
2024-06-14 10:58:55.743,-8.365,-15.435,-1.6800000000000002,0.06734399999999999,0.019031999999999997,-1.118496,2
2024-06-14 10:58:55.747,-7.699999999999999,-15.575,-1.435,0.040991999999999994,0.031231999999999996,-1.1141040000000002,2
2024-06-14 10:58:55.752,-3.92,-16.625,-0.875,0.005856,0.050264,-1.076772,2
2024-06-14 10:58:55.757,0.77,-18.655,-0.49,-0.0075639999999999995,0.05245999999999999,-1.061156,2
2024-06-14 10:58:55.762,4.305,-21.035,-0.175,0.004148,0.043432,-1.0543239999999998,2
2024-06-14 10:58:55.767,7.0,-23.939999999999998,-0.42000000000000004,-0.019764,0.066124,-1.0604239999999998,2
2024-06-14 10:58:55.771,8.4,-26.32,-0.875,0.060023999999999994,-0.10858,-1.026996,2
2024-06-14 10:58:55.776,8.33,-30.345,-0.385,0.000976,0.024399999999999998,-1.048224,2
2024-06-14 10:58:55.781,8.68,-33.425,-1.225,0.043188,-0.083448,-1.014064,2
2024-06-14 10:58:55.786,9.940000000000001,-36.084999999999994,-0.105,0.006832,0.044652,-1.0433439999999998,2
2024-06-14 10:58:55.791,11.06,-37.8,-0.77,0.027084000000000004,-0.05880400000000001,-1.0323639999999998,2
2024-06-14 10:58:55.796,13.125,-39.935,-0.105,0.030011999999999994,0.061488,-1.058472,2
2024-06-14 10:58:55.800,14.805,-39.864999999999995,-0.63,0.065636,-0.065636,-1.023336,2
2024-06-14 10:58:55.805,16.485,-40.39,-0.5950000000000001,-0.013663999999999999,0.094916,-1.057252,2
2024-06-14 10:58:55.810,17.045,-39.41,-0.45499999999999996,0.0019519999999999997,0.07076,-1.054568,2
2024-06-14 10:58:55.815,17.15,-38.255,-0.63,0.029524,0.08417999999999998,-1.040416,2
2024-06-14 10:58:55.820,17.29,-38.254999999999995,-0.665,0.06466,-0.013907999999999998,-1.02846,2
2024-06-14 10:58:55.825,17.71,-36.995000000000005,-0.315,0.028303999999999996,0.062708,-1.037,2
2024-06-14 10:58:55.829,17.15,-38.254999999999995,-0.665,0.010004000000000002,0.039284,-1.0309,2
2024-06-14 10:58:55.834,16.765,-37.17,-0.5599999999999999,0.138592,-0.040748,-0.97844,2
2024-06-14 10:58:55.839,16.38,-38.045,-0.595,0.057584,-0.0078080000000000024,-1.0248,2
2024-06-14 10:58:55.844,15.925,-36.084999999999994,-0.49,0.18568400000000002,-0.029035999999999996,-0.9655079999999999,2
2024-06-14 10:58:55.849,15.68,-38.675,-0.595,0.025132,0.0029279999999999966,-1.0372439999999998,2
2024-06-14 10:58:55.854,15.33,-38.465,-0.35,0.18544,-0.035868,-0.9579440000000001,2
2024-06-14 10:58:55.858,13.405000000000001,-40.495000000000005,0.03500000000000002,-0.030743999999999997,-0.010979999999999998,-1.0945839999999998,2
2024-06-14 10:58:55.863,12.845,-39.725,0.03499999999999999,-0.005611999999999999,0.012688000000000001,-1.0291919999999999,2
2024-06-14 10:58:55.868,10.395,-40.6,0.28,-0.034404000000000004,0.06417199999999999,-1.031632,2
2024-06-14 10:58:55.873,9.344999999999999,-43.155,0.10499999999999998,-0.05392399999999999,0.028548,-1.0677439999999998,2
2024-06-14 10:58:55.878,7.630000000000001,-43.155,0.42,0.089792,0.003904,-0.9974719999999999,2
2024-06-14 10:58:55.883,6.335,-40.495000000000005,1.0150000000000001,-0.028547999999999997,-0.033184,-1.054568,2
2024-06-14 10:58:55.887,4.550000000000001,-43.61,1.225,0.018544000000000005,-0.06661199999999999,-1.087996,2
2024-06-14 10:58:55.892,2.065,-43.19,1.12,0.0488,0.012444,-1.01382,2
2024-06-14 10:58:55.897,1.4,-39.27,2.065,0.16860399999999998,-0.12297599999999999,-1.049688,2
2024-06-14 10:58:55.902,-0.10499999999999998,-44.730000000000004,1.4,0.044652,0.019520000000000003,-0.9828319999999999,2
2024-06-14 10:58:55.907,8.82,31.255,2.415,0.27694,-0.056852,-0.897432,2
2024-06-14 10:58:55.912,1.12,-47.18,1.295,0.062464,0.031232000000000003,-0.9638,2
2024-06-14 10:58:55.916,-5.6000000000000005,-42.525,2.205,0.016591999999999996,0.0427,-0.942816,2
2024-06-14 10:58:55.921,-6.16,-44.625,1.505,0.101992,0.016836,-0.9799039999999999,2
2024-06-14 10:58:55.926,-3.5,-42.209999999999994,2.8,0.26474,-0.108824,-0.970876,2
2024-06-14 10:58:55.931,-6.475,-41.79,1.995,0.08515600000000001,0.036356,-0.9713639999999999,2
2024-06-14 10:58:55.936,-4.06,-39.76,1.96,0.113216,0.0068319999999999995,-0.964532,2
2024-06-14 10:58:55.940,-4.725,-37.94,2.24,0.2989,-0.016835999999999997,-0.916952,2
2024-06-14 10:58:55.945,-7.245,-36.19,1.575,0.113704,-0.01098,-0.9799039999999999,2
2024-06-14 10:58:55.950,-6.4399999999999995,-33.845,1.855,0.017323999999999992,0.032208,-1.027728,2
2024-06-14 10:58:55.955,-8.715,-32.760000000000005,1.8900000000000001,0.13541999999999998,0.024156,-0.95282,2
2024-06-14 10:58:55.960,-9.030000000000001,-33.775,1.96,0.142008,-0.014396,-0.9840519999999999,2
2024-06-14 10:58:55.965,-10.079999999999998,-33.11,2.17,0.132004,-0.00732,-0.9994240000000001,2
2024-06-14 10:58:55.969,-12.075,-31.885,2.6950000000000003,0.112484,-0.055875999999999995,-1.0352919999999999,2
2024-06-14 10:58:55.974,-13.754999999999999,-32.13,2.695,0.13542,-0.027083999999999997,-0.9823439999999999,2
2024-06-14 10:58:55.979,-16.66,-32.129999999999995,3.3600000000000003,0.14810800000000002,-0.012688000000000001,-0.981368,2
2024-06-14 10:58:55.984,-19.95,-31.36,3.8499999999999996,0.143716,-0.011467999999999999,-0.990396,2
2024-06-14 10:58:55.989,-21.105,-31.29,4.305,0.148596,0.00122,-0.9840519999999999,2
2024-06-14 10:58:55.994,-22.085,-30.939999999999998,4.375,0.154208,0.00366,-0.989176,2
2024-06-14 10:58:55.998,-22.049999999999997,-30.625,4.445,0.151524,0.011956,-1.0035720000000001,3
2024-06-14 10:58:56.003,-23.17,-30.73,4.375,0.15860000000000002,0.020007999999999998,-1.00772,3
2024-06-14 10:58:56.008,-23.625,-31.009999999999998,4.2,0.15738,0.027084,-1.008696,3
2024-06-14 10:58:56.013,-23.450000000000003,-31.71,3.885,0.157624,0.038796,-1.0187,3
2024-06-14 10:58:56.018,-20.825,-32.480000000000004,3.5700000000000003,0.166896,0.045384,-1.0291919999999999,3
2024-06-14 10:58:56.023,-17.814999999999998,-33.6,3.22,0.169336,0.04758,-1.037732,3
2024-06-14 10:58:56.027,-15.505,-34.3,2.9050000000000002,0.172508,0.034404000000000004,-1.0545680000000002,3
2024-06-14 10:58:56.032,-14.14,-35.665,2.6950000000000003,0.182756,0.044652,-1.048956,3
2024-06-14 10:58:56.037,-10.989999999999998,-36.715,2.555,0.17909599999999998,0.046848,-1.03822,3
2024-06-14 10:58:56.042,-7.21,-39.235,1.96,0.18690400000000001,0.058803999999999995,-1.038952,3
2024-06-14 10:58:56.047,-3.605,-40.88,1.225,0.17812,0.064172,-1.06506,3
2024-06-14 10:58:56.052,-1.96,-43.925,0.665,0.15079199999999998,0.066856,-1.091412,3
2024-06-14 10:58:56.056,7.0,-45.64,-0.28,0.19446799999999997,0.055875999999999995,-1.108492,3
2024-06-14 10:58:56.061,15.995000000000001,-48.44,0.13999999999999999,0.190564,0.123952,-1.167052,3
2024-06-14 10:58:56.066,16.94,-54.459999999999994,-1.155,0.217404,0.03562399999999999,-1.2026759999999999,3
2024-06-14 10:58:56.071,16.415,-54.075,-1.19,0.175924,0.060023999999999994,-1.277828,3
2024-06-14 10:58:56.076,27.86,-57.644999999999996,-1.54,0.209596,0.02562,-1.2392759999999998,3
2024-06-14 10:58:56.080,29.4,-64.715,-2.52,0.220332,0.053191999999999996,-1.255868,3
2024-06-14 10:58:56.085,33.04,-68.145,-3.1500000000000004,0.19129600000000002,0.021471999999999998,-1.2658719999999999,3
2024-06-14 10:58:56.090,36.26,-70.56,-4.13,0.24375600000000003,0.053192,-1.288076,3
2024-06-14 10:58:56.095,39.760000000000005,-71.225,-4.97,0.22350399999999998,0.06417199999999999,-1.303204,3
2024-06-14 10:58:56.100,46.375,-71.89,-5.355,0.209108,0.086864,-1.464976,3
2024-06-14 10:58:56.105,47.53,-75.145,-5.915,0.24424399999999996,0.0036599999999999983,-1.0967799999999999,3
2024-06-14 10:58:56.109,51.905,-82.285,-7.279999999999999,0.21350000000000002,0.060756,-1.341268,3
2024-06-14 10:58:56.114,51.59,-92.575,-8.33,0.207644,0.038064,-1.2944200000000001,3
2024-06-14 10:58:56.119,54.040000000000006,-113.995,-9.73,0.205204,0.085156,-1.4483840000000001,3
2024-06-14 10:58:56.124,52.5,-121.24000000000001,-9.135,0.21838,0.02196,-1.5545239999999998,3
2024-06-14 10:58:56.129,55.93,-125.195,-10.045,0.2013,-0.00732,-1.45424,3
2024-06-14 10:58:56.134,54.18,-139.01999999999998,-10.08,0.19788399999999998,-0.03294,-1.568432,3
2024-06-14 10:58:56.138,52.010000000000005,-152.985,-9.940000000000001,0.18788,-0.051727999999999996,-1.687748,3
2024-06-14 10:58:56.143,47.459999999999994,-169.015,-9.065000000000001,0.176168,-0.070028,-1.652124,3
2024-06-14 10:58:56.148,44.17,-181.755,-7.875,0.18422,-0.083204,-1.717272,3
2024-06-14 10:58:56.154,40.739999999999995,-197.39999999999998,-6.51,0.170312,-0.105652,-1.724592,3
2024-06-14 10:58:56.159,40.915,-213.325,-3.8850000000000002,0.152012,-0.170068,-1.766804,3
2024-06-14 10:58:56.164,36.33,-228.76,-0.595,0.142008,-0.197152,-1.827072,3
2024-06-14 10:58:56.168,34.3,-245.20999999999998,3.045,0.120536,-0.22326,-1.8587919999999998,3
2024-06-14 10:58:56.173,31.325000000000003,-263.025,7.42,0.136884,-0.261568,-1.9595639999999999,3
2024-06-14 10:58:56.178,28.945,-281.295,13.16,0.157868,-0.3416,-2.155496,3
2024-06-14 10:58:56.183,31.674999999999997,-301.595,20.615000000000002,0.160308,-0.377712,-2.257732,3
2024-06-14 10:58:56.188,34.125,-322.98,29.225,0.075152,-0.439444,-2.330444,3
2024-06-14 10:58:56.192,36.224999999999994,-350.84000000000003,38.64,0.020984000000000003,-0.53436,-2.31922,3
2024-06-14 10:58:56.197,38.5,-379.505,49.21,-0.026108,-0.6204919999999999,-2.367288,3
2024-06-14 10:58:56.202,42.875,-411.775,61.215,-0.03294,-0.728828,-2.592256,3
2024-06-14 10:58:56.207,49.525,-445.445,72.59,0.07686,-0.7376119999999999,-2.8667559999999996,3
2024-06-14 10:58:56.212,56.489999999999995,-479.08000000000004,82.32,0.19495600000000002,-0.612684,-3.3054680000000003,3
2024-06-14 10:58:56.217,51.625,-508.305,87.60499999999999,0.134932,-0.391864,-3.564596,3
2024-06-14 10:58:56.221,39.795,-539.525,86.31,0.192516,-0.306708,-3.6297439999999996,3
2024-06-14 10:58:56.226,39.585,-561.2249999999999,80.255,0.22228399999999998,-0.27693999999999996,-3.8654479999999998,3
2024-06-14 10:58:56.231,61.46,-568.26,79.275,0.22155199999999997,-0.322812,-3.647312,3
2024-06-14 10:58:56.236,78.64500000000001,-562.135,82.32,0.215696,-0.199104,-3.5216519999999996,3
2024-06-14 10:58:56.241,76.86,-549.22,83.02000000000001,0.20691199999999998,-0.12175599999999999,-3.2425159999999997,3
2024-06-14 10:58:56.245,64.85499999999999,-533.8199999999999,81.62,0.249124,-0.187636,-3.296196,4
2024-06-14 10:58:56.250,54.39,-526.715,89.075,0.147376,-0.386984,-3.2269,4
2024-06-14 10:58:56.255,25.130000000000003,-518.9449999999999,98.35,-0.01952,-0.545584,-3.284484,4
2024-06-14 10:58:56.260,-4.585,-515.06,102.025,-0.36380399999999996,-0.5380199999999999,-2.820884,4
2024-06-14 10:58:56.265,-7.735,-490.35,105.735,-0.802516,-0.612684,-2.2360160000000002,4
2024-06-14 10:58:56.270,-6.895,-440.54499999999996,113.785,-1.411052,-0.929152,-1.446432,4
2024-06-14 10:58:56.274,-14.035,-371.875,131.495,-2.174528,-1.35054,-1.4025120000000002,4
2024-06-14 10:58:56.279,-2.7649999999999997,-292.565,160.01999999999998,-2.0742439999999998,-1.4610719999999997,-1.44448,4
2024-06-14 10:58:56.284,10.815,-232.89,183.12,-1.581608,-1.160464,-1.8536679999999999,4
2024-06-14 10:58:56.289,35.42,-184.51999999999998,196.245,-1.377868,-0.784948,-1.797792,4
2024-06-14 10:58:56.294,55.79,-148.68,202.335,-1.230492,-0.44212799999999997,-1.598688,4
2024-06-14 10:58:56.298,48.370000000000005,-128.135,185.325,-1.171688,-0.285724,-1.25782,4
2024-06-14 10:58:56.303,31.78,-82.53,152.45999999999998,-1.636752,-0.44310399999999994,-1.314184,4
2024-06-14 10:58:56.308,18.725,-10.185,126.69999999999999,-2.044232,-0.483364,-1.020896,4
2024-06-14 10:58:56.313,-12.845,36.155,104.89500000000001,-2.04228,-0.10711599999999999,-0.9755119999999999,4
2024-06-14 10:58:56.318,-44.695,90.37,84.49000000000001,-1.849276,0.11345999999999998,-1.165588,4
2024-06-14 10:58:56.323,-66.71000000000001,104.125,66.92,-1.545496,-0.043676,-0.89914,4
2024-06-14 10:58:56.327,-95.41,123.515,49.7,-1.371036,-0.201544,-0.809836,4
2024-06-14 10:58:56.332,-111.86,123.095,33.775000000000006,-1.33712,-0.27035200000000004,-0.758108,4
2024-06-14 10:58:56.337,-118.125,131.6,20.405,-1.321748,-0.322324,-0.670512,4
2024-06-14 10:58:56.342,-112.945,141.85500000000002,9.94,-1.280756,-0.421388,-0.5790119999999999,4
2024-06-14 10:58:56.347,-98.63,151.58499999999998,2.415,-1.2248799999999997,-0.5353359999999999,-0.508008,4
2024-06-14 10:58:56.352,-77.315,162.54,-2.94,-1.1685159999999999,-0.615368,-0.434076,4
2024-06-14 10:58:56.356,-51.8,175.49,-6.859999999999999,-1.118252,-0.644892,-0.41138399999999997,4
2024-06-14 10:58:56.361,-23.415,191.555,-9.940000000000001,-1.06506,-0.643672,-0.422364,4
2024-06-14 10:58:56.366,5.215,209.09,-12.46,-1.015284,-0.6038999999999999,-0.449936,4
2024-06-14 10:58:56.371,30.765,226.41500000000002,-15.54,-0.952576,-0.53558,-0.483364,4
2024-06-14 10:58:56.376,50.89,242.76,-19.355,-0.8808400000000001,-0.44286000000000003,-0.5333840000000001,4
2024-06-14 10:58:56.380,64.855,257.21500000000003,-24.814999999999998,-0.808128,-0.343796,-0.583404,4
2024-06-14 10:58:56.385,73.465,270.375,-31.535,-0.727608,-0.241072,-0.6426959999999999,4
2024-06-14 10:58:56.390,77.175,282.1,-39.585,-0.66246,-0.16104000000000002,-0.70272,4
2024-06-14 10:58:56.395,77.28,293.33500000000004,-48.58,-0.5909679999999999,-0.089548,-0.7503,4
2024-06-14 10:58:56.400,74.025,303.1,-57.995000000000005,-0.529236,-0.041236,-0.794708,4
2024-06-14 10:58:56.405,68.18,312.725,-67.375,-0.475068,-0.011468,-0.8400920000000001,4
2024-06-14 10:58:56.409,61.04,320.91499999999996,-76.055,-0.430904,0.002928,-0.880108,4
2024-06-14 10:58:56.414,54.11,329.105,-83.30000000000001,-0.395524,0.00244,-0.9250039999999999,4
2024-06-14 10:58:56.419,47.705,337.29499999999996,-89.07499999999999,-0.36209600000000003,-0.012688000000000001,-0.9718519999999999,4
2024-06-14 10:58:56.424,41.965,344.61,-93.31,-0.317932,-0.030987999999999995,-1.020896,4
2024-06-14 10:58:56.429,37.17,351.96000000000004,-95.935,-0.285968,-0.055875999999999995,-1.0679880000000002,4
2024-06-14 10:58:56.433,33.915,358.4,-96.845,-0.251564,-0.079544,-1.123376,4
2024-06-14 10:58:56.438,32.2,364.84000000000003,-96.355,-0.214232,-0.107848,-1.177788,4
2024-06-14 10:58:56.443,32.655,371.035,-94.32499999999999,-0.176656,-0.13151599999999997,-1.226344,4
2024-06-14 10:58:56.448,34.86,376.88,-91.245,-0.149084,-0.152744,-1.279048,4
2024-06-14 10:58:56.453,38.254999999999995,381.99,-87.28999999999999,-0.113704,-0.15982,-1.337852,4
2024-06-14 10:58:56.458,43.225,388.01,-82.81,-0.07930000000000001,-0.163968,-1.4034879999999998,4
2024-06-14 10:58:56.462,48.685,392.70000000000005,-78.19,-0.046116000000000004,-0.151036,-1.4764439999999999,4
2024-06-14 10:58:56.467,54.075,397.705,-74.025,-0.009759999999999998,-0.129808,-1.545496,4
2024-06-14 10:58:56.472,58.275,401.59000000000003,-70.14,0.02074,-0.10491999999999999,-1.618208,4
2024-06-14 10:58:56.477,60.97,404.46000000000004,-66.745,0.058803999999999995,-0.07808,-1.698728,4
2024-06-14 10:58:56.482,63.07,406.875,-63.80500000000001,0.094672,-0.04636,-1.782908,4
2024-06-14 10:58:56.486,64.19,408.52,-61.04,0.13298000000000001,-0.012199999999999999,-1.8563519999999998,4
2024-06-14 10:58:56.491,64.88999999999999,408.87,-58.625,0.163724,0.008539999999999999,-1.94224,4
2024-06-14 10:58:56.496,65.52000000000001,408.45,-56.42,0.195444,0.03782,-2.0156840000000003,4
2024-06-14 10:58:56.501,66.71000000000001,406.875,-54.215,0.223748,0.061,-2.108404,4
2024-06-14 10:58:56.506,68.075,404.74,-52.36,0.265228,0.08832799999999999,-2.2206439999999996,4
2024-06-14 10:58:56.511,69.405,403.27,-51.1,0.315248,0.13761600000000002,-2.3258079999999994,4
2024-06-14 10:58:56.515,68.18,400.75,-51.03,0.36844,0.20422800000000002,-2.4209680000000002,4
2024-06-14 10:58:56.520,63.209999999999994,398.33500000000004,-52.57,0.42065600000000003,0.26596,-2.497096,4
2024-06-14 10:58:56.525,55.825,395.28999999999996,-55.86,0.47336,0.316224,-2.576152,4
2024-06-14 10:58:56.530,47.004999999999995,391.33500000000004,-60.480000000000004,0.52216,0.34062400000000004,-2.657892,4
2024-06-14 10:58:56.535,37.099999999999994,387.485,-66.185,0.5787680000000001,0.343064,-2.7313359999999998,4
2024-06-14 10:58:56.539,26.25,384.09000000000003,-72.625,0.6356200000000001,0.316956,-2.7884320000000002,4
2024-06-14 10:58:56.544,15.61,383.25,-78.61,0.694668,0.25498,-2.8487,4
2024-06-14 10:58:56.549,5.18,383.39,-83.26499999999999,0.769576,0.165676,-2.9001839999999994,4
2024-06-14 10:58:56.554,-4.48,386.4,-85.57499999999999,0.878644,0.066612,-2.94386,4
2024-06-14 10:58:56.559,-13.405,390.88,-84.735,1.023092,-0.05246,-2.9711879999999997,4
2024-06-14 10:58:56.564,-21.21,395.64,-80.64,1.198284,-0.191784,-2.984364,4
2024-06-14 10:58:56.568,-27.405,399.21,-73.465,1.394704,-0.339648,-2.977044,4
2024-06-14 10:58:56.573,-31.884999999999998,399.03499999999997,-63.63,1.612352,-0.474092,-2.93532,4
2024-06-14 10:58:56.578,-34.05500000000001,395.675,-52.22,1.82756,-0.58316,-2.867732,4
2024-06-14 10:58:56.583,-34.44,385.49,-40.32,2.045452,-0.708088,-2.8203959999999997,4
2024-06-14 10:58:56.588,-32.095,370.82500000000005,-27.72,2.288964,-0.8449720000000001,-2.7335320000000003,4
2024-06-14 10:58:56.592,-24.78,351.855,-14.385000000000002,2.516616,-0.9171959999999999,-2.612752,4
2024-06-14 10:58:56.597,-13.02,330.19,-1.785,2.750368,-0.961116,-2.4705,4
2024-06-14 10:58:56.602,3.6750000000000003,306.81,9.100000000000001,2.992416,-0.975024,-2.2867680000000004,4
2024-06-14 10:58:56.607,27.755,282.73,17.15,3.2049399999999997,-0.88206,-2.0830279999999997,4
2024-06-14 10:58:56.612,55.16,258.16,21.0,3.398432,-0.700524,-1.8971,4
2024-06-14 10:58:56.617,81.725,234.22,20.509999999999998,3.6192519999999995,-0.463844,-1.71166,4
2024-06-14 10:58:56.621,103.46000000000001,211.785,15.645,3.897412,-0.184464,-1.537688,4
2024-06-14 10:58:56.626,114.275,187.81,9.135,4.157272,0.111264,-1.3908,4
2024-06-14 10:58:56.631,112.0,159.81,-2.6950000000000003,4.519856,0.386984,-1.25904,4
2024-06-14 10:58:56.636,97.93,125.02000000000001,-18.725,4.784352,0.5697399999999999,-1.176324,4
2024-06-14 10:58:56.641,73.185,83.405,-31.43,4.991508,0.6466000000000001,-1.1223999999999998,4
2024-06-14 10:58:56.645,42.525,36.715,-40.705,5.053240000000001,0.6239079999999999,-1.092632,4
2024-06-14 10:58:56.650,12.950000000000001,-12.425,-45.57,4.958812,0.5084960000000001,-1.083116,4
2024-06-14 10:58:56.655,-9.100000000000001,-58.45,-46.269999999999996,4.764832,0.35575199999999996,-1.0796999999999999,4
2024-06-14 10:58:56.660,-21.175,-98.805,-43.645,4.515219999999999,0.184952,-1.0875080000000001,4
2024-06-14 10:58:56.665,-25.095,-132.825,-39.480000000000004,4.176548,-0.004879999999999999,-1.149484,4
2024-06-14 10:58:56.670,-201.075,-466.9,-58.17,7.644031999999999,0.926712,-5.071051999999999,4
