time,gyroscope_x,gyroscope_y,gyroscope_z,accelerometer_x,accelerometer_y,accelerometer_z,phase
2024-06-14 07:27:33.348,46.83,-176.26,66.71,-4.84584,0.167872,1.75924,1
2024-06-14 07:27:33.353,135.1,-219.1,50.12,-2.1969760000000003,-0.493856,0.159576,1
2024-06-14 07:27:33.357,165.55,-294.0,35.7,-0.687592,-0.411384,-0.171288,1
2024-06-14 07:27:33.362,211.47,-366.1,17.99,0.30256,-0.479704,-1.853424,1
2024-06-14 07:27:33.367,181.65,-408.45,8.82,0.8554639999999999,-0.345992,-2.805024,1
2024-06-14 07:27:33.372,139.65,-424.06,3.15,0.7759199999999999,-0.09955199999999999,-2.68644,1
2024-06-14 07:27:33.377,108.71,-428.89,4.48,0.054168,-0.113216,-2.761104,1
2024-06-14 07:27:33.382,84.42,-399.42,1.89,-0.249856,-0.208376,-2.926536,1
2024-06-14 07:27:33.386,111.02,-368.34,-8.82,-0.009272,-0.10931199999999999,-2.335568,1
2024-06-14 07:27:33.391,107.03,-351.19,-18.48,0.06588,0.016592,-2.143296,2
2024-06-14 07:27:33.396,98.07,-343.91,-14.98,0.025376,0.17568,-1.8382960000000002,2
2024-06-14 07:27:33.401,74.41,-343.14,-2.52,-0.060024,0.211304,-1.911008,2
2024-06-14 07:27:33.406,48.79,-323.96,6.72,-0.052216,0.07808,-1.962248,2
2024-06-14 07:27:33.411,58.8,-285.04,9.73,0.023912,0.012688,-1.74948,2
2024-06-14 07:27:33.415,49.28,-250.18,8.26,0.063928,-0.02196,-1.9153999999999998,2
2024-06-14 07:27:33.420,38.36,-186.2,7.07,0.105408,0.003904,-1.769,2
2024-06-14 07:27:33.425,38.64,-149.1,6.79,0.07173600000000001,0.011712,-1.6206479999999999,2
2024-06-14 07:27:33.430,25.9,-102.76,4.62,0.028304,0.040504,-1.4186159999999999,2
2024-06-14 07:27:33.435,17.78,-77.14,4.76,0.009272,0.05856,-1.3093039999999998,2
2024-06-14 07:27:33.440,11.55,-61.88,6.37,0.00488,0.020496,-1.257576,2
2024-06-14 07:27:33.444,4.97,-52.57,4.83,-0.014152,-0.001952,-1.199016,2
2024-06-14 07:27:33.449,-2.1,-47.95,0.91,-0.032208,-0.020007999999999998,-1.149728,2
2024-06-14 07:27:33.454,-8.4,-45.29,-3.5,-0.040992,0.004391999999999999,-1.1204479999999999,2
2024-06-14 07:27:33.459,-12.88,-44.52,-5.81,-0.054168,0.040992,-1.10776,2
2024-06-14 07:27:33.464,-12.32,-43.12,-7.84,0.011712,0.096136,-1.1228879999999999,2
2024-06-14 07:27:33.469,-12.46,-40.25,-3.64,-0.019032,0.14200800000000002,-1.086288,2
2024-06-14 07:27:33.473,-9.17,-39.06,-1.82,0.029768,0.105896,-1.1028799999999999,2
2024-06-14 07:27:33.478,-9.17,-42.56,0.91,-0.028304,0.087352,-1.0287039999999998,2
2024-06-14 07:27:33.483,-9.59,-42.0,1.75,-0.085888,0.073688,-0.9803919999999999,2
2024-06-14 07:27:33.488,-8.68,-42.84,0.98,-0.10248,0.08052,-0.979416,2
2024-06-14 07:27:33.493,-7.07,-43.33,-0.63,-0.044408,0.092232,-0.99552,2
2024-06-14 07:27:33.498,-5.25,-42.07,-0.84,-0.01952,0.09467199999999999,-1.015528,2
2024-06-14 07:27:33.503,-4.06,-39.97,-0.49,-0.013663999999999999,0.088328,-1.0140639999999999,2
2024-06-14 07:27:33.507,-3.08,-37.73,-0.28,-0.025376,0.08003199999999999,-1.006256,2
2024-06-14 07:27:33.512,-2.59,-34.86,-0.77,-0.030256,0.081496,-0.9960079999999999,2
2024-06-14 07:27:33.517,-1.61,-33.32,-1.19,-0.0366,0.083448,-1.00284,2
2024-06-14 07:27:33.522,-0.49,-31.92,-1.75,-0.01952,0.08930400000000001,-1.0126,2
2024-06-14 07:27:33.527,0.56,-31.08,-1.89,-0.007808,0.08247199999999999,-1.016016,2
2024-06-14 07:27:33.532,0.77,-30.03,-2.03,-0.012688,0.08003199999999999,-1.006256,2
2024-06-14 07:27:33.536,0.98,-28.28,-2.24,-0.012688,0.081496,-1.007232,2
2024-06-14 07:27:33.541,1.33,-27.44,-2.59,-0.010248,0.077104,-1.00284,2
2024-06-14 07:27:33.546,1.33,-26.32,-2.59,-0.008783999999999998,0.07076,-1.007232,2
2024-06-14 07:27:33.551,0.84,-25.27,-2.59,-0.006344,0.06978399999999998,-1.002352,2
2024-06-14 07:27:33.556,0.14,-24.36,-2.66,0.005368,0.06539199999999999,-0.9960079999999999,2
2024-06-14 07:27:33.561,-0.91,-22.47,-2.66,0.0068319999999999995,0.06734399999999999,-1.000888,2
2024-06-14 07:27:33.565,-1.89,-21.7,-2.45,0.0,0.07027199999999999,-1.011624,2
2024-06-14 07:27:33.570,-2.38,-20.37,-2.38,-0.000488,0.076128,-1.011136,2
2024-06-14 07:27:33.575,-2.17,-20.3,-2.17,0.034159999999999996,0.08003199999999999,-0.9862479999999999,2
2024-06-14 07:27:33.580,-2.66,-19.18,-2.24,-0.020496,0.075152,-1.007232,2
2024-06-14 07:27:33.585,-3.43,-19.04,-2.45,-0.001464,0.081008,-1.0004,2
2024-06-14 07:27:33.590,-3.36,-18.55,-2.24,0.017079999999999998,0.06783199999999999,-0.999424,2
2024-06-14 07:27:33.594,-4.55,-19.04,-2.45,-0.002928,0.08052,-1.0140639999999999,2
2024-06-14 07:27:33.599,-5.25,-19.81,-2.38,0.024887999999999997,0.06831999999999999,-1.00528,2
2024-06-14 07:27:33.604,-5.46,-20.65,-2.31,0.001464,0.075152,-1.011624,2
2024-06-14 07:27:33.609,-5.88,-23.03,-2.24,-0.00732,0.090768,-1.01748,2
2024-06-14 07:27:33.614,-6.51,-23.24,-2.1,-0.002928,0.084424,-1.0096720000000001,2
2024-06-14 07:27:33.619,-6.09,-23.73,-2.24,0.0,0.08003199999999999,-1.011136,2
2024-06-14 07:27:33.623,-6.02,-21.77,-2.31,-0.016592,0.09467199999999999,-1.02724,2
2024-06-14 07:27:33.628,-3.92,-17.85,-2.24,0.0068319999999999995,0.08637600000000001,-1.017968,2
2024-06-14 07:27:33.633,-6.09,-28.63,-1.82,0.024887999999999997,0.083936,-0.9950319999999999,2
2024-06-14 07:27:33.638,-6.37,-31.43,-1.96,0.033671999999999994,0.08784,-0.9940559999999999,2
2024-06-14 07:27:33.643,-5.6,-33.88,-2.31,0.0068319999999999995,0.092232,-1.016992,2
2024-06-14 07:27:33.648,-6.65,-35.7,-2.31,0.035624,0.09711199999999999,-0.9911279999999999,2
2024-06-14 07:27:33.652,-3.85,-34.86,-1.61,0.040015999999999996,0.08784,-0.9872239999999999,2
2024-06-14 07:27:33.657,5.74,0.84,-1.12,0.035624,0.09711199999999999,-1.0140639999999999,2
2024-06-14 07:27:33.662,-1.12,-36.54,-2.03,0.048799999999999996,0.08686400000000001,-0.9911279999999999,2
2024-06-14 07:27:33.667,-0.14,-33.25,-2.52,0.037576,0.09516,-0.9960079999999999,2
2024-06-14 07:27:33.672,0.0,-30.17,-2.52,0.041479999999999996,0.094184,-0.98576,2
2024-06-14 07:27:33.677,3.15,-26.6,-1.68,0.048312,0.098576,-0.982832,2
2024-06-14 07:27:33.681,3.36,-21.42,-1.96,0.050263999999999996,0.09516,-0.9803919999999999,2
2024-06-14 07:27:33.686,7.7,-15.54,-2.17,0.059048,0.091744,-0.975024,2
2024-06-14 07:27:33.691,7.84,-9.45,-2.38,0.061975999999999996,0.088328,-0.964776,2
2024-06-14 07:27:33.696,9.87,-3.92,-1.89,0.058072,0.083448,-0.96624,2
2024-06-14 07:27:33.701,9.17,-0.98,-1.82,0.043432000000000005,0.07808,-0.987712,2
2024-06-14 07:27:33.706,9.31,-1.33,-1.96,0.033671999999999994,0.091256,-0.9964959999999999,2
2024-06-14 07:27:33.714,9.24,-3.43,-2.45,0.035135999999999994,0.08930400000000001,-1.006744,2
2024-06-14 07:27:33.718,9.45,-6.58,-2.38,0.040992,0.085888,-1.013576,2
2024-06-14 07:27:33.723,9.87,-10.43,-2.24,0.036112000000000005,0.088816,-1.020896,2
2024-06-14 07:27:33.728,10.08,-13.93,-2.38,0.035624,0.08637600000000001,-1.016504,2
2024-06-14 07:27:33.733,11.06,-16.73,-2.66,0.042944,0.076616,-1.015528,2
2024-06-14 07:27:33.738,11.27,-18.69,-2.73,0.050752,0.06978399999999998,-1.0126,2
2024-06-14 07:27:33.742,11.83,-19.81,-2.52,0.059048,0.06539199999999999,-1.016504,2
2024-06-14 07:27:33.747,11.34,-20.44,-2.38,0.054655999999999996,0.08295999999999999,-1.0238239999999998,2
2024-06-14 07:27:33.752,11.41,-20.86,-2.24,0.054655999999999996,0.08686400000000001,-1.0096720000000001,2
2024-06-14 07:27:33.757,10.92,-21.42,-2.24,0.056608,0.08052,-1.0043039999999999,2
2024-06-14 07:27:33.762,11.2,-20.86,-2.38,0.06539199999999999,0.061975999999999996,-1.0004,2
2024-06-14 07:27:33.767,14.56,-24.29,-2.03,0.072712,0.081496,-1.003328,2
2024-06-14 07:27:33.771,11.55,-18.83,-2.45,0.074176,0.066368,-1.0004,2
2024-06-14 07:27:33.776,10.57,-16.8,-2.59,0.07808,0.056119999999999996,-1.010648,2
2024-06-14 07:27:33.781,9.38,-17.15,-2.38,0.072712,0.063928,-1.007232,2
2024-06-14 07:27:33.786,7.98,-17.71,-2.31,0.076616,0.059048,-1.01748,2
2024-06-14 07:27:33.791,7.14,-18.83,-2.1,0.06831999999999999,0.06539199999999999,-1.015528,2
2024-06-14 07:27:33.796,6.23,-20.86,-2.1,0.071248,0.063928,-1.021872,2
2024-06-14 07:27:33.800,5.67,-23.31,-2.03,0.06783199999999999,0.060024,-1.03456,2
2024-06-14 07:27:33.805,4.83,-27.3,-1.47,0.07564,0.06344,-1.044808,2
2024-06-14 07:27:33.810,2.73,-31.71,-1.19,0.07564,0.063928,-1.0438319999999999,2
2024-06-14 07:27:33.815,2.03,-35.77,-0.98,0.07564,0.068808,-1.042856,2
2024-06-14 07:27:33.820,1.68,-39.9,-0.98,0.07808,0.075152,-1.0477359999999998,2
2024-06-14 07:27:33.824,1.75,-44.8,-1.05,0.083448,0.08295999999999999,-1.053104,2
2024-06-14 07:27:33.829,0.77,-49.77,-1.4,0.088328,0.085888,-1.068232,2
2024-06-14 07:27:33.834,0.56,-54.81,-1.61,0.09028,0.098088,-1.0857999999999999,2
2024-06-14 07:27:33.839,3.22,-61.11,-2.24,0.091256,0.113704,-1.082384,2
2024-06-14 07:27:33.844,3.15,-67.06,-3.08,0.099064,0.113216,-1.086776,2
2024-06-14 07:27:33.849,-2.1,-73.22,-4.55,0.10003999999999999,0.11663199999999999,-1.1345999999999998,2
2024-06-14 07:27:33.853,-2.24,-77.07,-5.18,0.106872,0.08003199999999999,-1.2078,2
2024-06-14 07:27:33.858,-4.48,-77.84,-5.53,0.11663199999999999,0.060512,-1.26148,2
2024-06-14 07:27:33.863,-4.48,-69.79,-5.39,0.13566399999999998,-0.094184,-1.630896,2
2024-06-14 07:27:33.868,2.59,-71.33,-3.08,0.113704,0.07027199999999999,-1.22976,2
2024-06-14 07:27:33.873,-1.54,-75.39,-3.15,0.126392,0.035135999999999994,-1.321016,2
2024-06-14 07:27:33.878,-3.43,-80.57,-2.38,0.13176,0.030256,-1.321992,2
2024-06-14 07:27:33.882,-5.18,-85.47,-2.24,0.12932,0.06539199999999999,-1.324432,2
2024-06-14 07:27:33.887,-8.68,-92.33,-2.17,0.14591200000000001,0.054168,-1.3595679999999999,2
2024-06-14 07:27:33.892,-10.78,-96.88,-2.17,0.1464,0.052704,-1.3395599999999999,2
2024-06-14 07:27:33.897,-14.21,-102.69,-1.68,0.150792,-0.000488,-1.413248,2
2024-06-14 07:27:33.902,-16.8,-109.62,-0.77,0.14396,-0.0034159999999999998,-1.4488720000000002,2
2024-06-14 07:27:33.906,-18.83,-116.69,0.42,0.14688800000000002,-0.00976,-1.5079200000000001,2
2024-06-14 07:27:33.911,-21.77,-126.0,1.19,0.14103200000000002,0.059048,-1.52012,2
2024-06-14 07:27:33.916,-24.08,-135.1,0.56,0.13956799999999997,0.09516,-1.574288,2
2024-06-14 07:27:33.921,-27.09,-143.01,-0.7,0.142984,0.138592,-1.645536,2
2024-06-14 07:27:33.926,-27.93,-153.02,-2.59,0.13078399999999998,0.16835999999999998,-1.628944,2
2024-06-14 07:27:33.931,-27.72,-163.66,-5.6,0.123464,0.216672,-1.67384,2
2024-06-14 07:27:33.935,-26.25,-174.86,-8.82,0.126392,0.220576,-1.708,2
2024-06-14 07:27:33.940,-26.53,-186.06,-12.25,0.127856,0.21032800000000001,-1.698728,3
2024-06-14 07:27:33.945,-27.86,-197.4,-15.61,0.10248,0.17568,-1.702144,3
2024-06-14 07:27:33.950,-28.14,-209.09,-18.41,0.10394400000000001,0.130296,-1.7304479999999998,3
2024-06-14 07:27:33.955,-29.54,-221.83,-20.72,0.06831999999999999,0.16835999999999998,-1.684088,3
2024-06-14 07:27:33.960,-32.69,-234.92,-23.52,0.057583999999999996,0.152744,-1.7441119999999999,3
2024-06-14 07:27:33.964,-38.01,-249.62,-25.62,0.061975999999999996,0.059048,-1.814872,3
2024-06-14 07:27:33.969,-44.03,-264.74,-25.97,0.079056,-0.034159999999999996,-1.912472,3
2024-06-14 07:27:33.974,-49.21,-281.54,-24.85,0.041968,0.00732,-1.91296,3
2024-06-14 07:27:33.979,-57.19,-308.14,-26.53,-0.009272,0.128832,-1.9939679999999997,3
2024-06-14 07:27:33.984,-59.5,-328.79,-29.47,-0.07466400000000001,0.17519200000000001,-1.9978719999999999,3
2024-06-14 07:27:33.988,-60.97,-352.38,-33.39,-0.101992,0.290848,-2.013976,3
2024-06-14 07:27:33.993,-63.35,-377.93,-39.13,-0.136152,0.33964799999999995,-2.082296,3
2024-06-14 07:27:33.998,-66.57,-403.2,-44.94,-0.11956,0.39332799999999996,-2.301408,3
2024-06-14 07:27:34.003,-69.09,-419.72,-50.33,-0.121512,0.30256,-2.262368,3
2024-06-14 07:27:34.008,-70.49,-446.25,-53.9,-0.041968,0.215208,-2.433168,3
2024-06-14 07:27:34.013,-70.63,-470.61,-53.83,0.078568,0.222528,-2.668384,3
2024-06-14 07:27:34.017,-74.13,-491.68,-51.59,0.386984,0.243024,-2.8728559999999996,3
2024-06-14 07:27:34.022,-76.16,-504.35,-47.32,0.720288,0.016592,-3.155408,3
2024-06-14 07:27:34.027,-69.09,-508.2,-40.11,0.715896,0.31768799999999997,-3.327672,3
2024-06-14 07:27:34.032,-71.4,-498.75,-42.0,0.910608,0.5289919999999999,-3.217384,3
2024-06-14 07:27:34.037,-74.55,-500.5,-43.82,0.9667279999999999,0.176656,-3.050976,3
2024-06-14 07:27:34.042,-71.75,-495.11,-36.54,0.6095119999999999,0.122976,-3.3423119999999997,3
2024-06-14 07:27:34.046,-66.92,-490.07,-35.07,0.406992,0.203008,-3.34524,3
2024-06-14 07:27:34.051,-51.66,-492.87,-40.81,0.436272,-0.013176,-2.9870479999999997,3
2024-06-14 07:27:34.056,-16.17,-501.97,-39.2,0.198616,0.090768,-3.2051839999999996,3
2024-06-14 07:27:34.061,1.4,-507.43,-43.96,-0.11516799999999999,0.425536,-2.760616,3
2024-06-14 07:27:34.066,11.69,-507.22,-53.41,0.036112000000000005,0.744688,-2.762568,3
2024-06-14 07:27:34.070,11.83,-497.35,-61.25,-0.015616,1.10776,-2.9114079999999998,3
2024-06-14 07:27:34.075,2.38,-470.12,-70.49,-0.28938400000000003,1.392264,-2.8557759999999996,3
2024-06-14 07:27:34.080,-19.04,-437.92,-79.38,-0.618784,1.4557039999999999,-2.500024,3
2024-06-14 07:27:34.085,-46.27,-392.56,-89.46,-1.092144,1.2834400000000001,-1.958344,3
2024-06-14 07:27:34.090,-57.96,-336.35,-95.62,-1.4844959999999998,0.837896,-1.508408,3
2024-06-14 07:27:34.095,-59.36,-273.98,-96.39,-2.016416,0.6402559999999999,-1.148752,3
2024-06-14 07:27:34.099,-64.12,-200.2,-107.1,-3.2827759999999997,0.56364,-0.881816,3
2024-06-14 07:27:34.104,-62.16,-100.94,-123.55,-1.850008,0.34648,-0.866688,3
2024-06-14 07:27:34.109,-31.92,-76.72,-111.58,-1.265872,0.282552,-0.774456,3
2024-06-14 07:27:34.114,-5.46,-6.09,-96.74,-1.800232,0.298168,-1.674328,4
2024-06-14 07:27:34.119,24.29,94.22,-85.89,-2.014464,-0.171776,-1.6796959999999999,4
2024-06-14 07:27:34.124,49.77,157.57,-72.87,-1.7167839999999999,-0.393816,-1.323456,4
2024-06-14 07:27:34.128,68.18,186.13,-59.85,-1.4396,-0.172264,-1.1736399999999998,4
2024-06-14 07:27:34.133,82.6,199.64,-49.42,-1.26636,0.101504,-1.1716879999999998,4
2024-06-14 07:27:34.138,92.4,207.27,-41.93,-1.110688,0.198128,-1.126792,4
2024-06-14 07:27:34.143,95.62,209.93,-36.68,-0.9891759999999999,0.19763999999999998,-1.033096,4
2024-06-14 07:27:34.148,93.1,209.44,-33.11,-0.9262239999999999,0.23716800000000002,-0.9135359999999999,4
2024-06-14 07:27:34.152,88.06,207.9,-30.94,-0.878888,0.314272,-0.784704,4
2024-06-14 07:27:34.157,82.81,206.22,-29.12,-0.838384,0.359168,-0.667096,4
2024-06-14 07:27:34.162,77.84,205.73,-27.16,-0.8061759999999999,0.35136,-0.584624,4
2024-06-14 07:27:34.167,73.43,208.04,-24.92,-0.784216,0.333792,-0.549,4
2024-06-14 07:27:34.172,70.0,212.59,-22.33,-0.780312,0.319152,-0.532408,4
2024-06-14 07:27:34.177,68.46,219.17,-19.39,-0.769576,0.306952,-0.515328,4
2024-06-14 07:27:34.181,68.67,227.36,-15.82,-0.762744,0.287432,-0.5002,4
2024-06-14 07:27:34.186,70.07,237.16,-11.06,-0.7671359999999999,0.262544,-0.496296,4
2024-06-14 07:27:34.191,71.96,247.94,-5.53,-0.78812,0.258152,-0.493856,4
2024-06-14 07:27:34.196,74.69,259.77,1.05,-0.796904,0.249368,-0.5045919999999999,4
2024-06-14 07:27:34.201,77.84,272.3,8.4,-0.794464,0.267912,-0.535824,4
2024-06-14 07:27:34.206,80.71,284.48,16.17,-0.7759199999999999,0.305976,-0.567056,4
2024-06-14 07:27:34.210,82.53,296.03,23.73,-0.7573759999999999,0.349408,-0.599752,4
2024-06-14 07:27:34.215,83.16,306.81,30.87,-0.739808,0.40455199999999997,-0.634888,4
2024-06-14 07:27:34.220,82.04,316.75,37.24,-0.7324879999999999,0.464576,-0.6587999999999999,4
2024-06-14 07:27:34.225,79.1,325.15,42.56,-0.716872,0.5436319999999999,-0.691984,4
2024-06-14 07:27:34.230,73.01,331.52,46.48,-0.6895439999999999,0.634888,-0.735904,4
2024-06-14 07:27:34.234,64.19,336.0,48.86,-0.66124,0.703696,-0.7856799999999999,4
2024-06-14 07:27:34.239,53.55,339.43,50.05,-0.6451359999999999,0.726632,-0.8130080000000001,4
2024-06-14 07:27:34.244,42.77,342.93,50.47,-0.637816,0.726144,-0.815448,4
2024-06-14 07:27:34.249,32.48,346.78,50.12,-0.627568,0.711992,-0.838872,4
2024-06-14 07:27:34.254,23.66,350.63,49.35,-0.613904,0.6841759999999999,-0.885232,4
2024-06-14 07:27:34.259,15.89,354.62,48.09,-0.61,0.657824,-0.9384239999999999,4
2024-06-14 07:27:34.263,9.24,359.87,46.48,-0.613416,0.637816,-1.0043039999999999,4
2024-06-14 07:27:34.268,3.15,366.17,44.03,-0.615856,0.635864,-1.06384,4
2024-06-14 07:27:34.273,-2.31,372.96,40.46,-0.618784,0.61732,-1.126792,4
2024-06-14 07:27:34.278,-6.58,380.17,35.56,-0.627568,0.593408,-1.20292,4
2024-06-14 07:27:34.283,-9.87,388.22,29.82,-0.625616,0.574376,-1.2917359999999998,4
2024-06-14 07:27:34.288,-12.67,396.06,23.1,-0.603656,0.554856,-1.375672,4
2024-06-14 07:27:34.292,-14.91,403.76,15.47,-0.5729120000000001,0.555832,-1.47376,4
2024-06-14 07:27:34.297,-17.15,410.62,7.21,-0.533384,0.55876,-1.565992,4
2024-06-14 07:27:34.302,-19.74,416.64,-1.61,-0.46945600000000004,0.57828,-1.655296,4
2024-06-14 07:27:34.307,-23.45,420.91,-11.2,-0.386496,0.6192719999999999,-1.742648,4
2024-06-14 07:27:34.312,-28.7,423.08,-21.77,-0.298168,0.6792959999999999,-1.8382960000000002,4
2024-06-14 07:27:34.316,-36.82,423.29,-33.25,-0.217648,0.7241920000000001,-1.924184,4
2024-06-14 07:27:34.321,-47.25,422.1,-44.87,-0.152256,0.72224,-2.019832,4
2024-06-14 07:27:34.326,-59.36,420.14,-55.16,-0.08686400000000001,0.660264,-2.1164560000000003,4
2024-06-14 07:27:34.331,-70.42,417.2,-61.67,-0.00732,0.569984,-2.205272,4
2024-06-14 07:27:34.336,-78.96,411.81,-64.26,0.062952,0.488976,-2.3082399999999996,4
2024-06-14 07:27:34.341,-86.17,404.6,-63.63,0.09711199999999999,0.438224,-2.415112,4
2024-06-14 07:27:34.345,-93.94,396.34,-61.74,0.11419199999999999,0.449936,-2.541016,4
2024-06-14 07:27:34.350,-103.95,387.8,-60.34,0.105408,0.505568,-2.680096,4
2024-06-14 07:27:34.355,-118.02,379.82,-60.13,0.098088,0.554368,-2.8182,4
2024-06-14 07:27:34.360,-135.38,373.38,-60.69,0.120536,0.561688,-2.968504,4
2024-06-14 07:27:34.365,-151.97,368.27,-60.62,0.18056,0.5021519999999999,-3.13296,4
2024-06-14 07:27:34.370,-164.71,364.7,-58.59,0.28694400000000003,0.37332,-3.2661839999999995,4
2024-06-14 07:27:34.374,-171.99,362.6,-54.39,0.406016,0.23277599999999998,-3.3672,4
2024-06-14 07:27:34.379,-174.3,361.48,-48.37,0.550464,0.107848,-3.456016,4
2024-06-14 07:27:34.384,-172.27,359.03,-41.3,0.674904,0.061,-3.514576,4
2024-06-14 07:27:34.389,-169.47,354.97,-34.51,0.79788,0.032208,-3.5565439999999997,4
2024-06-14 07:27:34.394,-166.88,348.81,-28.21,0.8808400000000001,0.011712,-3.587776,4
2024-06-14 07:27:34.398,-164.57,342.72,-21.77,0.9384239999999999,-0.041479999999999996,-3.592656,4
2024-06-14 07:27:34.403,-161.28,338.24,-14.28,0.97356,-0.13322399999999998,-3.561424,4
2024-06-14 07:27:34.408,-155.4,337.4,-4.83,1.010648,-0.246928,-3.501888,4
2024-06-14 07:27:34.413,-146.23,339.15,7.07,1.0677439999999998,-0.342576,-3.4179519999999997,4
2024-06-14 07:27:34.418,-134.19,341.39,21.49,1.1541199999999998,-0.426512,-3.279848,4
2024-06-14 07:27:34.423,-120.68,341.46,36.61,1.277096,-0.460184,-3.103192,4
2024-06-14 07:27:34.427,-107.45,337.4,49.91,1.3961679999999999,-0.42065600000000003,-2.9089679999999998,4
2024-06-14 07:27:34.432,-98.49,328.37,59.01,1.4381359999999999,-0.28108799999999995,-2.678632,4
2024-06-14 07:27:34.437,-106.82,318.5,61.81,1.4674159999999998,-0.240584,-2.5185679999999997,4
2024-06-14 07:27:34.442,-116.97,310.66,60.41,1.5928319999999998,-0.513864,-2.486848,4
2024-06-14 07:27:34.447,-102.27,300.16,59.43,1.743136,-0.908168,-2.45708,4
2024-06-14 07:27:34.452,-69.79,286.79,61.39,1.819752,-0.989664,-2.2716399999999997,4
2024-06-14 07:27:34.456,-34.16,270.06,64.82,1.835856,-0.69784,-2.053016,4
2024-06-14 07:27:34.461,-15.61,254.38,64.47,1.880752,-0.157624,-1.970056,4
2024-06-14 07:27:34.466,-21.35,241.15,58.66,1.99592,0.327936,-1.9032,4
2024-06-14 07:27:34.471,-42.07,228.83,48.51,2.226256,0.589016,-1.789008,4
2024-06-14 07:27:34.476,-66.36,215.25,36.61,2.62544,0.5856,-1.684576,4
2024-06-14 07:27:34.480,-87.29,199.01,24.57,3.238368,0.442616,-1.67384,4
2024-06-14 07:27:34.485,-105.98,179.2,14.35,4.0016,0.133712,-1.74216,4
2024-06-14 07:27:34.490,-122.08,152.88,11.13,4.710176,-0.454816,-1.804624,4
2024-06-14 07:27:34.495,-123.9,114.94,20.09,5.27284,-1.324432,-1.811944,4
2024-06-14 07:27:34.500,-102.06,67.13,38.92,5.445104000000001,-1.9881119999999999,-1.780224,4
2024-06-14 07:27:34.505,-59.85,13.3,66.29,5.264544,-2.32044,-1.6992159999999998,4
2024-06-14 07:27:34.509,-9.8,-38.29,92.75,4.721888,-2.1071839999999997,-1.68604,4
2024-06-14 07:27:34.514,30.66,-79.59,110.53,4.031368,-1.53232,-1.72996,4
2024-06-14 07:27:34.519,52.01,-107.24,117.81,3.317424,-0.8891359999999999,-1.7284959999999998,4
2024-06-14 07:27:34.524,56.77,-122.01,116.62,2.7225520000000003,-0.377224,-1.675304,4
2024-06-14 07:27:34.529,52.57,-127.68,110.18,2.318,-0.06539199999999999,-1.6225999999999998,4
2024-06-14 07:27:34.534,46.62,-129.92,101.64,2.0769279999999997,0.055144,-1.6304079999999999,4
2024-06-14 07:27:34.538,43.26,-132.93,92.96,1.965176,0.085888,-1.676768,4
2024-06-14 07:27:34.543,42.49,-140.56,84.35,1.929064,0.152256,-1.7568,4
2024-06-14 07:27:34.548,40.74,-152.95,75.53,1.908568,0.254248,-1.862696,4
2024-06-14 07:27:34.553,39.41,-178.08,58.03,-0.707112,3.177368,-1.946144,4
2024-06-14 07:27:34.558,68.88,-382.2,-6.02,-3.1222239999999997,-0.435784,-3.76492,0
2024-06-14 07:27:34.562,5.95,-255.5,12.88,-4.576952,0.28059999999999996,2.57176,0
