time,gyroscope_x,gyroscope_y,gyroscope_z,accelerometer_x,accelerometer_y,accelerometer_z,phase
2024-06-14 12:16:51.333,231.03500000000003,-392.315,-63.91,3.745888,-0.809836,-6.021676,1
2024-06-14 12:16:51.338,167.57999999999998,-241.255,-90.615,-2.32898,1.7953519999999998,2.75232,1
2024-06-14 12:16:51.342,362.705,-236.39,-75.07499999999999,-0.22960399999999997,0.34038,0.24595200000000017,1
2024-06-14 12:16:51.347,398.79,-240.1,-58.555,-1.789496,0.151768,-1.5835599999999999,1
2024-06-14 12:16:51.352,368.34000000000003,-280.735,-41.405,-0.583404,0.289628,-1.540616,1
2024-06-14 12:16:51.357,357.7,-297.36,-21.42,0.185196,0.250344,-1.725812,1
2024-06-14 12:16:51.362,275.03000000000003,-302.015,5.215,0.399184,-0.055144,-2.220644,1
2024-06-14 12:16:51.367,164.07999999999998,-301.66499999999996,37.415,0.26718,-0.406748,-2.3484999999999996,1
2024-06-14 12:16:51.372,73.92,-298.34000000000003,61.075,0.19397999999999999,-0.343796,-2.140612,1
2024-06-14 12:16:51.376,20.405,-281.61,67.86500000000001,0.22692,-0.5897479999999999,-2.173552,1
2024-06-14 12:16:51.381,6.58,-258.93,51.625,0.28914,-0.833504,-2.3977880000000003,1
2024-06-14 12:16:51.386,20.755000000000003,-216.93,18.235,0.25961599999999996,-0.819352,-2.263588,1
2024-06-14 12:16:51.391,23.205,-189.175,-13.754999999999999,0.141276,-0.5170359999999999,-2.2545599999999997,1
2024-06-14 12:16:51.396,13.09,-164.115,-25.725,0.08832799999999999,-0.134932,-1.807552,1
2024-06-14 12:16:51.401,0.665,-142.20499999999998,-18.655,0.13517600000000002,0.14518,-1.7868119999999998,1
2024-06-14 12:16:51.405,-5.145,-118.61500000000001,-1.75,0.153964,0.34648,-1.673352,1
2024-06-14 12:16:51.410,1.12,-92.33,16.205,0.133468,0.2562,-1.4879120000000001,1
2024-06-14 12:16:51.415,4.13,-80.325,24.884999999999998,0.142008,0.10321200000000001,-1.3717679999999999,1
2024-06-14 12:16:51.420,6.895,-68.705,25.27,0.017324,-0.056364,-1.263188,1
2024-06-14 12:16:51.425,5.81,-57.12,19.53,0.026352,-0.10833599999999999,-1.048712,1
2024-06-14 12:16:51.430,1.995,-45.01,11.025,-0.010735999999999999,-0.14810800000000002,-1.162416,1
2024-06-14 12:16:51.434,0.0,-34.195,5.95,-0.002927999999999993,-0.005368000000000001,-1.118984,1
2024-06-14 12:16:51.439,-0.385,-26.424999999999997,6.965,0.219112,0.083448,-0.9074359999999999,1
2024-06-14 12:16:51.444,-0.03500000000000003,-21.14,8.855,0.09272,0.091988,-1.067988,1
2024-06-14 12:16:51.449,1.82,-19.6,9.274999999999999,0.153232,0.052947999999999995,-1.1021480000000001,1
2024-06-14 12:16:51.454,3.675,-19.25,5.635,0.063684,-0.025132,-1.108736,1
2024-06-14 12:16:51.459,3.01,-15.995000000000001,1.4,0.011956000000000001,-0.042455999999999994,-1.093852,1
2024-06-14 12:16:51.463,0.665,-16.03,-0.42000000000000004,0.008052,-0.017324,-1.089216,2
2024-06-14 12:16:51.468,-1.12,-16.73,-1.085,-0.0046359999999999995,0.013907999999999997,-1.0799439999999998,2
2024-06-14 12:16:51.473,-0.8400000000000001,-17.22,-1.435,-0.020496,0.028791999999999998,-1.066524,2
2024-06-14 12:16:51.478,-0.175,-18.060000000000002,-2.3449999999999998,-0.023667999999999998,0.016836,-1.0523719999999999,2
2024-06-14 12:16:51.483,0.8400000000000001,-19.810000000000002,-2.6950000000000003,-0.012688,0.013908,-1.037,2
2024-06-14 12:16:51.488,0.9450000000000001,-20.509999999999998,-2.9050000000000002,-0.017568,0.015616000000000001,-1.039196,2
2024-06-14 12:16:51.492,1.4,-21.35,-3.115,-0.014395999999999999,0.004392,-1.0518839999999998,2
2024-06-14 12:16:51.497,1.05,-22.119999999999997,-3.64,-0.025864,-0.009271999999999999,-1.0750639999999998,2
2024-06-14 12:16:51.502,-0.595,-23.485,-3.535,-0.006588,0.025132,-1.068476,2
2024-06-14 12:16:51.507,-1.365,-25.060000000000002,-3.3600000000000003,-0.12053599999999999,-0.051484,-1.098244,2
2024-06-14 12:16:51.512,-3.08,-26.495,-3.745,-0.026595999999999998,0.0009759999999999999,-1.06872,2
2024-06-14 12:16:51.517,-3.465,-28.875,-3.325,0.044652,-0.030255999999999998,-1.024312,2
2024-06-14 12:16:51.521,-5.04,-30.03,-4.165,-0.012931999999999996,-0.009516,-1.02968,2
2024-06-14 12:16:51.526,-6.16,-31.185000000000002,-4.0600000000000005,-0.15372,0.024399999999999998,-1.120936,2
2024-06-14 12:16:51.531,-6.335,-33.46,-4.234999999999999,-0.061487999999999994,-0.0060999999999999995,-1.094096,2
2024-06-14 12:16:51.536,-6.965,-34.475,-3.7800000000000002,0.042943999999999996,0.011467999999999999,-1.046516,2
2024-06-14 12:16:51.541,-6.86,-36.61,-3.675,0.006344000000000006,-0.014639999999999997,-1.0445639999999998,2
2024-06-14 12:16:51.546,-7.28,-39.2,-3.92,-0.08198399999999999,0.020496,-1.078724,2
2024-06-14 12:16:51.550,-6.93,-41.72,-3.71,-0.017568,0.0009759999999999994,-1.055788,2
2024-06-14 12:16:51.555,-6.545,-42.875,-3.465,0.060511999999999996,0.013663999999999997,-1.03578,2
2024-06-14 12:16:51.560,-6.335,-44.379999999999995,-3.745,-0.016104,0.050752,-1.0328519999999999,2
2024-06-14 12:16:51.565,-3.7800000000000002,-45.325,-3.8150000000000004,-0.070516,-0.0004880000000000006,-1.081896,2
2024-06-14 12:16:51.570,-3.395,-45.185,-3.885,-0.012688000000000005,0.06880800000000001,-1.036512,2
2024-06-14 12:16:51.575,-0.98,-45.045,-3.745,0.20666800000000002,0.022692000000000004,-0.958676,2
2024-06-14 12:16:51.580,0.35,-47.11,-3.745,0.10931199999999999,0.03904,-0.9598959999999999,2
2024-06-14 12:16:51.584,2.065,-45.5,-3.885,-0.010736,0.035624,-1.042368,2
2024-06-14 12:16:51.589,3.08,-44.8,-3.8499999999999996,0.052947999999999995,0.028548000000000004,-1.0055239999999999,2
2024-06-14 12:16:51.594,4.62,-43.155,-3.9899999999999998,0.038796,0.02684,-1.0187,2
2024-06-14 12:16:51.599,5.53,-42.07,-3.955,0.041236,0.032208,-1.0155280000000002,2
2024-06-14 12:16:51.604,-12.18,122.36,-12.11,0.043676,0.034404000000000004,-1.037976,2
2024-06-14 12:16:51.609,4.235,-14.420000000000002,-5.459999999999999,0.038308,0.021471999999999998,-1.023336,2
2024-06-14 12:16:51.613,11.585,-16.905,-0.5249999999999999,0.051728,0.02074,-1.0177239999999999,2
2024-06-14 12:16:51.618,3.955,-25.305,-2.87,0.049044000000000004,0.013420000000000001,-1.023336,2
2024-06-14 12:16:51.623,12.39,-33.075,-6.09,0.051484,0.012688,-1.021872,2
2024-06-14 12:16:51.628,7.595,-33.25,-5.845,0.055144,0.016836,-1.024312,2
2024-06-14 12:16:51.633,12.425,-33.32,-2.24,0.052216,0.009516,-1.0201639999999998,2
2024-06-14 12:16:51.638,8.365,-33.705,-2.3449999999999998,0.062708,0.01586,-1.024556,2
2024-06-14 12:16:51.642,10.57,-33.53,-5.04,0.061488,0.020983999999999996,-1.028216,2
2024-06-14 12:16:51.647,11.165,-33.46,-6.16,0.060756000000000004,0.022448,-1.0262639999999998,2
2024-06-14 12:16:51.652,11.9,-33.04,-4.41,0.065148,0.018299999999999997,-1.017968,2
2024-06-14 12:16:51.657,12.739999999999998,-33.32,-3.3949999999999996,0.075152,0.017811999999999998,-1.0240679999999998,2
2024-06-14 12:16:51.662,12.04,-33.53,-5.040000000000001,0.078568,0.00976,-1.016016,2
2024-06-14 12:16:51.667,14.42,-33.075,-6.404999999999999,0.08003199999999999,0.008052,-1.0230920000000001,2
2024-06-14 12:16:51.671,13.265,-32.55,-5.845,0.08662,0.00732,-1.0230920000000001,2
2024-06-14 12:16:51.676,14.315000000000001,-33.18,-4.62,0.08784,0.008296,-1.022848,2
2024-06-14 12:16:51.681,14.175,-34.019999999999996,-5.04,0.09759999999999999,0.013663999999999999,-1.0169920000000001,2
2024-06-14 12:16:51.686,15.155,-34.614999999999995,-6.23,0.095648,-0.0017080000000000003,-1.030168,2
2024-06-14 12:16:51.691,13.440000000000001,-34.965,-6.475,0.09174399999999999,0.00488,-1.035536,2
2024-06-14 12:16:51.696,11.515,-35.595,-5.74,0.095892,-0.009028,-1.0384639999999998,2
2024-06-14 12:16:51.700,9.975000000000001,-36.155,-5.46,0.093696,-0.0060999999999999995,-1.0494439999999998,2
2024-06-14 12:16:51.705,7.665,-37.905,-6.44,0.09638,-0.008539999999999999,-1.068232,2
2024-06-14 12:16:51.710,7.0,-39.584999999999994,-6.79,0.103212,-0.009271999999999999,-1.0701839999999998,2
2024-06-14 12:16:51.715,6.404999999999999,-42.28,-6.3,0.095648,-0.008296,-1.0982439999999998,2
2024-06-14 12:16:51.720,2.2399999999999998,-44.730000000000004,-6.545,0.09296399999999999,-0.004148,-1.11874,2
2024-06-14 12:16:51.725,0.665,-48.055,-7.35,0.106872,0.008051999999999998,-1.1021480000000001,2
2024-06-14 12:16:51.729,0.07,-51.379999999999995,-8.295,0.10858000000000001,0.00048800000000000015,-1.118984,2
2024-06-14 12:16:51.734,-0.735,-56.769999999999996,-7.525,0.09418399999999999,-0.029524,-1.133136,2
2024-06-14 12:16:51.739,-3.7800000000000002,-64.57499999999999,-7.35,0.121512,0.06222,-1.121668,2
2024-06-14 12:16:51.744,-6.475,-68.18,-9.065,0.11834,-0.0427,-1.116056,2
2024-06-14 12:16:51.749,-5.81,-70.315,-8.68,0.125904,0.012199999999999999,-1.148996,2
2024-06-14 12:16:51.754,-10.885,-73.255,-9.17,0.12712400000000001,-0.024399999999999998,-1.16266,2
2024-06-14 12:16:51.758,-13.440000000000001,-80.04499999999999,-9.1,0.12346399999999999,0.005124,-1.1724199999999998,2
2024-06-14 12:16:51.763,-14.35,-82.88,-8.82,0.144936,-0.0053679999999999995,-1.1831559999999999,2
2024-06-14 12:16:51.768,-13.405,-83.09,-9.1,0.135664,0.024644,-1.220732,2
2024-06-14 12:16:51.773,-16.064999999999998,-87.15,-9.94,0.13956799999999997,0.018788,-1.2200000000000002,2
2024-06-14 12:16:51.778,-17.57,-90.335,-10.325,0.145668,-0.003904,-1.22,2
2024-06-14 12:16:51.783,-19.39,-94.95500000000001,-10.325,0.142984,-0.00024399999999999997,-1.277584,2
2024-06-14 12:16:51.788,-22.365000000000002,-102.095,-10.745000000000001,0.140056,-0.016592,-1.2712400000000001,2
2024-06-14 12:16:51.792,-24.15,-108.5,-10.71,0.14444800000000002,0.0019519999999999997,-1.3102800000000001,2
2024-06-14 12:16:51.797,-26.564999999999998,-115.605,-11.059999999999999,0.142496,-0.005856,-1.306376,2
2024-06-14 12:16:51.802,-29.33,-120.53999999999999,-11.165,0.15884399999999999,-0.005124,-1.3051560000000002,2
2024-06-14 12:16:51.807,-31.115000000000002,-126.73500000000001,-11.095,0.17812,-0.002928,-1.300032,2
2024-06-14 12:16:51.812,-30.485,-132.3,-10.920000000000002,0.151036,-0.013663999999999999,-1.3542,2
2024-06-14 12:16:51.817,-31.919999999999998,-142.31,-11.129999999999999,0.16909200000000002,0.01586,-1.42008,2
2024-06-14 12:16:51.821,-32.935,-152.915,-11.795,0.169092,0.040748,-1.251964,2
2024-06-14 12:16:51.826,-36.54,-161.315,-13.615,0.18666,0.060268,-1.3563960000000002,2
2024-06-14 12:16:51.831,-34.65,-170.135,-13.754999999999999,0.19154,-0.034648,-1.4679039999999999,2
2024-06-14 12:16:51.836,-30.52,-183.365,-14.21,0.17055599999999999,0.09589199999999999,-1.449116,2
2024-06-14 12:16:51.841,-27.509999999999998,-191.485,-16.905,0.177632,0.118096,-1.424472,2
2024-06-14 12:16:51.846,-22.295,-203.28,-18.515,0.192272,0.068808,-1.474248,2
2024-06-14 12:16:51.850,-18.619999999999997,-215.985,-19.880000000000003,0.175192,0.079788,-1.492792,2
2024-06-14 12:16:51.855,-17.08,-228.935,-21.840000000000003,0.166408,0.093208,-1.5181679999999997,2
2024-06-14 12:16:51.860,-14.77,-242.48000000000002,-23.729999999999997,0.181536,0.08637600000000001,-1.609668,2
2024-06-14 12:16:51.865,-10.045,-256.725,-25.445,0.181048,0.144936,-1.6723759999999999,2
2024-06-14 12:16:51.870,-11.27,-273.98,-25.9,0.17885199999999998,0.214232,-1.718248,2
2024-06-14 12:16:51.875,-13.86,-290.99,-32.935,0.16836,0.206668,-1.80682,2
2024-06-14 12:16:51.879,-9.940000000000001,-314.02,-37.099999999999994,0.17055599999999999,0.178364,-1.771684,3
2024-06-14 12:16:51.884,-8.75,-337.71500000000003,-40.879999999999995,0.19032,0.23668,-1.901004,3
2024-06-14 12:16:51.889,-11.55,-357.805,-45.115,0.2135,0.205448,-2.024956,3
2024-06-14 12:16:51.894,-12.74,-381.95500000000004,-48.474999999999994,0.24961199999999997,0.137128,-2.21186,3
2024-06-14 12:16:51.899,-3.955,-407.225,-48.405,0.199104,0.13883600000000001,-2.383636,3
2024-06-14 12:16:51.904,1.645,-432.775,-48.685,0.23863199999999998,0.23765599999999998,-2.514908,3
2024-06-14 12:16:51.908,2.135,-449.015,-47.565,0.364048,0.247172,-2.9216559999999996,3
2024-06-14 12:16:51.913,7.21,-454.51,-45.92,0.543876,0.142984,-3.219824,3
2024-06-14 12:16:51.918,22.82,-471.87,-43.225,0.5063,0.05978,-3.016572,3
2024-06-14 12:16:51.923,17.009999999999998,-483.90999999999997,-41.230000000000004,0.26815599999999995,0.37088,-3.3147399999999996,3
2024-06-14 12:16:51.928,8.715,-488.39,-43.33,0.17421599999999998,0.351604,-3.3676880000000002,3
2024-06-14 12:16:51.933,14.7,-494.76,-45.955,0.33794,0.12956399999999998,-3.321816,3
2024-06-14 12:16:51.937,42.7,-500.745,-45.255,0.358192,-0.044164,-3.3098600000000005,3
2024-06-14 12:16:51.942,67.34,-516.1800000000001,-40.285,0.20862,0.09394,-3.2098199999999997,3
2024-06-14 12:16:51.947,75.46000000000001,-527.31,-35.980000000000004,0.06368399999999999,0.4626239999999999,-3.117832,3
2024-06-14 12:16:51.952,63.105,-533.2249999999999,-37.485,-0.065148,0.676124,-2.9746040000000002,3
2024-06-14 12:16:51.957,54.81,-531.23,-42.595,-0.08906,0.714188,-2.797948,3
2024-06-14 12:16:51.962,47.53,-522.935,-48.965,-0.368196,0.560712,-2.493924,3
2024-06-14 12:16:51.966,39.025000000000006,-499.55499999999995,-58.275000000000006,-0.526796,1.044808,-2.0171479999999997,3
2024-06-14 12:16:51.971,30.975,-472.32500000000005,-58.8,-1.1009280000000001,0.915244,-1.716784,3
2024-06-14 12:16:51.976,23.905,-441.14,-71.225,-1.239032,1.157048,-1.8539119999999998,3
2024-06-14 12:16:51.981,0.10499999999999954,-424.16499999999996,-87.43,-1.154608,1.167296,-2.117432,3
2024-06-14 12:16:51.986,-36.575,-400.61,-103.775,-1.4217879999999998,1.002108,-2.109136,3
2024-06-14 12:16:51.991,-74.06,-366.65999999999997,-123.75999999999999,-1.005036,0.882548,-1.7836400000000001,3
2024-06-14 12:16:51.995,-92.25999999999999,-367.85,-136.78,-0.486292,0.862296,-1.2685559999999998,3
2024-06-14 12:16:52.000,-92.29499999999999,-302.575,-136.95499999999998,-1.241472,0.549488,-1.539152,3
2024-06-14 12:16:52.005,-96.35499999999999,-185.01,-123.19999999999999,-2.018856,0.192272,-1.3815279999999999,3
2024-06-14 12:16:52.010,-68.635,-80.815,-89.35499999999999,-1.7709519999999999,-0.061,-1.0431,3
2024-06-14 12:16:52.015,-17.92,3.1500000000000004,-47.95,-1.494988,-0.278404,-1.113128,3
2024-06-14 12:16:52.020,21.84,77.035,-10.64,-1.512068,-0.32988799999999996,-1.212436,3
2024-06-14 12:16:52.025,54.215,136.745,24.43,-1.39446,-0.223016,-1.078236,3
2024-06-14 12:16:52.029,85.19,178.115,52.045,-1.1892559999999999,-0.12346399999999999,-1.011136,3
2024-06-14 12:16:52.034,105.805,208.425,68.495,-1.091656,-0.020252,-0.9789279999999999,3
2024-06-14 12:16:52.039,113.4,232.89,77.38499999999999,-1.034316,0.10638399999999999,-0.867664,3
2024-06-14 12:16:52.044,111.72,253.855,81.2,-0.96014,0.21984399999999998,-0.777384,3
2024-06-14 12:16:52.049,102.16499999999999,271.91499999999996,79.415,-0.8879159999999999,0.29401999999999995,-0.750788,4
2024-06-14 12:16:52.054,86.52,287.35,73.32499999999999,-0.8325279999999999,0.35062799999999994,-0.735416,4
2024-06-14 12:16:52.058,67.47999999999999,300.195,64.53999999999999,-0.7942199999999999,0.383324,-0.6963760000000001,4
2024-06-14 12:16:52.063,47.565,310.345,54.040000000000006,-0.757864,0.376004,-0.67222,4
2024-06-14 12:16:52.068,27.825,317.485,42.315,-0.681248,0.35502,-0.682468,4
2024-06-14 12:16:52.073,9.905000000000001,322.98,30.555,-0.624152,0.308904,-0.6995480000000001,4
2024-06-14 12:16:52.078,-4.935,327.42499999999995,19.95,-0.574376,0.229604,-0.7019880000000001,4
2024-06-14 12:16:52.083,-15.364999999999998,332.15,10.955,-0.537288,0.144448,-0.704184,4
2024-06-14 12:16:52.087,-20.825,337.505,3.5,-0.5063,0.067832,-0.721508,4
2024-06-14 12:16:52.092,-21.91,344.08500000000004,-2.065,-0.475312,0.0017079999999999986,-0.757376,4
2024-06-14 12:16:52.097,-19.425,350.805,-5.775,-0.448716,-0.065148,-0.811788,4
2024-06-14 12:16:52.102,-14.245000000000001,358.12,-7.5600000000000005,-0.436516,-0.12395199999999998,-0.862052,4
2024-06-14 12:16:52.107,-6.965,365.61,-7.42,-0.429196,-0.17202,-0.906704,4
2024-06-14 12:16:52.112,1.7849999999999997,373.485,-6.195,-0.426024,-0.19324799999999998,-0.965996,4
2024-06-14 12:16:52.116,10.955,381.71000000000004,-4.165,-0.42065600000000003,-0.17958400000000002,-1.030656,4
2024-06-14 12:16:52.121,19.18,389.69,-1.9249999999999998,-0.401624,-0.144204,-1.115568,4
2024-06-14 12:16:52.126,25.759999999999998,398.79,0.385,-0.37624799999999997,-0.10516400000000001,-1.1663200000000002,4
2024-06-14 12:16:52.131,30.94,408.345,2.2399999999999998,-0.361608,-0.035136,-1.22366,4
2024-06-14 12:16:52.136,33.11,417.655,2.66,-0.33818400000000004,0.038796,-1.288564,4
2024-06-14 12:16:52.141,33.04,426.96500000000003,1.82,-0.29743600000000003,0.10125999999999999,-1.3610319999999998,4
2024-06-14 12:16:52.145,31.045,435.12,-0.10499999999999998,-0.258396,0.1769,-1.423984,4
2024-06-14 12:16:52.150,27.93,442.435,-3.325,-0.21472,0.24570799999999998,-1.4779079999999998,4
2024-06-14 12:16:52.155,21.91,448.455,-7.700000000000001,-0.161772,0.31012399999999996,-1.534516,4
2024-06-14 12:16:52.160,14.875,453.005,-12.635,-0.082472,0.322568,-1.593564,4
2024-06-14 12:16:52.165,4.725,457.1,-18.165,-0.062708,0.398696,-1.614792,4
2024-06-14 12:16:52.170,-4.76,458.46500000000003,-23.310000000000002,0.007320000000000001,0.403088,-1.732888,4
2024-06-14 12:16:52.174,-14.315,457.625,-27.93,0.071736,0.42358399999999996,-1.7711959999999998,4
2024-06-14 12:16:52.179,-23.975,454.92999999999995,-31.465000000000003,0.124928,0.427976,-1.84708,4
2024-06-14 12:16:52.184,-32.795,451.46500000000003,-33.215,0.20105599999999998,0.412848,-1.892464,4
2024-06-14 12:16:52.189,-39.095,448.21000000000004,-32.76,0.213012,0.42065600000000003,-1.94956,4
2024-06-14 12:16:52.194,-43.540000000000006,444.64,-30.415,0.25132,0.40626,-1.9912839999999998,4
2024-06-14 12:16:52.199,-47.775,441.84000000000003,-26.845,0.27815999999999996,0.418948,-2.060824,4
2024-06-14 12:16:52.203,-52.675,438.655,-21.770000000000003,0.314028,0.44310399999999994,-2.13378,4
2024-06-14 12:16:52.208,-58.765,434.875,-15.399999999999999,0.35038400000000003,0.46311199999999997,-2.2189360000000002,4
2024-06-14 12:16:52.213,-65.69500000000001,430.95500000000004,-7.734999999999999,0.38552,0.487268,-2.301896,4
2024-06-14 12:16:52.218,-73.22,427.56,1.4700000000000002,0.43700399999999995,0.509228,-2.400716,4
2024-06-14 12:16:52.223,-80.64,424.83,12.11,0.50874,0.532408,-2.500756,4
2024-06-14 12:16:52.228,-87.815,422.975,24.15,0.610732,0.549488,-2.592744,4
2024-06-14 12:16:52.233,-94.08,421.4,37.485,0.7424919999999999,0.5873079999999999,-2.682048,4
2024-06-14 12:16:52.237,-99.82,419.125,50.96,0.88206,0.643916,-2.762568,4
2024-06-14 12:16:52.242,-106.995,416.22,63.56,1.017968,0.726388,-2.828692,4
2024-06-14 12:16:52.247,-116.62,410.27,73.85,1.1758359999999999,0.802028,-2.892132,4
2024-06-14 12:16:52.252,-130.2,403.445,81.13,1.343464,0.87596,-2.877248,4
2024-06-14 12:16:52.257,-150.185,395.185,84.97999999999999,1.41154,0.821304,-2.817712,4
2024-06-14 12:16:52.262,-193.095,382.725,85.68,1.447896,0.69418,-2.90482,4
2024-06-14 12:16:52.266,-234.15,370.44,84.21000000000001,1.679696,0.5416799999999999,-2.94386,4
2024-06-14 12:16:52.271,-254.66,355.145,83.475,1.8834359999999999,0.346968,-2.987292,4
2024-06-14 12:16:52.276,-256.16499999999996,339.71000000000004,84.07,2.083272,0.132736,-2.976556,4
2024-06-14 12:16:52.281,-241.815,323.4,86.13499999999999,2.274812,-0.057583999999999996,-2.8984759999999996,4
2024-06-14 12:16:52.286,-218.155,306.28499999999997,89.18,2.44,-0.21716,-2.7611039999999996,4
2024-06-14 12:16:52.291,-197.225,288.995,102.375,2.299212,0.288164,-2.63398,4
2024-06-14 12:16:52.295,-177.66,271.495,117.53,3.76736,-1.738012,-2.507832,4
2024-06-14 12:16:52.300,-158.585,252.63,90.405,3.01462,-0.39528,-2.328004,4
2024-06-14 12:16:52.305,-154.42000000000002,232.61,83.16,3.262036,-0.367952,-2.1837999999999997,4
2024-06-14 12:16:52.310,-154.35,212.765,70.63,3.512868,-0.34940800000000005,-2.20576,4
2024-06-14 12:16:52.315,-153.3,187.915,51.275,3.854224,-0.410408,-2.02642,4
2024-06-14 12:16:52.320,-142.58999999999997,160.16,26.145,4.069676,-0.524112,-1.8270719999999998,4
2024-06-14 12:16:52.324,-131.91500000000002,133.175,-2.6250000000000004,4.319775999999999,-0.6683159999999999,-1.69824,4
2024-06-14 12:16:52.329,-119.42,105.525,-31.15,4.518148,-0.873764,-1.622356,4
2024-06-14 12:16:52.334,-99.12,74.13,-56.07,4.575732,-1.126548,-1.592832,4
2024-06-14 12:16:52.340,-69.615,40.25,-73.465,4.512779999999999,-1.3622519999999998,-1.5106039999999998,4
2024-06-14 12:16:52.345,-30.555,4.725,-81.725,4.336124,-1.506456,-1.42984,4
2024-06-14 12:16:52.350,13.3,-30.590000000000003,-82.46,4.065772,-1.502796,-1.391044,4
2024-06-14 12:16:52.354,54.635,-62.614999999999995,-79.065,3.74418,-1.3298,-1.410808,4
2024-06-14 12:16:52.359,87.99,-90.26499999999999,-74.58500000000001,3.397456,-1.04554,-1.4547280000000002,4
2024-06-14 12:16:52.364,153.72,-236.6,-83.055,4.555479999999999,0.127856,-5.644207999999999,0
