time,gyroscope_x,gyroscope_y,gyroscope_z,accelerometer_x,accelerometer_y,accelerometer_z,phase
2024-06-14 11:18:35.416,161.14,-487.375,71.015,5.036648,-1.765584,-4.39322,1
2024-06-14 11:18:35.421,126.28,-321.055,36.47,0.42797599999999997,-0.5599799999999999,0.5775480000000001,1
2024-06-14 11:18:35.426,103.67,-360.185,27.02,-0.893528,0.6319600000000001,1.6326040000000002,1
2024-06-14 11:18:35.431,164.885,-465.325,45.325,0.23546,-0.010004,-2.558096,1
2024-06-14 11:18:35.435,45.92,-331.345,60.129999999999995,-0.97844,-0.14347200000000002,-1.7550919999999999,1
2024-06-14 11:18:35.440,0.06999999999999984,-340.27,74.97,-0.253516,0.031231999999999996,-1.715808,1
2024-06-14 11:18:35.445,-32.165,-349.475,83.405,0.07807999999999998,-0.09272,-1.896124,1
2024-06-14 11:18:35.450,-54.635000000000005,-339.115,84.42,0.367952,-0.26108,-1.973228,1
2024-06-14 11:18:35.455,-44.730000000000004,-325.64,76.965,0.355264,-0.481656,-2.113284,1
2024-06-14 11:18:35.460,-47.635000000000005,-313.74,58.275000000000006,0.24692799999999998,-0.599996,-2.584692,1
2024-06-14 11:18:35.464,-54.425,-294.0,35.84,0.181292,-0.633668,-2.950936,1
2024-06-14 11:18:35.469,-45.254999999999995,-257.355,9.415,0.24326799999999998,-0.62464,-2.93654,1
2024-06-14 11:18:35.474,-20.580000000000002,-199.95499999999998,-13.335,0.23204399999999997,-0.335744,-2.2716399999999997,1
2024-06-14 11:18:35.479,-9.975000000000001,-148.96,-25.725,0.156404,-0.042456,-1.885632,1
2024-06-14 11:18:35.484,-10.5,-98.49000000000001,-22.189999999999998,0.080764,0.231068,-1.520608,1
2024-06-14 11:18:35.489,-15.259999999999998,-61.845,-7.805,0.06588,0.26059199999999993,-1.3563960000000002,1
2024-06-14 11:18:35.494,-20.369999999999997,-34.685,7.105,0.050752,0.189588,-1.225368,1
2024-06-14 11:18:35.498,-17.71,-24.43,11.55,-0.018056,0.047824,-1.1187399999999998,1
2024-06-14 11:18:35.503,-15.155000000000001,-17.675,7.63,-0.06709999999999999,-0.020252,-1.06506,1
2024-06-14 11:18:35.508,-9.835,-15.015,3.465,-0.088572,-0.043676,-1.0230920000000001,1
2024-06-14 11:18:35.513,-9.870000000000001,-13.580000000000002,-1.085,-0.018788,-0.02318,-1.044076,1
2024-06-14 11:18:35.518,-8.89,-11.06,-3.64,0.0019519999999999989,0.050752000000000005,-1.047492,1
2024-06-14 11:18:35.523,-7.244999999999999,-9.555,-1.54,0.023424,0.076128,-1.0518839999999998,1
2024-06-14 11:18:35.527,-5.775,-7.3149999999999995,2.38,-0.0039039999999999995,0.049775999999999994,-1.038708,1
2024-06-14 11:18:35.532,-4.095,-5.25,2.59,-0.048068,0.022935999999999998,-1.022116,1
2024-06-14 11:18:35.537,-2.73,-4.2,-0.17500000000000004,-0.060511999999999996,0.012931999999999999,-1.01138,1
2024-06-14 11:18:35.542,-1.435,-3.29,-2.24,-0.06075599999999999,0.036112,-1.0226039999999998,1
2024-06-14 11:18:35.547,-0.14,-2.59,-2.66,-0.05099600000000001,0.00732,-1.0365119999999999,1
2024-06-14 11:18:35.552,0.8049999999999999,-2.38,-3.4299999999999997,-0.035379999999999995,-0.0024400000000000003,-1.057252,1
2024-06-14 11:18:35.557,-0.315,-3.815,-3.045,-0.071004,-0.00024399999999999986,-1.033828,1
2024-06-14 11:18:35.561,-1.0150000000000001,-4.795,-2.73,-0.08174000000000001,0.025132,-1.0182120000000001,2
2024-06-14 11:18:35.566,-0.98,-5.775,-3.045,-0.071736,0.021716,-1.016748,2
2024-06-14 11:18:35.571,-0.9450000000000001,-6.475,-3.15,-0.06466,0.014395999999999999,-1.015528,2
2024-06-14 11:18:35.576,-1.12,-6.720000000000001,-3.08,-0.067588,0.016348,-1.0152839999999999,2
2024-06-14 11:18:35.581,-1.225,-7.525,-3.08,-0.073932,0.020007999999999998,-1.02358,2
2024-06-14 11:18:35.586,-1.26,-9.135000000000002,-3.255,-0.077836,0.019763999999999997,-1.0152839999999999,2
2024-06-14 11:18:35.590,-1.6800000000000002,-9.73,-3.43,-0.06953999999999999,0.013663999999999999,-1.0091839999999999,2
2024-06-14 11:18:35.595,-1.9949999999999999,-11.129999999999999,-3.535,-0.076372,0.017324,-1.025532,2
2024-06-14 11:18:35.600,-2.17,-13.615,-3.57,-0.08417999999999999,0.018300000000000004,-1.0340719999999999,2
2024-06-14 11:18:35.605,-2.2750000000000004,-16.240000000000002,-3.815,-0.079544,0.020007999999999998,-1.0313880000000002,2
2024-06-14 11:18:35.610,-2.3449999999999998,-18.130000000000003,-3.815,-0.072468,0.015616,-1.027728,2
2024-06-14 11:18:35.615,-2.415,-19.564999999999998,-4.095000000000001,-0.06783199999999999,0.015616000000000001,-1.021628,2
2024-06-14 11:18:35.620,-2.485,-21.35,-3.9899999999999998,-0.066856,0.01464,-1.02358,2
2024-06-14 11:18:35.624,-3.7800000000000002,-26.985,-3.8499999999999996,-0.067588,0.012931999999999999,-1.023092,2
2024-06-14 11:18:35.629,-2.625,-23.695,-3.5349999999999997,-0.063928,0.014152,-1.023336,2
2024-06-14 11:18:35.634,-2.66,-25.27,-3.395,-0.063196,0.017324,-1.027728,2
2024-06-14 11:18:35.639,-2.31,-26.564999999999998,-3.255,-0.060268,0.019520000000000003,-1.02724,2
2024-06-14 11:18:35.644,-1.7149999999999999,-28.35,-3.045,-0.057828000000000004,0.020496,-1.026996,2
2024-06-14 11:18:35.649,0.875,-28.14,-2.38,-0.052704,0.019032,-1.01992,2
2024-06-14 11:18:35.653,0.63,-28.735,-2.38,-0.05368,0.017568,-1.0189439999999998,2
2024-06-14 11:18:35.658,1.015,-28.91,-2.31,-0.051972000000000004,0.018299999999999997,-1.01748,2
2024-06-14 11:18:35.663,0.875,-31.115,-2.2750000000000004,-0.046116000000000004,0.023668,-1.0238239999999998,2
2024-06-14 11:18:35.668,1.4,-32.97,-2.345,-0.04148,0.024399999999999998,-1.01626,2
2024-06-14 11:18:35.673,1.645,-32.655,-2.24,-0.039772,0.026108,-1.020896,2
2024-06-14 11:18:35.678,2.66,-33.879999999999995,-2.31,-0.038552,0.026840000000000003,-1.0194320000000001,2
2024-06-14 11:18:35.683,2.975,-33.425,-2.31,-0.033915999999999995,0.024155999999999997,-1.0182120000000001,2
2024-06-14 11:18:35.687,-1.12,-80.255,-1.7149999999999999,-0.028304,0.028303999999999996,-1.0128439999999999,2
2024-06-14 11:18:35.692,3.4299999999999997,-33.425,-2.205,-0.024399999999999998,0.023424,-1.015284,2
2024-06-14 11:18:35.697,2.8,-31.534999999999997,-2.59,-0.02318,0.022691999999999997,-1.015528,2
2024-06-14 11:18:35.704,3.185,-32.305,-2.415,-0.0183,0.025132,-1.0116239999999999,2
2024-06-14 11:18:35.709,5.46,-0.5250000000000021,-2.275,-0.015127999999999999,0.02318,-1.00772,2
2024-06-14 11:18:35.714,3.535,-28.945,-2.17,-0.012199999999999999,0.019763999999999997,-1.006256,2
2024-06-14 11:18:35.718,1.9249999999999998,-28.0,-2.31,-0.01586,0.024156,-1.012844,2
2024-06-14 11:18:35.723,7.63,-23.94,-2.31,-0.007076000000000001,0.016836,-1.012356,2
2024-06-14 11:18:35.728,2.52,-17.185,-1.6099999999999999,-0.014152000000000001,0.017324,-1.012356,2
2024-06-14 11:18:35.733,-0.175,-26.88,-2.065,-0.002684,0.019032,-1.0133320000000001,2
2024-06-14 11:18:35.738,0.875,-27.93,-1.2950000000000002,-0.005856,0.016348,-1.01626,2
2024-06-14 11:18:35.743,-1.54,-30.415,-1.505,0.0034159999999999998,0.017324,-1.019188,2
2024-06-14 11:18:35.747,0.0,-30.695,-1.645,0.001464,0.020007999999999998,-1.01992,2
2024-06-14 11:18:35.752,-2.24,-31.395,-1.855,0.008784,0.01586,-1.0387079999999997,2
2024-06-14 11:18:35.757,-0.9099999999999999,-31.814999999999998,-1.47,0.007319999999999999,0.016348,-1.008696,2
2024-06-14 11:18:35.762,-2.135,-32.760000000000005,-1.155,0.013664,0.023912,-1.01748,2
2024-06-14 11:18:35.767,-1.75,-34.055,-0.315,0.021716,0.031476,-1.0248,2
2024-06-14 11:18:35.772,0.525,-33.53,-0.175,0.011956,0.017812,-1.0213839999999998,3
2024-06-14 11:18:35.776,0.07,-33.635000000000005,-0.595,0.017079999999999998,0.02074,-1.0177239999999999,3
2024-06-14 11:18:35.781,0.56,-33.355000000000004,-0.9450000000000001,0.023668,0.02074,-1.016016,3
2024-06-14 11:18:35.786,2.24,-32.795,-1.0150000000000001,0.016836,0.024155999999999997,-1.0262639999999998,3
2024-06-14 11:18:35.791,11.899999999999999,-28.560000000000002,-0.8049999999999999,0.02562,0.044896,-1.056276,3
2024-06-14 11:18:35.796,14.595,-28.945,-0.63,0.022204,0.011468,-0.998936,3
2024-06-14 11:18:35.800,5.04,-35.42,-1.19,0.022935999999999998,0.027327999999999998,-1.043588,3
2024-06-14 11:18:35.805,4.62,-30.87,-0.875,0.0244,0.012688,-1.0309,3
2024-06-14 11:18:35.810,2.24,-30.03,-1.47,0.022448,0.015616,-1.046516,3
2024-06-14 11:18:35.815,1.7850000000000001,-31.325,-1.995,0.033672,0.020496,-1.047248,3
2024-06-14 11:18:35.820,0.875,-31.71,-1.96,0.040015999999999996,0.018788,-1.074088,3
2024-06-14 11:18:35.825,-0.9099999999999999,-29.295,-1.75,0.049776,0.010492,-1.069452,3
2024-06-14 11:18:35.829,-2.415,-28.735,-1.995,0.040992,0.006344000000000001,-1.04188,3
2024-06-14 11:18:35.834,-3.71,-30.275,-2.1,0.046116000000000004,0.006344000000000001,-1.0716479999999997,3
2024-06-14 11:18:35.839,-5.46,-31.08,-1.96,0.051727999999999996,0.0031719999999999995,-1.063108,3
2024-06-14 11:18:35.844,-6.86,-31.605,-1.7149999999999999,0.05734,0.001952,-1.0882399999999999,3
2024-06-14 11:18:35.849,-7.805,-31.465,-1.6099999999999999,0.050264,0.010004,-1.111664,3
2024-06-14 11:18:35.854,-8.785,-31.045,-1.33,0.05368,0.009271999999999999,-1.13338,3
2024-06-14 11:18:35.858,-7.42,-32.69,-0.63,0.054412,0.007076,-1.1433840000000002,3
2024-06-14 11:18:35.863,-7.595000000000001,-32.76,-0.27999999999999997,0.044408,0.014395999999999999,-1.189012,3
2024-06-14 11:18:35.868,-11.165,-37.275000000000006,-0.07,0.059536000000000006,-0.00976,-1.1868159999999999,3
2024-06-14 11:18:35.873,-14.315000000000001,-41.474999999999994,-0.14,0.049044,-0.006588,-1.260748,3
2024-06-14 11:18:35.878,-19.53,-46.900000000000006,-0.56,0.050264,0.003172,-1.2902719999999999,3
2024-06-14 11:18:35.883,-22.259999999999998,-52.08,-0.455,0.055144,0.00244,-1.2658719999999999,3
2024-06-14 11:18:35.887,-24.534999999999997,-58.87,-0.315,0.051484,0.001952,-1.318576,3
2024-06-14 11:18:35.892,-27.23,-65.345,-0.27999999999999997,0.056608000000000006,0.01098,-1.3173559999999997,3
2024-06-14 11:18:35.897,-29.82,-71.505,-0.10499999999999998,0.06636799999999998,-0.015371999999999999,-1.2990559999999998,3
2024-06-14 11:18:35.902,-32.41,-77.84,0.665,0.063196,-0.028304000000000003,-1.297348,3
2024-06-14 11:18:35.907,-36.855000000000004,-85.015,1.225,0.063928,-0.031964,-1.3969,3
2024-06-14 11:18:35.912,-39.235,-91.35,2.17,0.060756000000000004,-0.0427,-1.36152,3
2024-06-14 11:18:35.916,-42.91,-100.41499999999999,3.08,0.057583999999999996,-0.026352,-1.42374,3
2024-06-14 11:18:35.921,-46.025,-110.39,3.71,0.05612,-0.012931999999999999,-1.44204,3
2024-06-14 11:18:35.926,-48.685,-120.995,3.955,0.041968000000000005,0.020496,-1.487912,3
2024-06-14 11:18:35.931,-51.519999999999996,-133.45499999999998,3.605,0.034648,0.034892,-1.54208,3
2024-06-14 11:18:35.936,-52.29,-147.91,3.1849999999999996,0.030011999999999997,0.053436,-1.563064,3
2024-06-14 11:18:35.940,-52.955,-163.695,2.24,0.017324,0.061244,-1.6042999999999998,3
2024-06-14 11:18:35.945,-52.045,-180.84500000000003,1.5750000000000002,0.00976,0.083204,-1.6399239999999997,3
2024-06-14 11:18:35.950,-51.205,-199.57,0.14,-0.0053679999999999995,0.12956399999999998,-1.694336,3
2024-06-14 11:18:35.955,-50.4,-219.66,-2.03,-0.018056000000000003,0.15250000000000002,-1.763388,3
2024-06-14 11:18:35.960,-50.085,-240.905,-4.34,-0.033916,0.155428,-1.8380519999999998,3
2024-06-14 11:18:35.965,-49.21,-263.76,-6.65,-0.046116000000000004,0.162748,-1.9319920000000002,3
2024-06-14 11:18:35.969,-47.985,-286.96500000000003,-9.274999999999999,-0.071736,0.198372,-2.023492,3
2024-06-14 11:18:35.974,-47.39,-311.22,-12.6,-0.113948,0.236436,-2.115724,3
2024-06-14 11:18:35.979,-46.445,-338.03,-16.205000000000002,-0.13907999999999998,0.20984000000000003,-2.121824,3
2024-06-14 11:18:35.984,-45.43,-367.255,-19.18,-0.13273599999999997,0.21032800000000001,-2.1603760000000003,3
2024-06-14 11:18:35.989,-49.105,-397.11,-22.155,-0.142496,0.155916,-2.3148280000000003,3
2024-06-14 11:18:35.994,-53.55,-427.805,-23.17,-0.140788,0.072468,-2.434876,3
2024-06-14 11:18:35.998,-57.225,-456.435,-22.119999999999997,-0.12688,0.01708,-2.545408,3
2024-06-14 11:18:36.003,-64.925,-483.245,-19.775,-0.060511999999999996,-0.014152,-2.785748,3
2024-06-14 11:18:36.008,-79.38,-505.47,-16.52,0.072712,-0.106628,-3.120028,3
2024-06-14 11:18:36.013,-96.285,-526.12,-11.62,0.11248399999999999,-0.18666,-3.262768,3
2024-06-14 11:18:36.018,-109.725,-546.0,-8.05,0.174948,-0.15176800000000001,-3.3110799999999996,3
2024-06-14 11:18:36.023,-116.76,-557.48,-3.15,0.33427999999999997,-0.09881999999999999,-3.4984719999999996,3
2024-06-14 11:18:36.027,-128.625,-556.29,-1.47,0.360144,0.0793,-3.548248,3
2024-06-14 11:18:36.032,-126.525,-559.3,-8.47,0.24326799999999998,0.111996,-3.263012,3
2024-06-14 11:18:36.037,-103.81,-563.15,-12.215,0.292068,0.036599999999999994,-3.01584,3
2024-06-14 11:18:36.042,-86.66,-561.12,-17.185000000000002,0.15982,0.152744,-2.783064,3
2024-06-14 11:18:36.047,-61.53,-553.9100000000001,-21.21,0.17324,0.26278799999999997,-2.6901,3
2024-06-14 11:18:36.052,-48.86,-537.845,-20.475,0.042943999999999996,0.36234,-2.6427639999999997,3
2024-06-14 11:18:36.056,-51.519999999999996,-516.3199999999999,-20.545,-0.284748,0.521184,-2.696688,3
2024-06-14 11:18:36.061,-66.29,-520.31,-27.509999999999998,-0.6319600000000001,0.737368,-2.834792,3
2024-06-14 11:18:36.066,-82.25,-489.15999999999997,-36.47,-1.0521280000000002,0.774944,-3.473096,3
2024-06-14 11:18:36.071,-112.69999999999999,-462.315,-49.28,-1.5569639999999998,0.69052,-3.071472,3
2024-06-14 11:18:36.076,-146.09,-441.98,-65.41499999999999,-2.08132,0.593164,-2.9528879999999997,3
2024-06-14 11:18:36.081,-181.685,-422.555,-87.88499999999999,-2.8447959999999997,0.698572,-2.677656,3
2024-06-14 11:18:36.085,-206.43,-395.99,-124.6,-2.925804,0.616832,-1.7831519999999998,4
2024-06-14 11:18:36.090,-207.585,-404.74,-169.505,-2.3570399999999996,0.49361199999999994,-1.1338679999999999,4
2024-06-14 11:18:36.095,-178.60500000000002,-434.49,-191.1,-1.5645280000000001,0.5970679999999999,0.242536,4
2024-06-14 11:18:36.100,-134.785,-299.95,-201.18,-1.448384,0.36356,0.50386,4
2024-06-14 11:18:36.105,-100.905,-180.74,-207.375,-2.174528,0.303048,-0.63196,4
2024-06-14 11:18:36.109,-91.35,-27.3,-206.14999999999998,-2.118896,0.067832,-0.9581879999999998,4
2024-06-14 11:18:36.114,-59.955,76.895,-189.76999999999998,-1.8929519999999997,-0.241316,-1.05408,4
2024-06-14 11:18:36.119,-30.345,167.965,-165.655,-1.89466,-0.433832,-1.220244,4
2024-06-14 11:18:36.124,8.75,238.98000000000002,-138.985,-1.7404519999999999,-0.44700799999999996,-1.2468400000000002,4
2024-06-14 11:18:36.129,53.30500000000001,283.01,-114.17,-1.4905959999999998,-0.379176,-1.201212,4
2024-06-14 11:18:36.134,91.98,304.885,-94.185,-1.277584,-0.277916,-1.158756,4
2024-06-14 11:18:36.138,118.30000000000001,313.705,-80.535,-1.1345999999999998,-0.177632,-1.108492,4
2024-06-14 11:18:36.143,130.13,316.54,-71.47,-1.00894,-0.09125599999999999,-0.999668,4
2024-06-14 11:18:36.148,131.53,314.755,-65.66,-0.8830359999999999,0.011712000000000002,-0.899384,4
2024-06-14 11:18:36.153,126.455,311.5,-62.510000000000005,-0.767868,0.11858400000000001,-0.807396,4
2024-06-14 11:18:36.158,115.185,307.65,-60.97,-0.66978,0.189832,-0.764452,4
2024-06-14 11:18:36.163,98.69999999999999,304.46500000000003,-59.99,-0.596336,0.22813999999999998,-0.7451760000000001,4
2024-06-14 11:18:36.167,78.75,302.645,-59.08,-0.5375319999999999,0.225456,-0.7378560000000001,4
2024-06-14 11:18:36.172,58.94,303.345,-57.995000000000005,-0.50386,0.20178800000000002,-0.725168,4
2024-06-14 11:18:36.177,42.84,306.11,-56.315,-0.49044,0.150548,-0.720044,4
2024-06-14 11:18:36.182,32.025000000000006,311.08000000000004,-53.655,-0.489708,0.088328,-0.720532,4
2024-06-14 11:18:36.187,26.740000000000002,317.275,-50.120000000000005,-0.485072,0.031476,-0.755424,4
2024-06-14 11:18:36.192,26.215,323.505,-45.64,-0.480924,-0.020007999999999998,-0.804224,4
2024-06-14 11:18:36.196,28.77,329.28,-40.39,-0.47946,-0.059048,-0.865468,4
2024-06-14 11:18:36.201,33.285,336.315,-34.37,-0.488,-0.078812,-0.9098759999999999,4
2024-06-14 11:18:36.206,38.36,343.98,-28.21,-0.49898,-0.082228,-0.9384239999999999,4
2024-06-14 11:18:36.211,42.315,352.73,-22.4,-0.5143519999999999,-0.066856,-0.9623360000000001,4
2024-06-14 11:18:36.216,44.555,363.51,-17.29,-0.5289919999999999,-0.038064,-0.983564,4
2024-06-14 11:18:36.221,44.974999999999994,375.025,-12.915,-0.53314,-0.007563999999999999,-1.015772,4
2024-06-14 11:18:36.225,42.84,386.71500000000003,-9.415,-0.528016,0.025131999999999998,-1.063596,4
2024-06-14 11:18:36.230,37.87,396.54999999999995,-7.035,-0.50386,0.07588400000000001,-1.1345999999999998,4
2024-06-14 11:18:36.235,30.415,404.67,-5.67,-0.479704,0.115412,-1.2056040000000001,4
2024-06-14 11:18:36.240,21.979999999999997,411.42499999999995,-5.005,-0.471164,0.11346,-1.219756,4
2024-06-14 11:18:36.245,13.510000000000002,418.46000000000004,-4.2,-0.457256,0.110288,-1.208532,4
2024-06-14 11:18:36.252,6.755,424.13,-3.4299999999999997,-0.434076,0.126392,-1.25416,4
2024-06-14 11:18:36.256,0.31499999999999995,427.875,-2.7649999999999997,-0.395524,0.138592,-1.3698160000000001,4
2024-06-14 11:18:36.261,-6.370000000000001,429.87,-2.1,-0.32842400000000005,0.14688800000000002,-1.4710759999999998,4
2024-06-14 11:18:36.266,-12.6,431.13,-1.12,-0.284016,0.140788,-1.53232,4
2024-06-14 11:18:36.271,-17.57,431.655,-0.14,-0.25595599999999996,0.143472,-1.5554999999999999,4
2024-06-14 11:18:36.276,-22.155,431.2,0.42,-0.19641999999999998,0.170068,-1.618696,4
2024-06-14 11:18:36.280,-27.439999999999998,428.47,0.525,-0.09223200000000001,0.21106,-1.708,4
2024-06-14 11:18:36.285,-34.86,421.61,0.03499999999999999,0.03172,0.24448799999999998,-1.7934,4
2024-06-14 11:18:36.290,-44.45,411.6,-0.385,0.157136,0.26449599999999995,-1.854156,4
2024-06-14 11:18:36.295,-56.21,399.21000000000004,0.105,0.274256,0.25595599999999996,-1.9154,4
2024-06-14 11:18:36.300,-66.95500000000001,385.84,2.415,0.379664,0.224968,-1.9839639999999998,4
2024-06-14 11:18:36.304,-74.025,371.245,6.545,0.45042399999999994,0.178852,-2.05448,4
2024-06-14 11:18:36.309,-78.08500000000001,356.195,11.795,0.477264,0.145424,-2.151348,4
2024-06-14 11:18:36.314,-78.82,341.25,17.745,0.48068,0.142008,-2.258464,4
2024-06-14 11:18:36.319,-79.345,329.315,23.66,0.46238,0.187636,-2.390224,4
2024-06-14 11:18:36.324,-81.62,324.03,28.630000000000003,0.432612,0.24619599999999997,-2.52906,4
2024-06-14 11:18:36.328,-85.75,328.37,33.355000000000004,0.4087,0.272548,-2.6522799999999997,4
2024-06-14 11:18:36.333,-89.88,342.02,39.69,0.409676,0.2703519999999999,-2.7611039999999996,4
2024-06-14 11:18:36.338,-91.63,359.275,48.019999999999996,0.4514,0.266692,-2.8574840000000004,4
2024-06-14 11:18:36.343,-91.49,375.83000000000004,57.47,0.559736,0.25961599999999996,-2.9455679999999997,4
2024-06-14 11:18:36.348,-88.58500000000001,388.675,68.005,0.6897880000000001,0.238388,-3.0112039999999998,4
2024-06-14 11:18:36.353,-82.39,397.005,79.87,0.8278919999999999,0.19885999999999998,-3.032676,4
2024-06-14 11:18:36.357,-76.09,401.905,92.575,0.9655079999999999,0.182756,-3.0151079999999997,4
2024-06-14 11:18:36.362,-72.275,405.09,104.825,1.130208,0.21106,-2.98656,4
2024-06-14 11:18:36.367,-73.57,406.35,115.885,1.3402919999999998,0.227896,-2.98168,4
2024-06-14 11:18:36.372,-79.16999999999999,404.88,125.755,1.600396,0.245952,-2.972408,4
2024-06-14 11:18:36.377,-84.035,400.575,133.385,1.911252,0.241804,-2.9338559999999996,4
2024-06-14 11:18:36.381,-84.245,394.135,136.22,2.2045399999999997,0.21032800000000001,-2.85114,4
2024-06-14 11:18:36.386,-73.675,383.25,137.235,2.444148,0.185196,-2.74988,4
2024-06-14 11:18:36.391,-53.585,365.435,135.695,2.6437399999999998,0.159332,-2.605188,4
2024-06-14 11:18:36.396,-27.615000000000002,342.335,130.27,2.812344,0.263764,-2.4285319999999997,4
2024-06-14 11:18:36.401,1.8900000000000001,316.29499999999996,118.755,2.9955879999999997,0.456036,-2.225768,4
2024-06-14 11:18:36.405,25.41,290.395,101.64,3.223972,0.7351719999999999,-2.081564,4
2024-06-14 11:18:36.410,33.495000000000005,264.28499999999997,78.33,3.5065239999999998,1.006744,-1.996896,4
2024-06-14 11:18:36.415,21.875,239.89,49.525,3.8720360000000005,1.204628,-1.870992,4
2024-06-14 11:18:36.420,-10.22,217.595,17.675,4.266828,1.2300039999999999,-1.6894559999999998,4
2024-06-14 11:18:36.425,-52.045,192.605,-12.25,4.617456000000001,1.059936,-1.5433000000000001,4
2024-06-14 11:18:36.429,-88.27000000000001,159.425,-36.05,4.863164,0.703208,-1.458632,4
2024-06-14 11:18:36.434,-108.045,115.535,-50.959999999999994,4.952224,0.247904,-1.4108079999999998,4
2024-06-14 11:18:36.439,-105.735,62.3,-54.6,4.749948,-0.019520000000000003,-1.34932,4
2024-06-14 11:18:36.444,-81.79499999999999,3.8150000000000004,-43.225,4.4939919999999995,-0.381616,-1.151192,4
2024-06-14 11:18:36.449,-41.895,-49.769999999999996,-44.730000000000004,4.100175999999999,-0.661484,-1.1892559999999999,4
2024-06-14 11:18:36.454,5.249999999999999,-150.955,-23.134999999999998,4.158736,-1.7067799999999997,-2.2189360000000002,0
