time,gyroscope_x,gyroscope_y,gyroscope_z,accelerometer_x,accelerometer_y,accelerometer_z,phase
2024-06-14 10:25:34.643,101.42999999999999,-382.165,-75.775,5.558076,-0.31695599999999996,-5.425828,1
2024-06-14 10:25:34.648,72.41499999999999,-251.64999999999998,-62.754999999999995,4.12116,0.47262800000000005,2.1145039999999997,1
2024-06-14 10:25:34.653,187.985,-388.815,-60.305,3.607052,0.5063,-1.097756,1
2024-06-14 10:25:34.657,129.29000000000002,-409.115,-45.5,1.684088,-0.073932,-1.352736,1
2024-06-14 10:25:34.662,40.775,-407.89,-24.85,-0.11834,-0.09076799999999999,-1.899784,1
2024-06-14 10:25:34.667,-37.45,-389.2,3.1849999999999996,-0.218624,0.436516,-2.05448,1
2024-06-14 10:25:34.672,-79.38,-382.13,34.965,-0.49361200000000005,0.5680320000000001,-2.34728,1
2024-06-14 10:25:34.677,-77.66499999999999,-398.125,52.85,0.459696,0.17568,-2.85358,1
2024-06-14 10:25:34.682,-64.26,-400.855,51.31,0.5619319999999999,-0.19641999999999998,-2.7449999999999997,1
2024-06-14 10:25:34.686,-50.365,-407.61,47.459999999999994,0.443592,-0.029036,-2.837964,1
2024-06-14 10:25:34.691,-42.28,-338.38,46.305,0.172264,-0.08857200000000001,-2.7574439999999996,1
2024-06-14 10:25:34.696,-26.285,-301.07,44.870000000000005,0.22350399999999998,-0.12736799999999998,-2.704008,1
2024-06-14 10:25:34.701,-0.48999999999999977,-261.41499999999996,35.14,0.4392,-0.17275200000000002,-2.41438,1
2024-06-14 10:25:34.706,6.8950000000000005,-206.885,18.060000000000002,0.302072,-0.143228,-1.8441519999999998,1
2024-06-14 10:25:34.711,14.035,-96.11,8.855,0.270108,-0.04148,-1.541592,1
2024-06-14 10:25:34.715,4.305,-34.370000000000005,6.755,0.187392,0.066124,-1.287588,1
2024-06-14 10:25:34.720,-0.175,-18.27,9.274999999999999,0.142496,0.046604,-1.1333799999999998,1
2024-06-14 10:25:34.725,-0.49,-14.0,11.165,0.09442800000000001,0.041235999999999995,-1.0716480000000002,1
2024-06-14 10:25:34.730,0.315,-11.165,11.515,0.022692,0.0183,-1.015772,1
2024-06-14 10:25:34.735,-0.35,-4.025,10.465,0.008784,0.0012199999999999997,-0.998692,2
2024-06-14 10:25:34.740,0.06999999999999999,-1.225,8.225,-0.019764,-0.024399999999999998,-1.003816,2
2024-06-14 10:25:34.744,-0.10500000000000001,-1.54,5.04,0.0427,-0.01342,-1.0243120000000001,2
2024-06-14 10:25:34.749,1.33,-1.505,2.31,0.050508,0.01098,-1.025288,2
2024-06-14 10:25:34.754,0.56,-4.445,-0.7,0.023667999999999998,-0.013663999999999999,-1.0348039999999998,2
2024-06-14 10:25:34.759,-0.21,-7.875,-1.19,-0.009028,0.005856,-1.0043039999999999,2
2024-06-14 10:25:34.764,-0.525,-6.859999999999999,-0.98,-0.015127999999999999,0.01952,-1.003816,2
2024-06-14 10:25:34.769,-0.035,-7.175,-1.4,-0.006344,0.011955999999999998,-1.014308,2
2024-06-14 10:25:34.774,-0.245,-8.33,-1.645,-0.011712,-0.000244,-1.017236,2
2024-06-14 10:25:34.778,-0.665,-9.100000000000001,-1.8900000000000001,-0.011712,0.007076,-1.011868,2
2024-06-14 10:25:34.783,-0.63,-9.205,-1.9949999999999999,-0.010003999999999999,0.011956000000000001,-1.0126,2
2024-06-14 10:25:34.788,-0.91,-10.219999999999999,-1.855,-0.008296,0.010003999999999999,-1.0104039999999999,2
2024-06-14 10:25:34.793,-1.155,-11.305,-1.7850000000000001,-0.012688,0.00244,-1.0104039999999999,2
2024-06-14 10:25:34.798,-1.505,-12.32,-1.9249999999999998,-0.016348,0.00366,-1.0096720000000001,2
2024-06-14 10:25:34.803,-1.96,-13.615,-2.0300000000000002,-0.020496,0.00488,-1.0126,2
2024-06-14 10:25:34.807,-1.96,-14.559999999999999,-2.065,-0.021228,0.0060999999999999995,-1.014552,2
2024-06-14 10:25:34.812,-1.9249999999999998,-15.82,-2.135,-0.014883999999999998,0.005124,-1.0121120000000001,2
2024-06-14 10:25:34.817,-1.8900000000000001,-17.185,-1.9249999999999998,-0.00976,0.007076000000000001,-1.009428,2
2024-06-14 10:25:34.822,-1.7850000000000001,-18.13,-1.89,-0.0075639999999999995,0.0060999999999999995,-1.009916,2
2024-06-14 10:25:34.827,-1.4,-18.2,-1.7149999999999999,-0.005612,0.0075639999999999995,-1.0072320000000001,2
2024-06-14 10:25:34.832,-0.7350000000000001,-18.235,-1.645,-0.006588,0.0075639999999999995,-1.00772,2
2024-06-14 10:25:34.836,-0.49,-17.884999999999998,-1.61,-0.008296,0.015127999999999999,-1.0079639999999999,2
2024-06-14 10:25:34.841,0.84,-17.325000000000003,-1.505,-0.0053679999999999995,0.015616000000000001,-1.0060120000000001,2
2024-06-14 10:25:34.846,3.64,-18.55,-1.75,-0.0007319999999999991,0.01708,-1.006988,2
2024-06-14 10:25:34.851,2.8,-14.665,-1.8199999999999998,-0.00122,0.017079999999999998,-0.999668,2
2024-06-14 10:25:34.856,2.065,-12.285,-1.855,0.0009759999999999997,0.010492000000000001,-1.0004,2
2024-06-14 10:25:34.861,2.59,-14.21,-1.855,0.00488,0.013908,-1.004548,2
2024-06-14 10:25:34.865,4.55,-10.465,-1.82,0.005856,0.011712,-1.000156,2
2024-06-14 10:25:34.870,2.94,-13.370000000000001,-2.1,0.0034159999999999998,0.008784,-1.0030839999999999,2
2024-06-14 10:25:34.875,2.66,-14.28,-2.17,0.004392,0.00976,-1.001376,2
2024-06-14 10:25:34.881,1.8199999999999998,-13.649999999999999,-1.96,0.00854,0.012199999999999999,-1.002108,2
2024-06-14 10:25:34.886,1.75,-18.305,-1.995,0.009271999999999999,0.014395999999999999,-0.99796,2
2024-06-14 10:25:34.891,2.59,-16.835,-2.38,0.012444,0.014884,-0.9957639999999999,2
2024-06-14 10:25:34.895,2.59,-16.555,-2.625,0.013663999999999999,0.013908,-0.9999119999999999,2
2024-06-14 10:25:34.900,2.6950000000000003,-17.009999999999998,-2.5199999999999996,0.019032,0.013663999999999999,-0.998936,2
2024-06-14 10:25:34.905,3.115,-17.71,-2.555,0.017324,0.018788,-0.9974719999999999,2
2024-06-14 10:25:34.910,3.4299999999999997,-17.395,-2.94,0.017324,0.015372,-0.9989359999999999,2
2024-06-14 10:25:34.915,3.465,-17.85,-3.255,0.01342,0.018300000000000004,-1.003328,2
2024-06-14 10:25:34.920,7.49,-18.34,-3.185,0.023912000000000003,0.0183,-1.009916,2
2024-06-14 10:25:34.924,6.6850000000000005,-17.009999999999998,-3.255,0.023912000000000003,0.014152,-0.99918,2
2024-06-14 10:25:34.929,6.300000000000001,-17.535,-3.395,0.026352,0.012687999999999998,-0.998448,2
2024-06-14 10:25:34.934,6.37,-17.605,-3.675,0.026840000000000003,0.007075999999999999,-1.000156,2
2024-06-14 10:25:34.939,6.895,-17.814999999999998,-3.745,0.026839999999999996,0.008052,-1.006256,2
2024-06-14 10:25:34.944,8.540000000000001,-19.355,-3.71,0.03294,0.007808000000000001,-0.9882,2
2024-06-14 10:25:34.949,7.5600000000000005,-19.705,-3.675,0.03538,0.000976,-0.999668,2
2024-06-14 10:25:34.953,7.734999999999999,-17.71,-3.8499999999999996,0.032451999999999995,0.008296000000000001,-0.996008,2
2024-06-14 10:25:34.958,7.805,-17.43,-4.025,0.035868,0.003172,-0.997228,2
2024-06-14 10:25:34.963,7.734999999999999,-17.325000000000003,-4.095000000000001,0.034892,0.011712,-1.00162,2
2024-06-14 10:25:34.968,7.805,-17.22,-4.06,0.043188,-0.0046359999999999995,-1.0043039999999999,2
2024-06-14 10:25:34.973,7.455,-17.15,-3.92,0.042456,0.000488,-0.993568,2
2024-06-14 10:25:34.977,5.74,-18.235,-3.675,0.049776,-0.030744,-0.9994240000000001,2
2024-06-14 10:25:34.982,4.165,-17.64,-3.29,0.04636,-0.011956,-1.0079639999999999,2
2024-06-14 10:25:34.987,3.6399999999999997,-18.095,-3.115,0.044896000000000005,-0.010003999999999999,-1.014796,2
2024-06-14 10:25:34.992,3.5700000000000003,-19.775,-3.01,0.040504,-0.0034159999999999993,-1.024556,2
2024-06-14 10:25:34.997,3.8499999999999996,-21.875,-3.045,0.040504,-0.0036600000000000005,-1.03212,2
2024-06-14 10:25:35.002,4.095000000000001,-25.095,-3.325,0.031231999999999996,0.023667999999999998,-1.037488,2
2024-06-14 10:25:35.006,4.9350000000000005,-26.810000000000002,-3.71,0.03904,0.033428,-1.0374879999999997,2
2024-06-14 10:25:35.011,4.27,-29.68,-4.619999999999999,0.038796,0.06099999999999999,-1.03456,2
2024-06-14 10:25:35.016,8.54,-33.67,-4.76,0.04026,0.026352,-1.05774,2
2024-06-14 10:25:35.021,17.814999999999998,-31.85,-5.775,0.04953199999999999,0.0427,-1.068232,2
2024-06-14 10:25:35.026,19.215,-31.675,-6.125,0.05368,0.00976,-1.0309,2
2024-06-14 10:25:35.031,8.68,-37.695,-7.525,0.054412,0.042944,-1.0797,2
2024-06-14 10:25:35.035,8.47,-22.96,-8.19,0.05124,0.049532,-1.1236199999999998,2
2024-06-14 10:25:35.040,-1.8900000000000001,-31.15,-9.870000000000001,0.06466,0.047824,-1.150704,2
2024-06-14 10:25:35.045,-5.04,-35.56,-11.129999999999999,0.062464,0.053192,-1.133868,2
2024-06-14 10:25:35.050,-8.54,-36.19,-11.97,0.07539599999999999,-0.015372,-1.1848640000000001,3
2024-06-14 10:25:35.055,-15.120000000000001,-37.905,-11.41,0.08271600000000001,-0.09076799999999999,-1.323944,3
2024-06-14 10:25:35.060,-21.490000000000002,-43.015,-10.184999999999999,0.0793,-0.0854,-1.32614,3
2024-06-14 10:25:35.064,-18.235,-49.7,-8.715,0.08759600000000001,-0.0183,-1.303204,3
2024-06-14 10:25:35.069,-21.0,-50.995000000000005,-8.54,0.07686,-0.024644,-1.319552,3
2024-06-14 10:25:35.074,-20.509999999999998,-54.705,-7.77,0.071004,-0.015372,-1.393484,3
2024-06-14 10:25:35.079,-18.48,-60.865,-7.3149999999999995,0.071248,-0.016836,-1.424228,3
2024-06-14 10:25:35.084,-16.73,-70.28,-7.175000000000001,0.052704,-0.004880000000000001,-1.439356,3
2024-06-14 10:25:35.089,-18.48,-78.89,-6.825,0.066368,-0.03294,-1.411296,3
2024-06-14 10:25:35.093,-20.125,-87.185,-5.984999999999999,0.067832,-0.050752,-1.439112,3
2024-06-14 10:25:35.098,-24.36,-95.655,-5.25,0.065636,-0.040992,-1.4898639999999999,3
2024-06-14 10:25:35.103,-28.384999999999998,-106.89,-4.585,0.06953999999999999,-0.055144,-1.45668,3
2024-06-14 10:25:35.108,-32.935,-116.935,-3.29,0.066368,-0.090768,-1.484008,3
2024-06-14 10:25:35.113,-36.33,-129.115,-1.785,0.07076,-0.09759999999999999,-1.49816,3
2024-06-14 10:25:35.117,-46.06,-141.575,-0.49,0.073444,-0.14029999999999998,-1.641632,3
2024-06-14 10:25:35.122,-43.19,-155.785,1.225,0.06831999999999999,-0.067588,-1.412516,3
2024-06-14 10:25:35.127,-46.864999999999995,-167.125,1.855,0.037088,-0.039772,-1.514264,3
2024-06-14 10:25:35.132,-54.25,-183.365,1.995,0.06636800000000001,-0.086864,-1.643584,3
2024-06-14 10:25:35.137,-57.82,-200.655,3.255,0.06368399999999999,-0.099552,-1.685308,3
2024-06-14 10:25:35.142,-59.394999999999996,-220.43,4.06,0.037820000000000006,-0.060756000000000004,-1.69092,3
2024-06-14 10:25:35.146,-70.175,-239.26,3.8150000000000004,0.025863999999999998,-0.031964,-1.7697319999999999,3
2024-06-14 10:25:35.151,-72.765,-260.89,3.8149999999999995,0.022447999999999996,-0.053191999999999996,-1.84464,3
2024-06-14 10:25:35.156,-85.12,-283.22,3.045,0.016592,0.018788,-1.946876,3
2024-06-14 10:25:35.161,-83.93,-304.185,3.15,0.014395999999999999,-0.030255999999999998,-2.00446,3
2024-06-14 10:25:35.166,-94.185,-318.885,4.725,0.053436,-0.21398799999999998,-2.1289,3
2024-06-14 10:25:35.171,-97.72,-339.22,8.120000000000001,0.031476,-0.226432,-2.3968119999999997,3
2024-06-14 10:25:35.175,-90.72,-358.925,11.235,0.021471999999999998,-0.044652,-2.493924,3
2024-06-14 10:25:35.180,-108.28999999999999,-382.725,10.99,0.018788,-0.005368000000000001,-2.62666,3
2024-06-14 10:25:35.185,-113.08500000000001,-403.655,11.48,-0.024156,-0.073444,-2.78892,3
2024-06-14 10:25:35.190,-116.725,-427.245,11.27,-0.012932,0.009028000000000001,-2.9899759999999995,3
2024-06-14 10:25:35.195,-120.05000000000001,-450.41499999999996,10.045,-0.011468,0.10614000000000001,-3.212016,3
2024-06-14 10:25:35.200,-126.91,-470.47,7.035,0.00732,0.168116,-3.5118919999999996,3
2024-06-14 10:25:35.204,-125.16,-495.21500000000003,3.045,-0.052704,0.056119999999999996,-3.633404,3
2024-06-14 10:25:35.209,-117.38999999999999,-515.515,2.38,0.059048,-0.120536,-3.6355999999999997,3
2024-06-14 10:25:35.214,-100.485,-533.82,3.255,0.10394399999999998,-0.133224,-3.834704,3
2024-06-14 10:25:35.219,-86.765,-546.0699999999999,2.625,-0.0012200000000000058,-0.074664,-4.140192,3
2024-06-14 10:25:35.224,-66.5,-543.3399999999999,5.95,-0.09638000000000001,0.047335999999999996,-4.375652,3
2024-06-14 10:25:35.229,-76.055,-537.425,4.62,-0.49288,0.48360800000000004,-4.467395999999999,3
2024-06-14 10:25:35.233,-81.62,-529.41,-4.235,-1.052616,0.618052,-4.0630880000000005,3
2024-06-14 10:25:35.238,-84.84,-513.8,-19.635,-1.53964,0.320372,-3.7180720000000003,3
2024-06-14 10:25:35.243,-101.99000000000001,-498.855,-30.31,-2.2399199999999997,0.654164,-3.370616,3
2024-06-14 10:25:35.248,-118.685,-496.545,-47.635000000000005,-2.4380479999999998,0.5058119999999999,-3.628768,3
2024-06-14 10:25:35.253,-115.99,-549.92,-66.64,-2.866268,0.636352,-3.829092,4
2024-06-14 10:25:35.258,-107.52,-655.62,-95.795,-3.35744,0.403332,-2.650328,4
2024-06-14 10:25:35.262,-116.55000000000001,-710.0799999999999,-124.565,-2.7818439999999995,0.414068,1.9083240000000001,4
2024-06-14 10:25:35.267,-34.23,-423.185,-114.72999999999999,-2.7318239999999996,-0.393816,4.541084,4
2024-06-14 10:25:35.272,41.580000000000005,-270.79499999999996,-77.56,-3.055612,0.027816,-0.547292,4
2024-06-14 10:25:35.277,19.88,-1.1550000000000011,-40.39,-2.7327999999999997,0.608292,-0.854976,4
2024-06-14 10:25:35.282,122.885,-13.93,13.335,-2.346304,-0.326716,-2.005436,4
2024-06-14 10:25:35.286,87.43,47.949999999999996,41.265,-2.7786720000000003,0.005124,-1.547204,4
2024-06-14 10:25:35.291,128.38,112.63,52.114999999999995,-2.358504,0.08027600000000001,-1.474736,4
2024-06-14 10:25:35.296,125.685,127.435,52.465,-1.848544,0.189832,-1.435696,4
2024-06-14 10:25:35.301,130.025,123.025,46.97,-1.644072,0.32134799999999997,-1.331264,4
2024-06-14 10:25:35.306,125.685,110.67,31.045,-1.6286999999999998,0.384056,-1.136308,4
2024-06-14 10:25:35.311,109.025,105.56,15.364999999999998,-1.539152,0.29865600000000003,-0.927444,4
2024-06-14 10:25:35.315,98.84,109.585,0.875,-1.467172,0.23863199999999998,-0.7942199999999999,4
2024-06-14 10:25:35.320,87.57,123.47999999999999,-10.465,-1.4047079999999998,0.179584,-0.7522519999999999,4
2024-06-14 10:25:35.325,73.99000000000001,146.265,-20.16,-1.3900679999999999,0.102968,-0.715652,4
2024-06-14 10:25:35.330,61.145,175.665,-28.525,-1.403,0.009516,-0.688812,4
2024-06-14 10:25:35.335,56.315,208.46,-34.755,-1.36518,-0.069784,-0.709552,4
2024-06-14 10:25:35.340,51.974999999999994,241.5,-38.885000000000005,-1.2707519999999999,-0.16104000000000002,-0.775432,4
2024-06-14 10:25:35.344,59.745000000000005,273.525,-41.09,-1.140944,-0.18348799999999998,-0.7761640000000001,4
2024-06-14 10:25:35.349,71.435,301.42,-43.26,-1.0326079999999997,-0.220088,-0.824232,4
2024-06-14 10:25:35.354,88.445,325.04499999999996,-46.935,-0.948672,-0.202764,-0.9062159999999999,4
2024-06-14 10:25:35.359,99.36500000000001,344.12,-49.489999999999995,-0.812276,-0.19739600000000002,-0.9301280000000001,4
2024-06-14 10:25:35.364,112.77,358.78499999999997,-52.92,-0.692472,-0.152744,-0.975756,4
2024-06-14 10:25:35.369,122.955,369.95000000000005,-57.05,-0.5848679999999999,-0.102236,-1.017236,4
2024-06-14 10:25:35.373,128.59,377.93,-61.879999999999995,-0.49019599999999997,-0.053191999999999996,-1.059692,4
2024-06-14 10:25:35.378,129.99,383.32,-66.39500000000001,-0.410408,-0.008783999999999998,-1.093608,4
2024-06-14 10:25:35.383,127.155,387.065,-70.0,-0.330864,0.021716,-1.122644,4
2024-06-14 10:25:35.388,121.41499999999999,389.655,-72.275,-0.265716,0.042456,-1.141676,4
2024-06-14 10:25:35.393,113.19,391.195,-73.01,-0.217648,0.052216,-1.1651,4
2024-06-14 10:25:35.398,104.825,392.21000000000004,-72.065,-0.186172,0.046848,-1.186328,4
2024-06-14 10:25:35.402,95.9,393.54,-68.845,-0.14932800000000002,0.043432000000000005,-1.2175599999999998,4
2024-06-14 10:25:35.407,87.57,395.99,-63.595,-0.138348,0.03294,-1.256112,4
2024-06-14 10:25:35.412,79.765,398.405,-56.49,-0.13785999999999998,0.015616000000000001,-1.300764,4
2024-06-14 10:25:35.417,72.31,401.20500000000004,-47.95,-0.102724,-0.014395999999999999,-1.34688,4
2024-06-14 10:25:35.422,64.4,404.46000000000004,-37.835,-0.0793,-0.040992,-1.3881160000000001,4
2024-06-14 10:25:35.428,58.625,407.04999999999995,-26.04,-0.053924,-0.056852,-1.443016,4
2024-06-14 10:25:35.432,53.025,407.92499999999995,-13.895,-0.037332000000000004,-0.052704,-1.48962,4
2024-06-14 10:25:35.437,48.510000000000005,407.68,-1.54,-0.0012200000000000006,-0.043432,-1.554768,4
2024-06-14 10:25:35.442,43.015,404.495,10.43,0.033672,-0.023179999999999996,-1.624308,4
2024-06-14 10:25:35.447,37.065,399.315,21.945,0.07124799999999999,0.00732,-1.6960439999999999,4
2024-06-14 10:25:35.452,30.17,392.90999999999997,32.935,0.100772,0.044896,-1.762656,4
2024-06-14 10:25:35.456,22.995,386.05,42.980000000000004,0.128588,0.077348,-1.815604,4
2024-06-14 10:25:35.461,16.905,379.295,52.29,0.163236,0.106628,-1.854156,4
2024-06-14 10:25:35.466,11.06,374.01,60.864999999999995,0.192272,0.12370799999999998,-1.88368,4
2024-06-14 10:25:35.471,4.83,369.70500000000004,68.35499999999999,0.212768,0.162748,-1.94346,4
2024-06-14 10:25:35.476,0.034999999999999976,365.67999999999995,74.445,0.239608,0.177388,-2.00324,4
2024-06-14 10:25:35.481,-3.815,362.18,78.92500000000001,0.277184,0.197152,-2.041792,4
2024-06-14 10:25:35.485,-6.055,359.765,82.075,0.310368,0.211304,-2.0801,4
2024-06-14 10:25:35.490,-7.525,357.595,84.175,0.344528,0.223748,-2.12768,4
2024-06-14 10:25:35.495,-7.525,356.23,85.57499999999999,0.37502800000000003,0.23131200000000002,-2.176724,4
2024-06-14 10:25:35.500,-7.665,356.78999999999996,86.1,0.397232,0.24034,-2.2282079999999995,4
2024-06-14 10:25:35.505,-5.845000000000001,359.765,85.435,0.40089199999999997,0.249856,-2.2728599999999997,4
2024-06-14 10:25:35.509,-3.605,365.925,83.09,0.40064799999999995,0.248148,-2.298724,4
2024-06-14 10:25:35.514,-2.38,375.235,78.715,0.411872,0.247416,-2.329468,4
2024-06-14 10:25:35.519,-1.085,385.70000000000005,72.205,0.44798399999999994,0.249368,-2.372656,4
2024-06-14 10:25:35.524,0.9450000000000001,395.185,64.08500000000001,0.51728,0.248392,-2.4160879999999993,4
2024-06-14 10:25:35.529,4.83,402.08,54.705,0.61122,0.242536,-2.445856,4
2024-06-14 10:25:35.534,7.21,404.95000000000005,44.59,0.72224,0.24278,-2.464888,4
2024-06-14 10:25:35.538,8.96,403.445,34.475,0.839604,0.23668,-2.495632,4
2024-06-14 10:25:35.543,12.25,397.985,25.060000000000002,0.972828,0.219112,-2.52662,4
2024-06-14 10:25:35.548,15.435,389.165,16.87,1.121668,0.224968,-2.57054,4
2024-06-14 10:25:35.553,19.355,378.21000000000004,9.59,1.295884,0.258884,-2.6073839999999997,4
2024-06-14 10:25:35.558,21.84,366.065,2.87,1.4762,0.315004,-2.632028,4
2024-06-14 10:25:35.562,20.895000000000003,354.095,4.34,1.623332,0.496784,-2.633248,4
2024-06-14 10:25:35.567,19.354999999999997,339.745,-3.6049999999999995,1.934676,0.46848,-2.642276,4
2024-06-14 10:25:35.572,15.155000000000001,322.70000000000005,-20.895,2.171844,0.5377759999999999,-2.632272,4
2024-06-14 10:25:35.577,10.43,302.015,-31.15,2.418284,0.611952,-2.602748,4
2024-06-14 10:25:35.582,4.0600000000000005,278.635,-43.015,2.6859520000000003,0.686372,-2.518568,4
2024-06-14 10:25:35.587,-7.175,252.735,-56.875,3.006812,0.73322,-2.412916,4
2024-06-14 10:25:35.591,-24.884999999999998,224.385,-71.96000000000001,3.3562200000000004,0.7456639999999999,-2.2826199999999996,4
2024-06-14 10:25:35.596,-43.19,194.95,-86.59,3.70758,0.6810039999999999,-2.1167,4
2024-06-14 10:25:35.601,-59.745000000000005,164.5,-98.595,4.031124,0.537288,-1.928332,4
2024-06-14 10:25:35.606,-67.935,134.54000000000002,-106.25999999999999,4.294888,0.34599199999999997,-1.760948,4
2024-06-14 10:25:35.611,-67.305,105.56,-108.91999999999999,4.497164,0.13541999999999998,-1.614548,4
2024-06-14 10:25:35.615,-59.675,78.05,-106.96000000000001,4.61526,-0.051239999999999994,-1.484008,4
2024-06-14 10:25:35.620,-45.989999999999995,49.489999999999995,-101.22,4.6421,-0.19154,-1.428864,4
2024-06-14 10:25:35.625,-26.18,18.165,-92.85499999999999,4.574512,-0.286944,-1.37982,4
2024-06-14 10:25:35.630,-0.6299999999999999,-15.96,-83.16,4.373455999999999,-0.28816400000000003,-1.322724,4
2024-06-14 10:25:35.635,26.005000000000003,-49.349999999999994,-73.15,4.136532,-0.21862399999999999,-1.2780719999999999,4
2024-06-14 10:25:35.640,44.87,-77.17500000000001,-65.03,3.811768,-0.078324,-1.2817319999999999,4
2024-06-14 10:25:35.644,55.475,-99.015,-59.43,3.512136,0.076128,-1.342488,4
2024-06-14 10:25:35.649,54.565,-112.735,-56.35,3.167608,0.248392,-1.37616,4
2024-06-14 10:25:35.654,48.09,-119.945,-55.370000000000005,2.91336,0.23692399999999997,-1.4339879999999998,4
2024-06-14 10:25:35.659,37.135,-83.68499999999999,-50.364999999999995,5.4382719999999996,0.341844,-5.187928,4
