time,gyroscope_x,gyroscope_y,gyroscope_z,accelerometer_x,accelerometer_y,accelerometer_z,phase
2024-06-14 10:25:37.684,156.38,-454.51,-63.455,5.370196,0.19276,-1.6326039999999993,1
2024-06-14 10:25:37.689,108.955,-431.97,-51.485,1.2714839999999998,0.862052,0.271328,1
2024-06-14 10:25:37.694,181.86,-406.03499999999997,-53.900000000000006,0.360144,0.042455999999999994,-1.4696120000000001,1
2024-06-14 10:25:37.699,155.89,-400.08500000000004,-40.67,0.05856,-0.12566,-1.813164,1
2024-06-14 10:25:37.704,102.27000000000001,-394.17,-16.17,-0.98332,0.258884,-2.292624,1
2024-06-14 10:25:37.708,38.64,-380.45,15.504999999999999,-0.22350399999999998,0.4941,-2.294332,1
2024-06-14 10:25:37.713,-13.16,-368.34,49.455,0.33428,0.480192,-2.0525279999999997,1
2024-06-14 10:25:37.718,-35.525000000000006,-363.44,71.12,0.6002399999999999,0.217648,-2.1281679999999996,1
2024-06-14 10:25:37.723,-43.120000000000005,-360.64,76.825,0.541436,-0.140788,-2.357284,1
2024-06-14 10:25:37.728,-50.54,-359.1,75.46000000000001,0.15518400000000002,-0.201544,-2.101816,1
2024-06-14 10:25:37.733,-46.655,-354.69,70.91,0.07124799999999999,-0.308172,-2.392664,1
2024-06-14 10:25:37.737,-32.13,-290.745,53.06,0.172752,-0.558516,-2.53516,1
2024-06-14 10:25:37.742,-20.65,-257.81,25.375,0.212524,-0.342088,-2.2777399999999997,1
2024-06-14 10:25:37.747,5.53,-230.265,4.83,0.29158000000000006,-0.13419999999999999,-2.1945360000000003,1
2024-06-14 10:25:37.752,10.675,-200.725,-6.44,0.180072,-0.07539599999999999,-1.65188,1
2024-06-14 10:25:37.757,13.44,-139.09,-6.055,0.24522,0.10125999999999999,-1.732888,1
2024-06-14 10:25:37.761,8.4,-49.35,1.225,0.14835199999999998,0.13298,-1.315404,1
2024-06-14 10:25:37.766,3.8150000000000004,-17.884999999999998,5.529999999999999,0.16006399999999998,0.065636,-1.182912,1
2024-06-14 10:25:37.771,3.43,-7.49,7.77,0.13883600000000001,0.07222400000000001,-1.1180080000000001,2
2024-06-14 10:25:37.776,2.695,-7.245,9.695,0.08905999999999999,0.010003999999999999,-1.0799439999999998,2
2024-06-14 10:25:37.781,2.835,-9.379999999999999,9.870000000000001,0.068564,-0.004392,-1.04188,2
2024-06-14 10:25:37.785,1.645,-7.07,7.245,-0.0060999999999999995,-0.041724,-1.0230920000000001,2
2024-06-14 10:25:37.790,0.35,-7.56,4.165,0.01464,-0.034159999999999996,-1.0096720000000001,2
2024-06-14 10:25:37.795,0.175,-5.949999999999999,1.8199999999999998,0.044652,-0.043432,-1.019676,2
2024-06-14 10:25:37.800,0.245,-6.615,-0.7,0.010735999999999999,0.007808000000000001,-1.032852,2
2024-06-14 10:25:37.805,-0.9099999999999999,-9.975,-1.085,0.010004,0.002928,-1.0140639999999999,2
2024-06-14 10:25:37.810,-0.77,-10.395,-0.56,-0.013176,0.016836,-1.003328,2
2024-06-14 10:25:37.814,-0.7,-10.185,-1.085,-0.012688,0.005124,-1.013576,2
2024-06-14 10:25:37.819,-0.875,-10.99,-1.47,-0.01342,-0.0046359999999999995,-1.01382,2
2024-06-14 10:25:37.824,-1.47,-12.25,-1.645,-0.01098,0.004148,-1.0096720000000001,2
2024-06-14 10:25:37.829,-1.33,-12.04,-1.715,-0.008296000000000001,0.0060999999999999995,-1.008696,2
2024-06-14 10:25:37.834,-1.19,-11.795,-1.6099999999999999,-0.008539999999999999,0.0026839999999999998,-1.006988,2
2024-06-14 10:25:37.838,-1.505,-11.969999999999999,-1.75,-0.008784,-0.000732,-1.007476,2
2024-06-14 10:25:37.843,-1.505,-12.145,-1.5750000000000002,-0.010735999999999999,-0.00024400000000000008,-1.0079639999999999,2
2024-06-14 10:25:37.848,-1.6099999999999999,-12.53,-1.7850000000000001,-0.017324,0.0031720000000000003,-1.0128439999999999,2
2024-06-14 10:25:37.853,-1.715,-14.7,-1.96,-0.015128,0.008052,-1.012356,2
2024-06-14 10:25:37.858,-1.89,-15.995000000000001,-2.065,-0.019520000000000003,0.00732,-1.0140639999999999,2
2024-06-14 10:25:37.862,-1.9249999999999998,-17.185000000000002,-2.135,-0.013420000000000001,0.00048799999999999994,-1.01138,2
2024-06-14 10:25:37.867,-2.17,-18.165,-2.065,-0.010248,0.00122,-1.0126,2
2024-06-14 10:25:37.872,-2.24,-18.41,-2.03,-0.007808000000000001,0.000732,-1.009428,2
2024-06-14 10:25:37.877,-2.38,-19.075,-1.82,-0.010003999999999999,0.0026839999999999998,-1.0091839999999999,2
2024-06-14 10:25:37.882,-2.59,-19.95,-1.6800000000000002,-0.00488,0.000488,-1.011624,2
2024-06-14 10:25:37.886,-2.73,-19.950000000000003,-1.75,-0.004148,0.005856,-1.0096720000000001,2
2024-06-14 10:25:37.891,-2.065,-23.275,-1.505,-0.000976,0.00976,-1.01382,2
2024-06-14 10:25:37.896,-2.73,-21.84,-1.82,0.003904,0.01464,-1.0145520000000001,2
2024-06-14 10:25:37.901,-2.0999999999999996,-23.939999999999998,-1.75,0.004148,0.01586,-1.0055239999999999,2
2024-06-14 10:25:37.906,-1.575,-20.93,-1.995,0.00732,0.012687999999999998,-1.003328,2
2024-06-14 10:25:37.911,-2.45,-20.405,-1.96,0.0053679999999999995,0.009271999999999999,-1.0084520000000001,2
2024-06-14 10:25:37.915,-2.66,-24.85,-1.7149999999999999,0.00366,0.01098,-1.0179679999999998,2
2024-06-14 10:25:37.920,-3.115,-30.905,-1.6099999999999999,0.011467999999999999,0.011956,-1.014796,2
2024-06-14 10:25:37.925,-4.0600000000000005,-33.18,-1.8199999999999998,0.010735999999999999,0.010735999999999999,-1.0213839999999998,2
2024-06-14 10:25:37.930,-4.2700000000000005,-38.605000000000004,-1.7850000000000001,0.011956,0.021228,-1.020896,2
2024-06-14 10:25:37.935,-3.22,-44.94,-1.855,0.015372,0.029524,-1.0638400000000001,2
2024-06-14 10:25:37.939,-0.385,-47.495,-1.365,0.027327999999999998,0.017568,-1.031388,2
2024-06-14 10:25:37.944,1.8900000000000001,-47.11,-1.435,0.038552,0.023424,-1.039196,2
2024-06-14 10:25:37.949,0.665,-49.595,-1.89,0.022935999999999998,0.016836,-1.019432,2
2024-06-14 10:25:37.954,-1.995,-46.095,-2.45,0.036112,0.021228,-0.9950319999999999,2
2024-06-14 10:25:37.959,-2.24,-47.705,-2.835,0.035624,0.022448,-1.0155280000000002,2
2024-06-14 10:25:37.963,0.385,-43.995,-2.835,0.049044,0.026596,-1.0067439999999999,2
2024-06-14 10:25:37.968,-4.34,-43.68,-3.465,0.054655999999999996,0.020984000000000003,-0.981124,2
2024-06-14 10:25:37.973,-1.085,-40.95,-2.835,0.058803999999999995,0.014395999999999999,-1.0409039999999998,2
2024-06-14 10:25:37.978,22.189999999999998,-29.085,-1.6800000000000002,0.058803999999999995,0.020496,-0.9720960000000001,2
2024-06-14 10:25:37.983,13.965,-28.665,-1.96,0.061488,0.02196,-0.99674,2
2024-06-14 10:25:37.988,9.45,-26.705,-2.135,0.070272,0.009271999999999999,-0.9579439999999999,2
2024-06-14 10:25:37.992,5.775,-24.92,-2.87,0.072712,0.016592,-0.9672160000000001,2
2024-06-14 10:25:37.997,6.23,-19.424999999999997,-3.255,0.070516,0.018543999999999998,-0.9701439999999999,2
2024-06-14 10:25:38.002,5.74,-16.415,-3.3600000000000003,0.071492,0.011712,-0.9799039999999999,2
2024-06-14 10:25:38.007,5.74,-14.525,-3.5,0.07027199999999999,0.020496,-0.9872239999999999,2
2024-06-14 10:25:38.012,6.6850000000000005,-13.44,-3.7800000000000002,0.071736,0.025863999999999998,-1.000644,2
2024-06-14 10:25:38.016,7.3149999999999995,-12.32,-4.025,0.06588,0.029036,-0.9986919999999999,2
2024-06-14 10:25:38.021,8.225,-11.06,-4.199999999999999,0.076616,-0.0024400000000000003,-0.990396,2
2024-06-14 10:25:38.026,9.625,-10.079999999999998,-4.375,0.067588,0.023668,-0.9864919999999999,2
2024-06-14 10:25:38.031,10.64,-9.45,-4.725,0.070516,0.007808,-0.9913719999999999,2
2024-06-14 10:25:38.036,10.675,-8.855,-4.83,0.077348,0.000732,-0.9940559999999999,2
2024-06-14 10:25:38.040,10.36,-8.26,-4.69,0.076128,0.011711999999999998,-1.020408,2
2024-06-14 10:25:38.045,10.780000000000001,-8.785,-5.005000000000001,0.075152,0.016592,-0.98698,2
2024-06-14 10:25:38.050,11.585,-7.14,-5.109999999999999,0.08003199999999999,0.019032,-1.013088,2
2024-06-14 10:25:38.055,10.605,-6.405,-5.635,0.072956,0.01464,-1.0252880000000002,2
2024-06-14 10:25:38.060,9.905,-7.35,-6.125,0.073932,0.018788,-1.0352919999999999,2
2024-06-14 10:25:38.064,10.465,-7.945,-6.58,0.072468,0.023912000000000003,-1.032608,2
2024-06-14 10:25:38.069,10.395,-7.9799999999999995,-7.175,0.07808,0.021228,-1.0313879999999997,2
2024-06-14 10:25:38.074,10.15,-8.12,-7.455,0.077104,0.0014639999999999996,-1.0457839999999998,2
2024-06-14 10:25:38.079,9.73,-8.365,-7.5600000000000005,0.08637600000000001,-0.016835999999999997,-1.0506639999999998,2
2024-06-14 10:25:38.084,8.785,-9.065000000000001,-7.245,0.08759600000000001,-0.026595999999999998,-1.063596,2
2024-06-14 10:25:38.089,7.035,-10.045,-6.895,0.084668,-0.029768,-1.06994,2
2024-06-14 10:25:38.093,4.6899999999999995,-11.13,-6.545,0.078324,-0.018543999999999998,-1.079212,2
2024-06-14 10:25:38.098,3.675,-12.844999999999999,-6.055,0.081984,-0.04026,-1.0796999999999999,2
2024-06-14 10:25:38.103,2.765,-15.085,-5.355,0.078812,-0.035136,-1.084824,2
2024-06-14 10:25:38.108,0.9099999999999999,-16.975,-4.9350000000000005,0.08588799999999999,-0.028547999999999997,-1.0906799999999999,2
2024-06-14 10:25:38.113,-0.7,-18.83,-4.62,0.08247199999999999,-0.033428,-1.1101999999999999,2
2024-06-14 10:25:38.117,-1.8900000000000001,-21.42,-4.025,0.08515599999999998,-0.036599999999999994,-1.130452,3
2024-06-14 10:25:38.122,-2.625,-23.835,-3.4299999999999997,0.08003199999999999,-0.052216,-1.164368,3
2024-06-14 10:25:38.127,-4.025,-28.034999999999997,-2.695,0.08174,-0.036112,-1.1855959999999999,3
2024-06-14 10:25:38.132,-7.245,-33.074999999999996,-2.17,0.086864,-0.03782,-1.2114599999999998,3
2024-06-14 10:25:38.137,-7.42,-36.715,-1.9949999999999999,0.073688,-0.009759999999999998,-1.2136559999999998,3
2024-06-14 10:25:38.141,-9.03,-40.739999999999995,-1.785,0.08271599999999998,-0.027816,-1.238544,3
2024-06-14 10:25:38.146,-10.29,-45.22,-1.365,0.08418,-0.035379999999999995,-1.2627000000000002,3
2024-06-14 10:25:38.151,-11.935,-50.715,-0.91,0.08832799999999999,-0.026839999999999996,-1.285636,3
2024-06-14 10:25:38.156,-12.915,-54.635000000000005,-0.63,0.082472,-0.018299999999999997,-1.305888,3
2024-06-14 10:25:38.161,-15.75,-71.925,-0.735,0.101504,0.0009759999999999994,-1.3864079999999999,3
2024-06-14 10:25:38.163,-15.575000000000001,-46.235,0.175,0.084912,-0.019763999999999997,-1.5074319999999999,3
2024-06-14 10:25:38.166,-16.765,-76.09,0.10499999999999998,0.08539999999999999,-0.025132,-1.3049119999999998,3
2024-06-14 10:25:38.171,-21.665,-83.545,-0.385,0.081984,-0.031232,-1.358104,3
2024-06-14 10:25:38.176,-24.5,-92.25999999999999,0.034999999999999976,0.086864,-0.06075599999999999,-1.368596,3
2024-06-14 10:25:38.181,-27.475,-101.22,1.12,0.084912,-0.0427,-1.365424,3
2024-06-14 10:25:38.186,-31.115,-110.03999999999999,1.3649999999999998,0.09028,-0.040748,-1.32736,3
2024-06-14 10:25:38.191,-35.945,-118.405,1.2950000000000002,0.09394,-0.050508,-1.351028,3
2024-06-14 10:25:38.195,-38.15,-129.675,1.47,0.09101200000000001,-0.052947999999999995,-1.397144,3
2024-06-14 10:25:38.200,-40.985,-141.68,1.7850000000000001,0.09906399999999999,-0.02196,-1.409344,3
2024-06-14 10:25:38.205,-43.68,-154.385,1.68,0.091744,0.0046359999999999995,-1.4186159999999999,3
2024-06-14 10:25:38.210,-44.905,-168.10500000000002,1.225,0.08832799999999999,0.019764,-1.4727839999999999,3
2024-06-14 10:25:38.215,-46.795,-183.32999999999998,-0.07,0.07808000000000001,0.06344,-1.5425680000000002,3
2024-06-14 10:25:38.220,-48.125,-198.83499999999998,-1.19,0.0793,0.01952,-1.6958,3
2024-06-14 10:25:38.224,-45.255,-216.79,-1.54,0.07246799999999999,0.037087999999999996,-1.670912,3
2024-06-14 10:25:38.229,-48.370000000000005,-234.04500000000002,-1.9949999999999999,0.077592,0.011224,-1.7131239999999999,3
2024-06-14 10:25:38.234,-55.405,-248.36,-2.205,0.083448,-0.031232,-1.8402479999999999,3
2024-06-14 10:25:38.239,-59.605000000000004,-266.41999999999996,-1.26,0.099064,-0.11199599999999998,-1.9900639999999998,3
2024-06-14 10:25:38.244,-55.895,-282.975,0.875,0.09101199999999998,-0.09272,-2.099132,3
2024-06-14 10:25:38.249,-61.425,-301.21000000000004,1.575,0.07905599999999999,0.028304,-2.189412,3
2024-06-14 10:25:38.254,-69.61500000000001,-319.83000000000004,0.9450000000000001,0.083204,0.055875999999999995,-2.3058,3
2024-06-14 10:25:38.258,-75.03999999999999,-336.28,-0.07,0.078324,0.040992,-2.276276,3
2024-06-14 10:25:38.263,-84.97999999999999,-354.585,-0.17500000000000002,0.08588799999999999,-0.020252,-2.4748919999999996,3
2024-06-14 10:25:38.268,-93.31,-372.68,0.7,0.03952800000000001,-0.002927999999999999,-2.662772,3
2024-06-14 10:25:38.273,-108.91999999999999,-391.37,-0.56,0.09394,0.0366,-2.818688,3
2024-06-14 10:25:38.278,-109.55,-409.53499999999997,0.0,0.063684,-0.143472,-3.0290159999999995,3
2024-06-14 10:25:38.283,-109.58500000000001,-424.655,2.24,0.08954799999999999,-0.19251600000000002,-3.0736679999999996,3
2024-06-14 10:25:38.287,-102.55,-442.225,4.62,0.166896,-0.20935199999999998,-3.062444,3
2024-06-14 10:25:38.292,-94.15,-455.35,6.895,0.151524,-0.153476,-3.1073399999999998,3
2024-06-14 10:25:38.297,-86.765,-459.16499999999996,7.07,0.24424400000000002,-0.200812,-3.2920480000000003,3
2024-06-14 10:25:38.302,-70.875,-453.775,11.655000000000001,0.17348399999999997,-0.19617599999999996,-3.4411319999999996,3
2024-06-14 10:25:38.307,-73.60499999999999,-443.52,13.3,-0.07198,0.10248,-3.485052,3
2024-06-14 10:25:38.312,-80.71000000000001,-435.75,10.045,-0.457012,0.27206,-3.1683399999999997,3
2024-06-14 10:25:38.317,-85.61,-423.57,4.095,-0.924272,0.33989199999999997,-2.8977440000000003,3
2024-06-14 10:25:38.321,-97.02,-412.755,-7.5600000000000005,-1.3480999999999999,0.213744,-2.5351600000000003,3
2024-06-14 10:25:38.326,-106.715,-404.39,-22.575000000000003,-1.8604999999999998,0.402844,-2.34728,3
2024-06-14 10:25:38.331,-117.35499999999999,-409.99,-26.285,-1.948584,0.105652,-2.277252,4
2024-06-14 10:25:38.336,-121.065,-453.075,-37.065,-2.192584,0.170312,-2.4126719999999997,4
2024-06-14 10:25:38.341,-105.875,-520.03,-52.675,-2.332152,0.12224399999999999,-1.8775799999999998,4
2024-06-14 10:25:38.346,-77.21000000000001,-574.21,-69.50999999999999,-2.071072,0.12126799999999999,-0.347944,4
2024-06-14 10:25:38.350,-76.125,-473.375,-70.07,-1.956636,-0.23912,0.826184,4
2024-06-14 10:25:38.355,0.9099999999999966,-307.125,-50.715,-2.183556,-0.824232,2.417064,4
2024-06-14 10:25:38.360,73.43,-233.065,-26.145,-1.9512679999999998,-0.266692,-0.753472,4
2024-06-14 10:25:38.365,74.89999999999999,-91.91,-11.69,-1.667252,0.018788,-1.2685559999999998,4
2024-06-14 10:25:38.370,91.41999999999999,-20.755000000000003,10.08,-1.741428,-0.299388,-0.6875920000000001,4
2024-06-14 10:25:38.375,117.81,48.58,22.645,-1.866112,-0.020007999999999998,-0.806176,4
2024-06-14 10:25:38.380,112.69999999999999,104.755,24.78,-1.626992,0.10345599999999999,-0.8064199999999999,4
2024-06-14 10:25:38.384,101.57,138.67000000000002,23.345,-1.341268,0.136152,-0.885964,4
2024-06-14 10:25:38.389,89.845,155.32999999999998,20.37,-1.163392,0.17397200000000002,-0.8327720000000001,4
2024-06-14 10:25:38.394,77.77000000000001,158.48000000000002,14.84,-1.0474919999999999,0.198616,-0.727364,4
2024-06-14 10:25:38.399,67.47999999999999,154.385,7.84,-0.9533079999999999,0.182512,-0.623664,4
2024-06-14 10:25:38.404,58.555,148.505,1.225,-0.857172,0.145668,-0.5402159999999999,4
2024-06-14 10:25:38.409,52.254999999999995,143.36,-3.955,-0.783972,0.105652,-0.49898,4
2024-06-14 10:25:38.413,46.13,141.29500000000002,-8.295,-0.732,0.050752,-0.480192,4
2024-06-14 10:25:38.418,40.67,143.46499999999997,-11.864999999999998,-0.699792,0.000732,-0.458476,4
2024-06-14 10:25:38.423,37.974999999999994,150.675,-13.65,-0.68442,-0.049532,-0.45164399999999993,4
2024-06-14 10:25:38.428,39.515,163.485,-14.0,-0.667584,-0.101016,-0.452132,4
2024-06-14 10:25:38.433,45.394999999999996,180.77499999999998,-13.265,-0.651724,-0.126636,-0.47531199999999996,4
2024-06-14 10:25:38.438,54.25,200.41,-12.425,-0.633424,-0.140788,-0.5167919999999999,4
2024-06-14 10:25:38.443,63.980000000000004,220.78,-11.725,-0.6019479999999999,-0.13663999999999998,-0.56974,4
2024-06-14 10:25:38.447,73.15,240.73,-11.165,-0.5611999999999999,-0.117852,-0.6300079999999999,4
2024-06-14 10:25:38.452,81.06,259.0,-11.2,-0.5070319999999999,-0.08174000000000001,-0.6954,4
2024-06-14 10:25:38.457,87.15,274.225,-12.215,-0.45042399999999994,-0.046116,-0.755424,4
2024-06-14 10:25:38.462,90.22999999999999,286.37,-14.07,-0.39357200000000003,0.0068319999999999995,-0.813984,4
2024-06-14 10:25:38.467,90.965,294.945,-16.905,-0.330376,0.04514,-0.8649800000000001,4
2024-06-14 10:25:38.472,89.81,300.475,-19.915,-0.25912799999999997,0.073932,-0.9089,4
2024-06-14 10:25:38.476,86.975,303.905,-22.89,-0.19642,0.091988,-0.933788,4
2024-06-14 10:25:38.481,83.475,305.9,-25.9,-0.15811199999999997,0.098576,-0.964532,4
2024-06-14 10:25:38.486,80.15,306.95000000000005,-27.86,-0.119804,0.08588799999999999,-0.9864919999999999,4
2024-06-14 10:25:38.491,76.475,307.72,-28.7,-0.09418399999999999,0.087108,-1.016748,4
2024-06-14 10:25:38.496,72.975,308.595,-28.560000000000002,-0.076128,0.071248,-1.0567639999999998,4
2024-06-14 10:25:38.501,69.65,310.1,-27.02,-0.054167999999999994,0.053680000000000005,-1.0899480000000001,4
2024-06-14 10:25:38.506,66.605,312.83000000000004,-24.325,-0.034648,0.041235999999999995,-1.1223999999999998,4
2024-06-14 10:25:38.510,64.365,316.75,-20.79,-0.030988,0.033671999999999994,-1.149972,4
2024-06-14 10:25:38.515,62.58,321.02,-16.59,-0.014396000000000003,0.030255999999999998,-1.1924279999999998,4
2024-06-14 10:25:38.520,60.34,325.36,-11.934999999999999,0.0009759999999999999,0.03416,-1.245132,4
2024-06-14 10:25:38.525,58.205,328.96500000000003,-6.65,0.022203999999999998,0.037576,-1.3075959999999998,4
2024-06-14 10:25:38.530,55.650000000000006,331.485,-1.54,0.054412,0.048068,-1.3681079999999999,4
2024-06-14 10:25:38.535,52.185,333.095,3.745,0.08710799999999999,0.06417199999999999,-1.4149559999999999,4
2024-06-14 10:25:38.539,48.615,333.58500000000004,9.065,0.121512,0.086864,-1.4703439999999999,4
2024-06-14 10:25:38.544,44.135,332.745,14.105,0.16982399999999997,0.099552,-1.5081639999999998,4
2024-06-14 10:25:38.549,39.69,330.75,19.04,0.20617999999999997,0.11224,-1.5615999999999999,4
2024-06-14 10:25:38.554,34.79,327.53,23.415,0.23985199999999998,0.134932,-1.610156,4
2024-06-14 10:25:38.559,31.325000000000003,323.89,27.3,0.27889200000000003,0.14762,-1.6374840000000002,4
2024-06-14 10:25:38.564,26.564999999999998,319.97,30.485,0.285724,0.177632,-1.6862840000000001,4
2024-06-14 10:25:38.569,25.2,315.595,33.18,0.3172,0.171532,-1.695068,4
2024-06-14 10:25:38.573,21.28,310.065,35.28,0.33989199999999997,0.18690400000000001,-1.753384,4
2024-06-14 10:25:38.578,19.53,304.08000000000004,37.45,0.389912,0.19885999999999998,-1.7892519999999998,4
2024-06-14 10:25:38.583,17.29,297.255,39.69,0.453596,0.1525,-1.86782,4
2024-06-14 10:25:38.588,12.425,289.94,42.735,0.46262400000000004,0.215452,-1.8512279999999999,4
2024-06-14 10:25:38.593,11.48,281.78499999999997,45.22,0.49751599999999996,0.22204000000000002,-1.8890479999999998,4
2024-06-14 10:25:38.598,8.645,274.155,46.62,0.5236240000000001,0.245952,-1.9317480000000002,4
2024-06-14 10:25:38.602,6.86,267.89,46.97,0.5333839999999999,0.257664,-1.927844,4
2024-06-14 10:25:38.607,5.74,263.69,46.864999999999995,0.525576,0.27132799999999996,-1.948096,4
2024-06-14 10:25:38.612,6.335000000000001,261.975,46.06,0.524844,0.286212,-1.97518,4
2024-06-14 10:25:38.617,7.734999999999999,263.48,44.8,0.524844,0.309392,-2.00202,4
2024-06-14 10:25:38.622,9.45,267.435,43.155,0.527528,0.32939999999999997,-2.022272,4
2024-06-14 10:25:38.627,10.43,273.385,41.230000000000004,0.557052,0.3599,-2.048136,4
2024-06-14 10:25:38.632,10.29,280.77,38.92,0.598776,0.38771599999999995,-2.0559439999999998,4
2024-06-14 10:25:38.636,8.89,288.89,35.525,0.65758,0.39381599999999994,-2.05936,4
2024-06-14 10:25:38.641,6.615,297.28999999999996,31.115000000000002,0.7195560000000001,0.402844,-2.0315440000000002,4
2024-06-14 10:25:38.646,3.99,304.395,26.005000000000003,0.7871440000000001,0.402844,-2.0098279999999997,4
2024-06-14 10:25:38.651,1.9249999999999998,308.90999999999997,20.125,0.862784,0.400404,-2.012756,4
2024-06-14 10:25:38.656,0.5249999999999999,309.575,13.719999999999999,0.9447679999999999,0.398208,-2.022516,4
2024-06-14 10:25:38.661,-0.27999999999999997,306.845,6.965,1.0250439999999998,0.384544,-2.025444,4
2024-06-14 10:25:38.665,-2.205,301.35,-0.24499999999999988,1.1114199999999999,0.38600799999999996,-2.035692,4
2024-06-14 10:25:38.670,-3.2199999999999998,294.0,-7.699999999999999,1.1929159999999999,0.39869599999999994,-2.0195879999999997,4
2024-06-14 10:25:38.675,-3.325,284.585,-15.225,1.283928,0.40992,-2.036912,4
2024-06-14 10:25:38.680,-3.465,274.645,-22.54,1.4003160000000001,0.430904,-2.0108040000000003,4
2024-06-14 10:25:38.685,-2.7649999999999997,264.845,-27.23,1.486448,0.502884,-1.96786,4
2024-06-14 10:25:38.690,-4.48,255.36,-26.635,1.571848,0.587796,-1.91662,4
2024-06-14 10:25:38.695,-10.254999999999999,244.89499999999998,-45.78,1.791448,0.48434,-1.838296,4
2024-06-14 10:25:38.699,-16.87,235.27,-54.215,1.9441920000000001,0.441396,-1.772904,4
2024-06-14 10:25:38.704,-25.200000000000003,223.37,-61.46,2.0957160000000004,0.40845600000000004,-1.692628,4
2024-06-14 10:25:38.709,-35.489999999999995,210.21,-67.86500000000001,2.257244,0.343796,-1.604056,4
2024-06-14 10:25:38.717,-46.935,196.14,-73.255,2.427068,0.25351599999999996,-1.52378,0
2024-06-14 10:25:38.722,-57.540000000000006,180.81,-77.21000000000001,2.606896,0.149572,-1.448872,0
2024-06-14 10:25:38.727,-67.83,164.675,-79.31,2.8050239999999995,0.007564000000000003,-1.372744,0
2024-06-14 10:25:38.731,-74.83,147.805,-79.03,3.013156,-0.142496,-1.30174,0
2024-06-14 10:25:38.736,-73.325,127.61000000000001,-75.74000000000001,3.201036,-0.29548399999999997,-1.251232,0
2024-06-14 10:25:38.741,-61.705,104.44,-70.035,3.3545119999999997,-0.421876,-1.1860840000000001,0
2024-06-14 10:25:38.746,-39.620000000000005,78.05000000000001,-62.825,3.3586599999999995,-0.49898,-1.177544,0
2024-06-14 10:25:38.751,-9.38,51.205,-55.055,3.3671999999999995,-0.51606,-1.092632,0
2024-06-14 10:25:38.755,25.865000000000002,24.57,-47.495000000000005,3.2505679999999995,-0.443836,-1.040416,0
2024-06-14 10:25:38.760,57.61,-2.135,-41.965,3.069764,-0.305488,-1.0555439999999998,0
2024-06-14 10:25:38.765,-10.57,-188.79,-33.81,4.23706,-0.059292,-5.242584,0
