time,gyroscope_x,gyroscope_y,gyroscope_z,accelerometer_x,accelerometer_y,accelerometer_z,phase
2024-06-14 08:03:28.335,-75.39,-164.99,-30.485,-0.279624,0.022936,-1.415444,1
2024-06-14 08:03:28.340,-54.425,-174.09,-39.2,-0.23375200000000002,0.023911999999999996,-1.346148,1
2024-06-14 08:03:28.344,-31.744999999999997,-177.415,-45.815,-0.20691199999999998,0.112728,-1.3344360000000002,1
2024-06-14 08:03:28.349,-18.515,-175.035,-45.08,-0.20983999999999997,0.22155199999999997,-1.4108079999999998,1
2024-06-14 08:03:28.354,-11.969999999999999,-163.03,-37.975,-0.169336,0.30597599999999997,-1.4805920000000001,1
2024-06-14 08:03:28.359,-12.915,-150.99,-25.305,-0.11224,0.42334,-1.52744,1
2024-06-14 08:03:28.364,-15.54,-142.38,-8.89,-0.11346,0.457744,-1.489376,1
2024-06-14 08:03:28.369,-14.98,-136.43,6.125,-0.15372000000000002,0.39991600000000005,-1.4337440000000001,1
2024-06-14 08:03:28.373,-15.190000000000001,-133.35,15.82,-0.23570399999999997,0.254004,-1.3271159999999997,1
2024-06-14 08:03:28.378,-9.765,-133.245,20.72,-0.29646000000000006,0.10199199999999999,-1.2785600000000001,1
2024-06-14 08:03:28.383,-3.6399999999999997,-128.17000000000002,19.6,-0.31500399999999995,-0.044652000000000004,-1.27002,2
2024-06-14 08:03:28.388,-0.98,-120.855,13.44,-0.252296,-0.138104,-1.251476,2
2024-06-14 08:03:28.393,4.654999999999999,-114.44999999999999,5.8100000000000005,-0.157624,-0.18836799999999998,-1.233664,2
2024-06-14 08:03:28.398,7.77,-110.95,-1.295,-0.109556,-0.148352,-1.196088,2
2024-06-14 08:03:28.403,10.465,-107.8,-5.74,-0.11882799999999999,-0.08759600000000001,-1.143872,2
2024-06-14 08:03:28.407,9.765,-104.125,-7.699999999999999,-0.16421200000000002,-0.066368,-1.1385040000000002,2
2024-06-14 08:03:28.412,8.33,-98.84,-7.42,-0.189344,-0.030744,-1.101416,2
2024-06-14 08:03:28.417,5.46,-93.20500000000001,-6.09,-0.18324400000000002,-0.045871999999999996,-1.09434,2
2024-06-14 08:03:28.422,-1.925,-88.445,-5.145,-0.158356,-0.044652,-1.0787240000000002,2
2024-06-14 08:03:28.427,0.77,-81.13,-5.074999999999999,-0.14151999999999998,-0.0549,-1.1033680000000001,2
2024-06-14 08:03:28.432,0.98,-72.83500000000001,-6.16,-0.117364,-0.07222400000000001,-1.1040999999999999,2
2024-06-14 08:03:28.436,2.065,-66.535,-7.699999999999999,-0.116876,-0.069296,-1.0931199999999999,2
2024-06-14 08:03:28.441,1.855,-60.480000000000004,-8.4,-0.1281,-0.04636,-1.13094,2
2024-06-14 08:03:28.446,0.9450000000000001,-52.465,-7.595000000000001,-0.13663999999999998,-0.03782,-1.124352,2
2024-06-14 08:03:28.451,-0.034999999999999976,-45.045,-5.949999999999999,-0.133224,-0.024399999999999998,-1.1265479999999999,2
2024-06-14 08:03:28.456,-1.0150000000000001,-41.05500000000001,-4.2,-0.123464,-0.024156,-1.0836039999999998,2
2024-06-14 08:03:28.461,-0.9450000000000001,-39.235,-3.675,-0.12273200000000001,-0.030255999999999998,-1.06018,2
2024-06-14 08:03:28.466,-0.385,-38.85,-4.025,-0.12834399999999999,-0.037087999999999996,-1.0579839999999998,2
2024-06-14 08:03:28.470,-4.6899999999999995,-31.990000000000002,-5.145,-0.12444,-0.06954,-1.1382599999999998,2
2024-06-14 08:03:28.475,-6.895,-29.855,-6.125,-0.12785599999999997,-0.104188,-1.0445639999999998,2
2024-06-14 08:03:28.480,-8.68,-29.47,-7.279999999999999,-0.09516,-0.056364,-1.0789680000000001,2
2024-06-14 08:03:28.485,-8.155,-29.015,-8.155000000000001,-0.11077599999999999,-0.020984,-1.064328,2
2024-06-14 08:03:28.490,-8.54,-40.04,-8.4,-0.14396,-0.009516,-1.0216279999999998,2
2024-06-14 08:03:28.495,-7.3149999999999995,-29.924999999999997,-8.365,-0.15372,0.010492,-1.024556,2
2024-06-14 08:03:28.499,-5.635,-30.135,-7.805,-0.148108,0.004392,-1.027972,2
2024-06-14 08:03:28.504,-5.635,-23.310000000000002,-7.279999999999999,-0.13932399999999998,0.009516,-1.016016,2
2024-06-14 08:03:28.509,-4.62,-24.955,-6.72,-0.13102799999999998,-0.01098,-1.017968,2
2024-06-14 08:03:28.514,-4.305,-25.13,-6.720000000000001,-0.11223999999999999,-0.016836,-1.032608,2
2024-06-14 08:03:28.519,-3.92,-25.9,-6.405,-0.11638799999999999,-0.007808000000000001,-1.037732,2
2024-06-14 08:03:28.524,-2.7649999999999997,-27.23,-6.335,-0.129076,-0.008052,-1.031876,2
2024-06-14 08:03:28.529,-2.625,-28.455,-6.09,-0.13785999999999998,-0.0026839999999999993,-1.0352919999999999,2
2024-06-14 08:03:28.533,-3.3600000000000003,-29.855000000000004,-5.390000000000001,-0.138592,-0.027084,-1.020652,2
2024-06-14 08:03:28.538,-5.109999999999999,-31.57,-4.48,-0.116632,-0.029768,-1.02236,2
2024-06-14 08:03:28.543,-6.6850000000000005,-33.25,-3.71,-0.10125999999999999,-0.029524,-1.018456,2
2024-06-14 08:03:28.548,-7.63,-35.245000000000005,-3.36,-0.106628,-0.023912,-1.013576,2
2024-06-14 08:03:28.553,-8.645,-36.435,-3.045,-0.111508,-0.019276,-1.017236,2
2024-06-14 08:03:28.558,-9.835,-37.625,-2.4850000000000003,-0.11419199999999999,-0.018544,-1.024068,2
2024-06-14 08:03:28.562,-11.34,-34.545,-1.995,-0.112484,-0.023668,-1.0250439999999998,2
2024-06-14 08:03:28.567,-12.95,-39.165,-1.575,-0.107848,-0.020739999999999998,-1.0291919999999999,2
2024-06-14 08:03:28.572,-14.42,-39.480000000000004,-0.8049999999999999,-0.09418399999999999,-0.022204,-1.025776,2
2024-06-14 08:03:28.577,-15.61,-38.955,-0.42,-0.0854,-0.013176,-1.02358,2
2024-06-14 08:03:28.582,-15.75,-38.675,-0.10500000000000001,-0.083448,-0.009272,-1.011136,2
2024-06-14 08:03:28.587,-16.03,-37.695,0.21000000000000002,-0.08247199999999999,0.001708,-1.01138,2
2024-06-14 08:03:28.592,-15.504999999999999,-37.415,0.28,-0.07442000000000001,0.005856,-1.017236,2
2024-06-14 08:03:28.596,-14.7,-37.239999999999995,0.21,-0.07319999999999999,-0.00048799999999999994,-1.011136,2
2024-06-14 08:03:28.601,-13.895,-37.905,0.385,-0.057828,0.00732,-1.017236,2
2024-06-14 08:03:28.606,-12.215,-39.445,0.385,-0.07417599999999999,0.012444,-1.019188,2
2024-06-14 08:03:28.611,-10.57,-40.705,0.42,-0.082228,0.013908,-1.01748,2
2024-06-14 08:03:28.616,-9.274999999999999,-41.965,0.595,-0.072712,0.010735999999999999,-1.024068,2
2024-06-14 08:03:28.621,-8.260000000000002,-42.91,0.77,-0.067832,0.00732,-1.030412,2
2024-06-14 08:03:28.625,-7.595,-42.875,0.9099999999999999,-0.062464000000000006,0.00366,-1.0230920000000001,2
2024-06-14 08:03:28.630,-7.175,-42.105000000000004,1.085,-0.058316,-0.0014640000000000002,-1.00772,2
2024-06-14 08:03:28.635,-7.175,-41.685,1.47,-0.054655999999999996,-0.009516,-1.003816,2
2024-06-14 08:03:28.640,-7.21,-41.334999999999994,1.75,-0.043432,-0.005611999999999999,-0.997228,2
2024-06-14 08:03:28.645,-6.405,-35.07,2.065,-0.032208,0.000732,-0.992592,2
2024-06-14 08:03:28.650,-7.699999999999999,-39.41,1.89,-0.029523999999999998,-0.0017079999999999999,-0.99552,2
2024-06-14 08:03:28.655,-5.529999999999999,-38.010000000000005,2.1,-0.027816,0.0026839999999999998,-0.987224,2
2024-06-14 08:03:28.659,-7.77,-36.4,2.065,-0.02684,0.00244,-0.985516,2
2024-06-14 08:03:28.664,-5.915,-34.44,2.03,-0.027327999999999998,0.00488,-0.987468,2
2024-06-14 08:03:28.669,-5.915,-32.9,2.065,-0.024888,0.002196,-0.983564,2
2024-06-14 08:03:28.674,-6.755000000000001,-30.905,1.9249999999999998,-0.022204,0.005124,-0.98576,2
2024-06-14 08:03:28.679,-6.195,-28.91,1.855,-0.021228,0.005124,-0.9947879999999999,2
2024-06-14 08:03:28.684,-8.995000000000001,-26.075000000000003,1.6099999999999999,-0.0068319999999999995,0.0075639999999999995,-0.98576,2
2024-06-14 08:03:28.688,-8.75,-25.795,1.505,-0.008539999999999999,0.007808,-0.9889319999999999,2
2024-06-14 08:03:28.693,-8.225000000000001,-24.535,1.365,-0.013908,0.00732,-0.9864919999999999,2
2024-06-14 08:03:28.698,-8.645,-23.345,1.4,-0.015616000000000001,0.0029279999999999996,-0.987712,2
2024-06-14 08:03:28.703,-8.085,-23.695,1.47,-0.014152,0.000488,-0.9925919999999999,2
2024-06-14 08:03:28.708,-8.015,-24.045,1.7149999999999999,-0.018788,0.000488,-0.994788,2
2024-06-14 08:03:28.713,-8.155,-23.8,1.855,-0.012444,0.007808,-0.99918,2
2024-06-14 08:03:28.718,-7.734999999999999,-24.5,1.9949999999999999,-0.0075639999999999995,0.013663999999999999,-1.00406,2
2024-06-14 08:03:28.722,-7.699999999999999,-24.990000000000002,1.9949999999999999,-0.011956,0.016347999999999998,-1.009428,2
2024-06-14 08:03:28.727,-8.26,-25.060000000000002,1.9249999999999998,-0.013663999999999999,0.0046359999999999995,-1.016504,2
2024-06-14 08:03:28.732,-10.92,-25.725,1.6800000000000002,-0.01098,-0.0061,-1.023336,2
2024-06-14 08:03:28.737,-12.495000000000001,-26.705,1.645,-0.00854,0.0060999999999999995,-1.0084520000000001,2
2024-06-14 08:03:28.742,-12.879999999999999,-26.67,1.82,-0.0053679999999999995,0.012932,-1.009184,2
2024-06-14 08:03:28.747,-12.705,-26.39,1.96,-0.00122,0.022204,-1.008696,2
2024-06-14 08:03:28.751,-12.775,-26.005,1.9249999999999998,0.000732,0.018543999999999998,-1.0072320000000001,2
2024-06-14 08:03:28.756,-12.74,-25.445,1.9249999999999998,0.005856,0.017324,-0.99918,2
2024-06-14 08:03:28.761,-12.705,-24.78,2.03,0.006343999999999999,0.01464,-0.9945439999999999,2
2024-06-14 08:03:28.766,-12.879999999999999,-23.520000000000003,2.1,0.012444,0.015372,-0.9903959999999999,2
2024-06-14 08:03:28.771,-12.844999999999999,-21.945,2.205,0.016592,0.014152000000000001,-0.985028,2
2024-06-14 08:03:28.776,-12.705,-20.58,2.3449999999999998,0.023424,0.0183,-0.9862479999999999,2
2024-06-14 08:03:28.781,-12.18,-18.445,2.415,0.026108,0.025619999999999997,-0.97966,2
2024-06-14 08:03:28.785,-11.620000000000001,-16.17,2.38,0.028059999999999998,0.022447999999999996,-0.97356,2
2024-06-14 08:03:28.790,-11.129999999999999,-13.405000000000001,2.4850000000000003,0.03781999999999999,0.03294,-0.96502,2
2024-06-14 08:03:28.795,-10.08,-10.149999999999999,2.31,0.038552,0.036844,-0.962092,2
2024-06-14 08:03:28.800,-8.33,-7.595000000000001,2.45,0.040992,0.042456,-0.957212,2
2024-06-14 08:03:28.805,-6.6850000000000005,-5.04,2.45,0.036599999999999994,0.035379999999999995,-0.95282,2
2024-06-14 08:03:28.810,-5.215,-3.115,2.45,0.027327999999999998,0.033428,-0.960628,2
2024-06-14 08:03:28.814,-4.48,-1.82,2.4850000000000003,0.021716,0.030987999999999998,-0.972828,2
2024-06-14 08:03:28.819,-4.305,-0.77,2.4850000000000003,0.010248,0.017812,-0.9842959999999998,2
2024-06-14 08:03:28.824,-4.725,0.315,2.59,0.020007999999999998,0.01586,-0.989908,2
2024-06-14 08:03:28.829,-5.075,0.91,2.8,0.024155999999999997,0.014395999999999999,-0.9882,2
2024-06-14 08:03:28.834,-4.9350000000000005,0.13999999999999999,2.87,0.013908,0.027572,-0.9925919999999999,2
2024-06-14 08:03:28.839,-4.9,-1.015,2.73,0.001708,0.02806,-0.997716,2
2024-06-14 08:03:28.847,-5.25,-2.45,2.6950000000000003,0.007807999999999999,0.020496,-1.0145520000000001,2
2024-06-14 08:03:28.851,-5.705,-5.215,2.8,0.014395999999999999,0.021471999999999998,-1.039196,2
2024-06-14 08:03:28.856,-6.02,-8.05,2.7649999999999997,0.011956,0.038551999999999996,-1.044076,3
2024-06-14 08:03:28.861,-5.529999999999999,-10.29,2.625,0.011467999999999999,0.042455999999999994,-1.042856,3
2024-06-14 08:03:28.866,-4.795,-12.565000000000001,2.45,0.006344,0.05245999999999999,-1.038708,3
2024-06-14 08:03:28.871,-4.025,-14.77,2.0999999999999996,0.007319999999999999,0.054412,-1.034072,3
2024-06-14 08:03:28.875,-3.115,-17.115000000000002,1.855,0.009271999999999999,0.047824,-1.036268,3
2024-06-14 08:03:28.880,-2.835,-19.39,1.75,0.011467999999999999,0.042212,-1.04066,3
2024-06-14 08:03:28.885,-2.73,-21.560000000000002,1.785,0.017568,0.03172,-1.0399280000000002,3
2024-06-14 08:03:28.890,-2.625,-23.555,1.7850000000000001,0.014152,0.029036,-1.031388,3
2024-06-14 08:03:28.895,-2.345,-25.41,1.9949999999999999,0.01586,0.035868,-1.03212,3
2024-06-14 08:03:28.900,-2.0300000000000002,-26.775,1.9949999999999999,0.016592,0.033916,-1.0348039999999998,3
2024-06-14 08:03:28.904,-2.2750000000000004,-28.7,1.8900000000000001,0.020496,0.034404,-1.043832,3
2024-06-14 08:03:28.909,-2.8,-30.415,1.8900000000000001,0.021716,0.0305,-1.042856,3
2024-06-14 08:03:28.914,-3.01,-31.57,1.995,0.020496,0.025863999999999998,-1.0411480000000002,3
2024-06-14 08:03:28.919,-4.095000000000001,-33.075,2.03,0.023424,0.02196,-1.049932,3
2024-06-14 08:03:28.924,-5.495,-34.790000000000006,2.065,0.028548,0.015128,-1.0457839999999998,3
2024-06-14 08:03:28.928,-6.93,-36.260000000000005,2.065,0.032696,0.017079999999999998,-1.038708,3
2024-06-14 08:03:28.933,-8.47,-37.66,1.9249999999999998,0.039772,0.025376000000000003,-1.047248,3
2024-06-14 08:03:28.938,-9.555,-39.165,1.75,0.040015999999999996,0.022935999999999998,-1.049688,3
2024-06-14 08:03:28.943,-10.99,-40.04,1.505,0.038552,0.033428,-1.051396,3
2024-06-14 08:03:28.948,-13.475,-40.32,0.77,0.04514,0.052216,-1.0555439999999998,3
2024-06-14 08:03:28.953,-13.475000000000001,-41.370000000000005,0.31500000000000006,0.043432,0.026352,-1.0936080000000001,3
2024-06-14 08:03:28.957,-6.16,-41.650000000000006,2.415,0.060756,0.0039040000000000012,-1.0474919999999999,3
2024-06-14 08:03:28.962,-7.35,-42.980000000000004,2.065,0.051484,0.041968,-1.0689639999999998,3
2024-06-14 08:03:28.967,-6.72,-44.905,2.31,0.053924,0.025619999999999997,-1.0655480000000002,3
2024-06-14 08:03:28.972,-6.58,-47.565,2.4850000000000003,0.058316,0.031232,-1.075064,3
2024-06-14 08:03:28.977,-6.300000000000001,-50.33,2.73,0.054900000000000004,0.017324,-1.0931199999999999,3
2024-06-14 08:03:28.981,-5.845000000000001,-53.865,3.325,0.061244,0.0031720000000000003,-1.1016599999999999,3
2024-06-14 08:03:28.986,-5.705,-57.644999999999996,3.92,0.060756,0.018056000000000003,-1.112152,3
2024-06-14 08:03:28.991,-5.145,-61.425,4.34,0.066368,0.005124,-1.135576,3
2024-06-14 08:03:28.996,-3.605,-64.4,5.075,0.06880800000000001,0.036112000000000005,-1.1467999999999998,3
2024-06-14 08:03:29.001,-4.095,-67.9,5.074999999999999,0.071492,0.038796,-1.150704,3
2024-06-14 08:03:29.006,-3.6399999999999997,-71.82,5.32,0.08052000000000001,0.031232,-1.147776,3
2024-06-14 08:03:29.010,-3.325,-75.495,5.32,0.087352,0.036356,-1.142164,3
2024-06-14 08:03:29.015,-2.8,-78.995,5.25,0.09759999999999999,0.040260000000000004,-1.1272799999999998,3
2024-06-14 08:03:29.020,-1.155,-82.46000000000001,5.390000000000001,0.112728,0.03172,-1.126304,3
2024-06-14 08:03:29.025,0.8400000000000001,-86.03,5.425000000000001,0.112728,0.078568,-1.128256,3
2024-06-14 08:03:29.030,1.505,-89.565,4.550000000000001,0.120536,0.081984,-1.124596,3
2024-06-14 08:03:29.034,4.62,-93.1,4.095000000000001,0.12492800000000001,0.072712,-1.12484,3
2024-06-14 08:03:29.039,7.665,-97.475,3.5,0.13176,0.087596,-1.137772,3
2024-06-14 08:03:29.044,10.92,-102.095,3.08,0.144936,0.06539199999999999,-1.1531439999999997,3
2024-06-14 08:03:29.049,14.629999999999999,-106.225,2.9050000000000002,0.148352,0.072468,-1.171932,3
2024-06-14 08:03:29.054,17.29,-110.67,2.6950000000000003,0.139812,0.078812,-1.1834,3
2024-06-14 08:03:29.059,20.545,-115.045,2.5549999999999997,0.140788,0.07466400000000001,-1.193648,3
2024-06-14 08:03:29.063,24.22,-120.19,2.345,0.154208,0.08662,-1.235128,3
2024-06-14 08:03:29.068,25.375,-124.14500000000001,1.8199999999999998,0.153964,0.093208,-1.292224,3
2024-06-14 08:03:29.073,28.0,-128.59,1.4,0.159332,0.073932,-1.308816,3
2024-06-14 08:03:29.078,30.8,-134.435,1.505,0.156648,0.078324,-1.360544,3
2024-06-14 08:03:29.083,29.785,-139.055,1.6099999999999999,0.159576,0.046604,-1.394704,3
2024-06-14 08:03:29.087,23.765,-142.275,2.31,0.156404,-0.00366,-1.410564,3
2024-06-14 08:03:29.092,22.015,-148.85500000000002,3.43,0.168604,-0.010735999999999999,-1.422764,3
2024-06-14 08:03:29.097,18.165,-156.24,4.48,0.171288,-0.037087999999999996,-1.44204,3
2024-06-14 08:03:29.102,16.380000000000003,-164.535,6.23,0.161528,-0.05538799999999999,-1.448628,3
2024-06-14 08:03:29.107,14.665,-173.35500000000002,7.944999999999999,0.161528,-0.073932,-1.453996,3
2024-06-14 08:03:29.112,17.08,-181.51,10.57,0.1708,-0.101748,-1.5372,3
2024-06-14 08:03:29.116,18.095,-191.31,12.879999999999999,0.177388,-0.101504,-1.508896,3
2024-06-14 08:03:29.121,16.939999999999998,-199.185,15.365,0.180072,-0.101016,-1.4825439999999999,3
2024-06-14 08:03:29.126,14.35,-212.24,17.395,0.169336,-0.102236,-1.4801039999999999,3
2024-06-14 08:03:29.131,17.115000000000002,-223.3,20.3,0.160552,-0.101992,-1.5330519999999999,3
2024-06-14 08:03:29.136,15.995,-234.675,22.505000000000003,0.183976,-0.101016,-1.516216,3
2024-06-14 08:03:29.140,19.145,-247.625,25.060000000000002,0.18568400000000002,-0.096624,-1.535248,3
2024-06-14 08:03:29.145,22.995,-259.03499999999997,27.439999999999998,0.189344,-0.049288,-1.562088,3
2024-06-14 08:03:29.150,25.165,-271.21500000000003,29.435000000000002,0.205204,0.0031719999999999995,-1.574776,3
2024-06-14 08:03:29.155,28.105,-282.065,27.335,0.237412,0.01464,-1.623088,3
2024-06-14 08:03:29.160,33.74,-292.495,26.04,0.24448799999999998,0.056119999999999996,-1.647732,3
2024-06-14 08:03:29.165,39.935,-302.015,23.73,0.27693999999999996,0.112728,-1.6530999999999998,3
2024-06-14 08:03:29.169,46.795,-310.975,20.825,0.30768399999999996,0.169824,-1.7089759999999998,3
2024-06-14 08:03:29.174,52.605000000000004,-317.765,16.66,0.338916,0.191784,-1.741184,3
2024-06-14 08:03:29.179,62.86,-324.765,13.195,0.322812,0.171288,-1.785348,3
2024-06-14 08:03:29.184,69.825,-329.56,10.045,0.36941599999999997,0.22814,-1.804868,3
2024-06-14 08:03:29.189,74.47999999999999,-335.335,5.705,0.320616,0.15738,-1.8502519999999998,3
2024-06-14 08:03:29.193,81.27,-338.03,4.550000000000001,0.293044,0.106628,-1.847324,3
2024-06-14 08:03:29.198,84.595,-341.565,4.48,0.287676,0.11760799999999999,-1.829268,3
2024-06-14 08:03:29.203,83.02,-345.765,2.38,0.301096,0.130052,-1.8356119999999998,4
2024-06-14 08:03:29.208,79.625,-350.525,1.365,0.24448799999999998,0.023424,-1.814384,4
2024-06-14 08:03:29.213,78.25999999999999,-351.82,2.73,0.272548,-0.052704,-1.7807119999999999,4
2024-06-14 08:03:29.218,77.56,-353.67499999999995,3.955,0.29304399999999997,-0.101016,-1.7812,4
2024-06-14 08:03:29.222,77.875,-356.685,7.629999999999999,0.20008,-0.077592,-1.6618839999999997,4
2024-06-14 08:03:29.227,67.48,-352.765,12.915,0.37234399999999995,-0.060756000000000004,-1.611376,4
2024-06-14 08:03:29.232,49.175,-352.345,13.51,0.48653599999999997,-0.024888,-1.6084479999999999,4
2024-06-14 08:03:29.237,41.335,-351.4,14.559999999999999,0.417484,-0.211304,-1.516216,4
2024-06-14 08:03:29.242,42.98,-343.17499999999995,17.08,0.585844,-0.38796,-1.3390719999999998,4
2024-06-14 08:03:29.247,51.485,-341.17999999999995,20.965,0.482144,-0.5946279999999999,-1.338828,4
2024-06-14 08:03:29.251,66.955,-337.26,29.89,0.367464,-0.713212,-1.267336,4
2024-06-14 08:03:29.256,82.775,-331.485,41.545,0.227896,-0.8039799999999999,-1.252452,4
2024-06-14 08:03:29.261,101.08000000000001,-321.78999999999996,52.5,0.262788,-0.796904,-1.311256,4
2024-06-14 08:03:29.266,118.965,-317.20500000000004,65.87,0.084424,-0.735172,-1.310524,4
2024-06-14 08:03:29.271,127.05000000000001,-310.065,80.28999999999999,-0.15738,-0.672952,-1.1958440000000001,4
2024-06-14 08:03:29.275,128.41500000000002,-298.58500000000004,95.13,-0.259372,-0.573888,-1.18218,4
2024-06-14 08:03:29.280,122.28999999999999,-287.45500000000004,108.955,-0.39088799999999996,-0.489464,-1.152168,4
2024-06-14 08:03:29.285,112.945,-273.90999999999997,122.185,-0.706624,-0.39357200000000003,-1.065304,4
2024-06-14 08:03:29.290,104.405,-256.27,132.125,-0.421632,-0.447496,-0.791292,4
2024-06-14 08:03:29.295,90.965,-235.41,127.12,-0.214476,-0.523868,-0.9403759999999999,4
2024-06-14 08:03:29.300,72.66,-173.91500000000002,113.225,-0.8188639999999999,-0.133224,-1.024068,4
2024-06-14 08:03:29.304,65.1,-110.46,96.67,-1.136796,0.086132,-0.5565640000000001,4
2024-06-14 08:03:29.309,42.805,-52.675,73.465,-1.062376,0.09272,-0.531432,4
2024-06-14 08:03:29.314,9.205,3.289999999999999,46.2,-0.942572,0.12688,-0.64538,4
2024-06-14 08:03:29.319,-22.12,53.480000000000004,20.545,-0.91256,0.16372399999999998,-0.680272,4
2024-06-14 08:03:29.324,-47.53,98.105,-0.7349999999999999,-0.900116,0.073444,-0.671732,4
2024-06-14 08:03:29.328,-69.51,136.64,-16.625,-0.8315520000000001,-0.05368,-0.682468,4
2024-06-14 08:03:29.333,-84.91,169.89,-26.985,-0.776408,-0.15616000000000002,-0.71492,4
2024-06-14 08:03:29.338,-91.35,199.535,-32.165,-0.741272,-0.26913200000000004,-0.739564,4
2024-06-14 08:03:29.343,-90.125,225.785,-33.144999999999996,-0.708332,-0.37551599999999996,-0.758352,4
2024-06-14 08:03:29.348,-83.86,248.57,-30.73,-0.655384,-0.427976,-0.777384,4
2024-06-14 08:03:29.353,-74.69,267.715,-26.075000000000003,-0.6038999999999999,-0.432856,-0.8112999999999999,4
2024-06-14 08:03:29.357,-65.69500000000001,283.15,-20.58,-0.538508,-0.41504399999999997,-0.856684,4
2024-06-14 08:03:29.362,-59.15,294.105,-14.945,-0.46555199999999997,-0.375272,-0.891088,4
2024-06-14 08:03:29.367,-55.650000000000006,301.0,-9.415,-0.399428,-0.32817999999999997,-0.906704,4
2024-06-14 08:03:29.372,-53.69,304.71,-4.13,-0.35624,-0.294752,-0.900604,4
2024-06-14 08:03:29.377,-52.394999999999996,306.11,0.9099999999999999,-0.310368,-0.279624,-0.869128,4
2024-06-14 08:03:29.381,-51.275000000000006,306.18,6.02,-0.26961999999999997,-0.285236,-0.843996,4
2024-06-14 08:03:29.386,-49.84,305.69,11.375,-0.254004,-0.29865600000000003,-0.8320399999999999,4
2024-06-14 08:03:29.391,-47.53,306.005,17.255000000000003,-0.244976,-0.30988000000000004,-0.83326,4
2024-06-14 08:03:29.395,-43.75,307.92999999999995,22.75,-0.251564,-0.314028,-0.8264279999999999,4
2024-06-14 08:03:29.400,-39.095,312.40999999999997,27.545,-0.26888799999999996,-0.316224,-0.83814,4
2024-06-14 08:03:29.405,-33.81,320.32,31.36,-0.287188,-0.3233,-0.8744959999999999,4
2024-06-14 08:03:29.409,-29.505,330.82,33.53,-0.28645600000000004,-0.287432,-0.9174399999999999,4
2024-06-14 08:03:29.414,-28.630000000000003,342.86,33.6,-0.282064,-0.22106399999999998,-0.9694119999999999,4
2024-06-14 08:03:29.419,-31.255000000000003,355.145,32.025,-0.278648,-0.16787200000000002,-1.0218720000000001,4
2024-06-14 08:03:29.424,-36.61,366.695,29.295,-0.26839999999999997,-0.12297599999999999,-1.062132,4
2024-06-14 08:03:29.429,-43.785,376.495,26.18,-0.234728,-0.10248,-1.093852,4
2024-06-14 08:03:29.434,-50.644999999999996,383.39,23.695,-0.199836,-0.110288,-1.124596,4
2024-06-14 08:03:29.438,-54.075,386.68,22.82,-0.145424,-0.149816,-1.1531440000000002,4
2024-06-14 08:03:29.443,-52.29,386.365,23.975,-0.071736,-0.21179199999999998,-1.182912,4
2024-06-14 08:03:29.448,-45.92,382.55,26.39,-0.00976,-0.252052,-1.191452,4
2024-06-14 08:03:29.453,-36.05,376.04,29.54,0.036112,-0.27132799999999996,-1.1953559999999999,4
2024-06-14 08:03:29.458,-24.395000000000003,368.16499999999996,32.515,0.07441999999999999,-0.26522799999999996,-1.2151199999999998,4
2024-06-14 08:03:29.463,-12.67,359.38,34.58,0.104188,-0.243512,-1.243912,4
2024-06-14 08:03:29.467,-1.19,350.665,35.21,0.13663999999999998,-0.211548,-1.281244,4
2024-06-14 08:03:29.472,9.17,341.95,34.09,0.16591999999999998,-0.18348799999999998,-1.298568,4
2024-06-14 08:03:29.477,17.43,333.06,31.15,0.176412,-0.15054800000000002,-1.3305319999999998,4
2024-06-14 08:03:29.482,24.71,325.5,26.39,0.176656,-0.11809599999999999,-1.36884,4
2024-06-14 08:03:29.487,30.765,319.69,19.915,0.17275200000000002,-0.087352,-1.409344,4
2024-06-14 08:03:29.491,35.56,315.595,11.55,0.16055199999999997,-0.06539199999999999,-1.453264,4
2024-06-14 08:03:29.496,40.040000000000006,313.775,2.345,0.150304,-0.054167999999999994,-1.494988,4
2024-06-14 08:03:29.501,44.065,313.18,-7.91,0.155428,-0.04758,-1.5311,4
2024-06-14 08:03:29.506,47.39,312.865,-18.34,0.162016,-0.03904,-1.5677,4
2024-06-14 08:03:29.511,50.015,312.58500000000004,-28.735,0.17592400000000002,-0.035868,-1.599176,4
2024-06-14 08:03:29.516,52.465,311.745,-38.394999999999996,0.187392,-0.039772,-1.617964,4
2024-06-14 08:03:29.520,54.81,310.135,-46.69,0.207888,-0.056608,-1.6362640000000002,4
2024-06-14 08:03:29.525,57.225,307.685,-53.025,0.22765200000000002,-0.073688,-1.663592,4
2024-06-14 08:03:29.530,60.41,305.06,-56.735,0.24302400000000002,-0.090036,-1.693604,4
2024-06-14 08:03:29.535,63.735,302.53999999999996,-57.68,0.23912,-0.10589599999999999,-1.7199559999999998,4
2024-06-14 08:03:29.540,66.00999999999999,301.0,-56.21,0.248392,-0.096868,-1.7446,4
2024-06-14 08:03:29.545,66.28999999999999,299.985,-53.129999999999995,0.253028,-0.077592,-1.774368,4
2024-06-14 08:03:29.549,65.065,299.6,-48.545,0.263032,-0.07197999999999999,-1.802184,4
2024-06-14 08:03:29.554,62.370000000000005,299.25,-42.769999999999996,0.27693999999999996,-0.06222,-1.814628,4
2024-06-14 08:03:29.559,58.345,298.27,-36.015,0.291092,-0.050019999999999995,-1.820972,4
2024-06-14 08:03:29.564,54.11,296.31,-28.805,0.305976,-0.051727999999999996,-1.826096,4
2024-06-14 08:03:29.569,50.47,293.755,-21.07,0.32817999999999997,-0.05538799999999999,-1.8275599999999999,4
2024-06-14 08:03:29.574,48.125,289.94,-13.405000000000001,0.3406239999999999,-0.06417199999999999,-1.83366,4
2024-06-14 08:03:29.578,46.795,285.565,-6.300000000000001,0.350872,-0.062708,-1.8419560000000001,4
2024-06-14 08:03:29.583,45.71,280.805,0.03500000000000003,0.347456,-0.06368399999999999,-1.85318,4
2024-06-14 08:03:29.588,45.114999999999995,275.83500000000004,5.145,0.339648,-0.060511999999999996,-1.8663560000000001,4
2024-06-14 08:03:29.593,45.36,270.725,8.82,0.33184,-0.049776,-1.883436,4
2024-06-14 08:03:29.598,45.08,265.335,10.675,0.345016,-0.050996,-1.890268,4
2024-06-14 08:03:29.603,44.415000000000006,259.14,10.955,0.37258800000000003,-0.047824,-1.881484,4
2024-06-14 08:03:29.607,43.47,251.195,10.29,0.421388,-0.055388,-1.862696,4
2024-06-14 08:03:29.612,42.21,241.255,8.785,0.476288,-0.074908,-1.8490319999999998,4
2024-06-14 08:03:29.617,42.21,230.265,7.245,0.511668,-0.101504,-1.84098,4
2024-06-14 08:03:29.622,44.695,220.22,5.6,0.5277719999999999,-0.135664,-1.838296,4
2024-06-14 08:03:29.627,49.489999999999995,211.715,3.675,0.545096,-0.180804,-1.815848,4
2024-06-14 08:03:29.631,55.58,204.22500000000002,1.33,0.5660799999999999,-0.203496,-1.791204,4
2024-06-14 08:03:29.636,61.88,196.595,-1.61,0.61,-0.23058,-1.770952,4
2024-06-14 08:03:29.641,69.82499999999999,188.895,-5.109999999999999,0.670512,-0.23912,-1.7641200000000001,4
2024-06-14 08:03:29.646,76.965,181.37,-9.065,0.6829560000000001,-0.23716800000000002,-1.69702,4
2024-06-14 08:03:29.651,83.58,174.125,-12.915,0.719068,-0.240584,-1.666032,4
2024-06-14 08:03:29.656,90.93,167.44,-16.38,0.786656,-0.23399599999999998,-1.6799399999999998,4
2024-06-14 08:03:29.660,98.66499999999999,161.0,-18.655,0.829356,-0.18373199999999998,-1.641876,4
2024-06-14 08:03:29.665,103.775,154.45499999999998,-19.67,0.8674200000000001,-0.105652,-1.6055199999999998,4
2024-06-14 08:03:29.670,105.56,147.56,-20.055,0.91256,-0.009515999999999998,-1.584292,4
2024-06-14 08:03:29.675,104.44,140.245,-19.740000000000002,0.9550160000000001,0.064172,-1.549888,4
2024-06-14 08:03:29.680,102.235,133.35,-17.990000000000002,0.977708,0.12395199999999998,-1.518656,4
2024-06-14 08:03:29.685,99.12,127.67999999999999,-15.05,1.0145520000000001,0.18178,-1.5081639999999998,4
2024-06-14 08:03:29.689,93.905,122.88499999999999,-11.34,1.057252,0.26108,-1.47986,4
2024-06-14 08:03:29.694,85.89,118.055,-7.245,1.117276,0.3294,-1.4437479999999998,4
2024-06-14 08:03:29.699,75.95,112.525,-2.52,1.189012,0.377468,-1.397876,4
2024-06-14 08:03:29.704,65.52000000000001,105.17500000000001,2.87,1.2651400000000002,0.405528,-1.3500519999999998,4
2024-06-14 08:03:29.709,55.3,95.83,8.645,1.341024,0.40992,-1.313696,4
2024-06-14 08:03:29.714,46.620000000000005,84.49000000000001,14.875,1.402024,0.40015999999999996,-1.270996,4
2024-06-14 08:03:29.718,39.445,72.555,20.93,1.450336,0.393572,-1.237812,4
2024-06-14 08:03:29.723,33.67,60.69,25.41,1.4766879999999998,0.406748,-1.215608,4
2024-06-14 08:03:29.728,27.895,49.805,27.755000000000003,1.4825439999999999,0.426512,-1.194624,4
2024-06-14 08:03:29.733,21.28,39.269999999999996,27.229999999999997,1.4764439999999999,0.461648,-1.1787640000000001,4
2024-06-14 08:03:29.738,14.350000000000001,28.98,23.59,1.451068,0.48238800000000004,-1.165344,4
2024-06-14 08:03:29.743,7.91,18.97,17.395,1.4108079999999998,0.49166,-1.1494839999999997,4
2024-06-14 08:03:29.747,1.75,9.205,9.135,1.3502960000000002,0.484584,-1.121424,4
2024-06-14 08:03:29.752,-3.885,-0.84,-0.45500000000000007,1.282464,0.45018,-1.103612,4
2024-06-14 08:03:29.757,-8.47,-11.094999999999999,-10.745,1.214632,0.40016,-1.0870199999999999,4
2024-06-14 08:03:29.762,-11.690000000000001,-20.93,-21.525,1.134356,0.34892,-1.075796,4
2024-06-14 08:03:29.767,-13.58,-29.54,-32.620000000000005,1.049932,0.298412,-1.0675,4
2024-06-14 08:03:29.772,-14.594999999999999,-36.75,-43.925,0.97844,0.247904,-1.0614,4
2024-06-14 08:03:29.776,-14.594999999999999,-43.435,-55.16,0.922808,0.199836,-1.04188,4
2024-06-14 08:03:29.781,-21.91,-61.39,-67.165,1.691164,0.146644,-0.891332,4
2024-06-14 08:03:29.786,-166.81,-147.56,-92.155,2.8655359999999996,0.78568,-2.5854239999999997,4
