time,gyroscope_x,gyroscope_y,gyroscope_z,accelerometer_x,accelerometer_y,accelerometer_z,phase
2024-06-14 08:03:27.585,177.345,-177.065,-55.894999999999996,-0.29426399999999997,-0.08222800000000001,-3.625108,1
2024-06-14 08:03:27.590,157.22,-161.945,-55.86,-1.064084,0.526552,-1.072624,1
2024-06-14 08:03:27.595,156.10000000000002,-160.72,-46.655,-0.7183360000000001,0.594872,-1.129476,1
2024-06-14 08:03:27.600,145.95,-162.32999999999998,-33.04,-0.438712,0.46848,-1.464976,1
2024-06-14 08:03:27.605,131.495,-175.21,-20.895,-0.132492,0.36966,-1.515484,1
2024-06-14 08:03:27.609,121.66,-192.78,-4.444999999999999,-0.042944,0.393572,-1.580632,1
2024-06-14 08:03:27.614,105.07,-198.66,15.68,-0.027815999999999994,0.33940400000000004,-1.757044,1
2024-06-14 08:03:27.619,74.795,-193.48000000000002,30.240000000000002,-0.069052,0.138104,-1.754848,1
2024-06-14 08:03:27.624,62.37,-187.46,38.85,-0.08784,-0.012932000000000003,-1.758264,1
2024-06-14 08:03:27.629,52.745000000000005,-175.245,39.55,-0.08271599999999998,-0.14713199999999999,-1.798524,2
2024-06-14 08:03:27.633,48.09,-158.025,34.93,-0.08637600000000001,-0.259372,-1.748504,2
2024-06-14 08:03:27.638,43.995,-143.605,25.515,-0.101748,-0.354044,-1.67628,2
2024-06-14 08:03:27.643,45.185,-132.405,14.105,-0.122732,-0.361364,-1.535004,2
2024-06-14 08:03:27.648,42.945,-123.305,3.57,-0.18251199999999998,-0.29963199999999995,-1.37494,2
2024-06-14 08:03:27.653,37.66,-117.845,-3.325,-0.220088,-0.18690400000000001,-1.2068240000000001,2
2024-06-14 08:03:27.658,31.78,-113.33000000000001,-5.984999999999999,-0.247172,-0.045628,-1.047248,2
2024-06-14 08:03:27.662,25.375,-111.44,-4.865,-0.239608,0.069784,-0.914024,2
2024-06-14 08:03:27.667,19.775,-110.075,-1.47,-0.220576,0.148108,-0.828136,2
2024-06-14 08:03:27.672,15.645,-107.94,3.465,-0.212768,0.182756,-0.789828,2
2024-06-14 08:03:27.677,16.03,-104.22999999999999,9.24,-0.178852,0.156648,-0.846436,2
2024-06-14 08:03:27.682,13.335,-97.44,12.95,-0.119804,0.109068,-0.916464,2
2024-06-14 08:03:27.686,9.45,-98.035,14.77,-0.090768,0.014151999999999998,-1.057008,2
2024-06-14 08:03:27.691,2.9050000000000002,-87.36,13.44,-0.10125999999999999,-0.079056,-1.166076,2
2024-06-14 08:03:27.696,-4.9,-74.58500000000001,9.45,-0.11516799999999999,-0.14273999999999998,-1.314916,2
2024-06-14 08:03:27.701,-4.13,-58.69499999999999,4.445,-0.09003599999999999,-0.15054800000000002,-1.3783560000000001,2
2024-06-14 08:03:27.706,-7.77,-44.835,-2.135,-0.07197999999999999,-0.139324,-1.38226,2
2024-06-14 08:03:27.711,-10.989999999999998,-39.865,-7.140000000000001,-0.059292,-0.070272,-1.3915319999999998,2
2024-06-14 08:03:27.715,-14.14,-32.760000000000005,-9.205,-0.063928,0.0017080000000000003,-1.347124,2
2024-06-14 08:03:27.720,-17.15,-32.129999999999995,-8.54,-0.068076,0.027327999999999998,-1.285148,2
2024-06-14 08:03:27.725,-19.424999999999997,-31.85,-7.525,-0.08393599999999998,0.02928,-1.25416,2
2024-06-14 08:03:27.730,-20.72,-30.939999999999998,-7.525,-0.11102000000000001,0.016347999999999998,-1.219024,2
2024-06-14 08:03:27.735,-20.895,-28.945,-8.785,-0.14395999999999998,0.008052,-1.13948,2
2024-06-14 08:03:27.740,-19.705,-28.21,-10.254999999999999,-0.162016,0.033671999999999994,-1.109468,2
2024-06-14 08:03:27.744,-17.814999999999998,-26.285,-10.395,-0.139568,0.0854,-1.0614,2
2024-06-14 08:03:27.749,-16.625,-24.814999999999998,-8.925,-0.106628,0.095892,-1.041636,2
2024-06-14 08:03:27.754,-15.435,-25.27,-6.965,-0.08784,0.096868,-1.018456,2
2024-06-14 08:03:27.759,-15.155,-26.11,-5.390000000000001,-0.11102000000000001,0.071736,-0.9911279999999999,2
2024-06-14 08:03:27.764,-14.98,-25.935000000000002,-4.62,-0.14249599999999998,0.066856,-0.9742919999999999,2
2024-06-14 08:03:27.768,-15.855,-28.98,-3.85,-0.134932,0.055875999999999995,-0.9877119999999999,2
2024-06-14 08:03:27.773,-17.36,-32.865,-2.87,-0.1281,0.051239999999999994,-1.01504,2
2024-06-14 08:03:27.778,-18.060000000000002,-36.05,-1.855,-0.128832,0.050752,-1.02114,2
2024-06-14 08:03:27.783,-18.2,-38.22,-0.91,-0.12907599999999997,0.043188000000000004,-1.018456,2
2024-06-14 08:03:27.788,-18.025,-39.83,-0.49,-0.11907200000000001,0.039284,-1.0238239999999998,2
2024-06-14 08:03:27.793,-17.675,-40.6,-0.63,-0.12224399999999999,0.043432,-1.01748,2
2024-06-14 08:03:27.797,-17.009999999999998,-41.754999999999995,-0.49,-0.12932,0.050019999999999995,-1.0152839999999999,2
2024-06-14 08:03:27.802,-16.8,-43.644999999999996,-0.56,-0.130052,0.05246,-1.0128439999999999,2
2024-06-14 08:03:27.807,-15.75,-45.57,-0.42,-0.138836,0.062708,-1.018944,2
2024-06-14 08:03:27.812,-14.35,-46.83,-0.8049999999999999,-0.13517599999999996,0.062708,-1.012356,2
2024-06-14 08:03:27.817,-12.425,-47.915,-1.295,-0.11907200000000001,0.06709999999999999,-1.01504,2
2024-06-14 08:03:27.821,-9.94,-48.334999999999994,-1.4,-0.11321599999999998,0.06709999999999999,-1.0187,2
2024-06-14 08:03:27.826,-6.825,-48.650000000000006,-0.91,-0.108824,0.067832,-1.0187,2
2024-06-14 08:03:27.831,-5.215,-47.32,-0.98,-0.10272400000000001,0.06466,-1.0157720000000001,2
2024-06-14 08:03:27.836,-4.0600000000000005,-47.425,-1.33,-0.09418399999999999,0.060023999999999994,-1.0055239999999999,2
2024-06-14 08:03:27.841,-3.605,-46.480000000000004,-1.4700000000000002,-0.068076,0.052704,-1.0189439999999998,2
2024-06-14 08:03:27.846,-3.535,-46.935,-1.435,-0.046848,0.045628,-1.021384,2
2024-06-14 08:03:27.850,-3.8499999999999996,-45.325,-1.12,-0.05733999999999999,0.048068,-1.009428,2
2024-06-14 08:03:27.855,-4.27,-44.730000000000004,-0.595,-0.076372,0.054167999999999994,-0.9974719999999999,2
2024-06-14 08:03:27.860,-5.005,-43.785,-0.49,-0.07222400000000001,0.053680000000000005,-1.0047920000000001,2
2024-06-14 08:03:27.865,-4.97,-43.785,-0.45499999999999996,-0.0549,0.044652,-1.020896,2
2024-06-14 08:03:27.870,-5.425000000000001,-43.504999999999995,-0.595,-0.05124,0.038796,-1.019188,2
2024-06-14 08:03:27.874,-5.949999999999999,-43.12,-0.595,-0.050508,0.042212,-1.020896,2
2024-06-14 08:03:27.879,-5.705,-43.084999999999994,-0.8049999999999999,-0.052216,0.051972,-1.019188,2
2024-06-14 08:03:27.884,-5.109999999999999,-42.84,-1.155,-0.044408,0.05368,-1.013576,2
2024-06-14 08:03:27.886,-4.550000000000001,-42.21,-1.365,-0.039527999999999994,0.054900000000000004,-1.012112,2
2024-06-14 08:03:27.891,-4.27,-42.21,-1.505,-0.039040000000000005,0.052947999999999995,-1.00772,2
2024-06-14 08:03:27.896,-3.535,-41.51,-1.33,-0.032695999999999996,0.06368399999999999,-1.0035720000000001,2
2024-06-14 08:03:27.900,-2.8,-40.95,-1.6800000000000002,-0.035136,0.068808,-1.0030839999999999,2
2024-06-14 08:03:27.905,-1.82,-40.075,-1.75,-0.030744,0.076128,-1.002108,2
2024-06-14 08:03:27.910,-0.245,-39.06,-1.855,-0.022935999999999998,0.08125199999999999,-1.002108,2
2024-06-14 08:03:27.915,1.085,-39.2,-2.03,-0.023668,0.07442000000000001,-1.001376,2
2024-06-14 08:03:27.920,1.9949999999999999,-37.835,-1.96,-0.02196,0.07246799999999999,-0.9962519999999999,2
2024-06-14 08:03:27.925,2.31,-36.015,-2.0300000000000002,-0.011467999999999999,0.06783199999999999,-0.9957639999999999,2
2024-06-14 08:03:27.930,2.7649999999999997,-35.28,-2.135,0.007076,0.061487999999999994,-0.99308,2
2024-06-14 08:03:27.934,2.59,-33.11,-1.96,0.012199999999999999,0.063196,-0.986248,2
2024-06-14 08:03:27.939,2.17,-30.87,-1.7149999999999999,0.0060999999999999995,0.06636799999999998,-0.9803919999999999,2
2024-06-14 08:03:27.944,1.47,-28.700000000000003,-1.995,0.0075639999999999995,0.07075999999999999,-0.981368,2
2024-06-14 08:03:27.949,1.365,-26.985,-2.17,0.008296000000000001,0.069052,-0.986004,2
2024-06-14 08:03:27.954,1.33,-25.479999999999997,-2.38,0.014884000000000001,0.065636,-0.9901519999999999,2
2024-06-14 08:03:27.959,1.295,-25.095,-2.17,0.01586,0.061731999999999995,-0.9940559999999999,2
2024-06-14 08:03:27.963,1.4700000000000002,-23.064999999999998,-2.17,0.015616000000000001,0.065148,-0.992104,2
2024-06-14 08:03:27.968,-0.805,-11.97,-2.765,0.015616000000000001,0.06880799999999998,-0.9882,2
2024-06-14 08:03:27.973,2.0300000000000002,-20.125,-1.855,0.016348,0.06417199999999999,-0.9943,2
2024-06-14 08:03:27.978,1.7850000000000001,-19.04,-2.065,0.016348,0.057095999999999994,-0.99796,2
2024-06-14 08:03:27.983,1.365,-17.99,-2.1,0.017812,0.053924,-1.0018639999999999,2
2024-06-14 08:03:27.988,0.98,-16.729999999999997,-1.61,0.022935999999999998,0.054167999999999994,-0.99796,2
2024-06-14 08:03:27.993,0.315,-16.345,-1.26,0.020252,0.052704,-0.9882,2
2024-06-14 08:03:27.997,-0.805,-16.03,-1.085,0.01586,0.054655999999999996,-0.9889319999999999,2
2024-06-14 08:03:28.002,-1.785,-16.310000000000002,-1.05,0.010003999999999999,0.053924,-0.9962519999999999,2
2024-06-14 08:03:28.007,-2.835,-17.15,-1.085,0.009516,0.05734,-1.0057680000000002,2
2024-06-14 08:03:28.012,-3.29,-18.2,-0.945,0.01464,0.061488,-1.0084520000000001,2
2024-06-14 08:03:28.017,-4.0249999999999995,-19.11,-1.05,0.016592,0.051727999999999996,-1.009428,2
2024-06-14 08:03:28.022,-5.005000000000001,-20.895000000000003,-1.085,0.00488,0.051484,-1.012356,2
2024-06-14 08:03:28.026,-6.37,-22.4,-1.085,0.002196,0.052947999999999995,-1.02602,2
2024-06-14 08:03:28.031,-8.54,-24.36,-1.155,0.00976,0.054412,-1.0311439999999998,2
2024-06-14 08:03:28.036,-8.89,-25.9,-0.875,0.020496,0.066612,-1.026752,2
2024-06-14 08:03:28.041,-9.17,-25.83,-1.12,0.021471999999999998,0.07197999999999999,-1.0091839999999999,2
2024-06-14 08:03:28.046,-9.485,-25.13,-1.54,0.025132,0.061731999999999995,-1.01138,2
2024-06-14 08:03:28.051,-9.870000000000001,-24.43,-1.715,0.03172,0.069052,-1.01016,2
2024-06-14 08:03:28.056,-10.64,-23.345,-1.75,0.0427,0.062952,-0.994544,2
2024-06-14 08:03:28.060,-10.325,-23.1,-1.365,0.036844,0.064416,-1.00162,2
2024-06-14 08:03:28.065,-10.185,-22.54,-1.295,0.037088,0.069784,-1.005768,2
2024-06-14 08:03:28.070,-10.254999999999999,-22.12,-1.19,0.041235999999999995,0.07344400000000001,-1.0067439999999999,2
2024-06-14 08:03:28.075,-10.22,-21.244999999999997,-1.085,0.046848,0.077104,-1.005036,2
2024-06-14 08:03:28.080,-10.184999999999999,-20.265,-1.225,0.050996,0.080764,-0.99796,2
2024-06-14 08:03:28.085,-10.01,-19.32,-1.4,0.054167999999999994,0.08784,-0.994544,3
2024-06-14 08:03:28.089,-9.625,-17.955,-1.54,0.05245999999999999,0.08027599999999999,-0.9860039999999999,3
2024-06-14 08:03:28.094,-9.205,-16.415,-1.7850000000000001,0.054900000000000004,0.082228,-0.9877119999999999,3
2024-06-14 08:03:28.099,-8.855,-15.05,-2.0300000000000002,0.06222,0.079788,-0.98088,3
2024-06-14 08:03:28.104,-8.925,-13.79,-2.03,0.058072,0.07808,-0.9821,3
2024-06-14 08:03:28.109,-8.855,-12.95,-2.1,0.053192,0.08174000000000001,-0.982832,3
2024-06-14 08:03:28.114,-8.82,-12.530000000000001,-2.2750000000000004,0.048311999999999994,0.087352,-0.9877119999999999,3
2024-06-14 08:03:28.119,-8.26,-12.004999999999999,-2.625,0.047091999999999995,0.102236,-0.9889319999999999,3
2024-06-14 08:03:28.123,-7.49,-12.425,-3.185,0.044408,0.10125999999999999,-0.991128,3
2024-06-14 08:03:28.128,-6.895,-12.495000000000001,-3.605,0.047824,0.097844,-0.9974719999999999,3
2024-06-14 08:03:28.133,-6.404999999999999,-13.02,-3.885,0.054412,0.090036,-1.0079639999999999,3
2024-06-14 08:03:28.138,-6.055,-13.37,-3.92,0.05660799999999999,0.08174000000000001,-1.014796,3
2024-06-14 08:03:28.143,-5.495,-13.370000000000001,-3.92,0.057828,0.085644,-1.0126,3
2024-06-14 08:03:28.148,-4.445,-13.545,-3.885,0.052704,0.09272,-1.0072320000000001,3
2024-06-14 08:03:28.152,-3.29,-13.475,-4.095,0.055388,0.09759999999999999,-1.001376,3
2024-06-14 08:03:28.157,-1.68,-13.125,-4.445,0.055875999999999995,0.104676,-0.998204,3
2024-06-14 08:03:28.162,0.175,-12.705,-4.725,0.05612,0.113948,-0.9835639999999999,3
2024-06-14 08:03:28.167,2.3449999999999998,-11.934999999999999,-5.074999999999999,0.06368399999999999,0.113704,-0.97478,3
2024-06-14 08:03:28.172,4.6899999999999995,-10.885,-5.355,0.073444,0.114192,-0.967216,3
2024-06-14 08:03:28.177,6.895,-10.254999999999999,-5.46,0.075152,0.10858,-0.9681919999999999,3
2024-06-14 08:03:28.182,9.205,-9.485,-5.425,0.071492,0.09345200000000001,-0.9725839999999999,3
2024-06-14 08:03:28.186,10.99,-8.855,-5.6,0.06783199999999999,0.10467599999999999,-0.978196,3
2024-06-14 08:03:28.191,12.705,-8.190000000000001,-5.845,0.06636799999999998,0.096868,-0.9767319999999999,3
2024-06-14 08:03:28.196,13.93,-7.875,-6.09,0.062464,0.095892,-0.980392,3
2024-06-14 08:03:28.201,14.84,-8.120000000000001,-6.195,0.061976,0.088816,-0.98698,3
2024-06-14 08:03:28.206,15.434999999999999,-8.995000000000001,-6.475,0.05856,0.08857200000000001,-0.99918,3
2024-06-14 08:03:28.211,15.68,-9.870000000000001,-6.65,0.058803999999999995,0.081984,-1.01504,3
2024-06-14 08:03:28.215,15.54,-11.48,-6.86,0.056364,0.08417999999999999,-1.0274839999999998,3
2024-06-14 08:03:28.220,15.05,-13.23,-7.245,0.059292,0.079788,-1.031144,3
2024-06-14 08:03:28.225,14.035,-15.085,-7.35,0.060512,0.07124799999999999,-1.0372439999999998,3
2024-06-14 08:03:28.230,12.915,-17.465,-7.105,0.063928,0.055632,-1.044808,3
2024-06-14 08:03:28.235,11.864999999999998,-20.125,-6.755,0.05978,0.058072,-1.0653039999999998,3
2024-06-14 08:03:28.240,10.149999999999999,-22.89,-6.58,0.05978,0.064416,-1.0723799999999999,3
2024-06-14 08:03:28.245,8.19,-25.83,-6.79,0.057583999999999996,0.07417599999999999,-1.0579839999999998,3
2024-06-14 08:03:28.249,6.51,-28.560000000000002,-7.0,0.06612399999999999,0.071004,-1.061644,3
2024-06-14 08:03:28.254,5.005000000000001,-31.674999999999997,-7.035,0.073932,0.061975999999999996,-1.069452,3
2024-06-14 08:03:28.259,3.92,-35.07,-6.6850000000000005,0.077592,0.053191999999999996,-1.071648,3
2024-06-14 08:03:28.264,2.9749999999999996,-37.695,-6.265000000000001,0.076128,0.053436,-1.080432,3
2024-06-14 08:03:28.269,2.065,-40.25,-5.705,0.087352,0.048068,-1.0857999999999999,3
2024-06-14 08:03:28.274,2.065,-42.945,-5.32,0.08515600000000001,0.056119999999999996,-1.081896,3
2024-06-14 08:03:28.278,2.66,-44.8,-4.9,0.09101200000000001,0.058803999999999995,-1.0814080000000001,3
2024-06-14 08:03:28.283,4.2700000000000005,-47.285,-4.165,0.097356,0.052947999999999995,-1.083116,3
2024-06-14 08:03:28.288,3.465,-49.595,-3.92,0.09516,0.06417199999999999,-1.0862880000000001,3
2024-06-14 08:03:28.293,2.9050000000000002,-51.59,-3.535,0.102968,0.050019999999999995,-1.088972,3
2024-06-14 08:03:28.298,0.98,-52.675,-3.22,0.104432,0.072224,-1.087752,3
2024-06-14 08:03:28.303,0.35,-55.019999999999996,-3.22,0.108336,0.045871999999999996,-1.0887280000000001,3
2024-06-14 08:03:28.308,0.455,-57.785,-3.045,0.11346,0.050264,-1.091656,3
2024-06-14 08:03:28.312,0.455,-60.235,-3.045,0.112728,0.053924,-1.0982440000000002,3
2024-06-14 08:03:28.317,0.13999999999999999,-62.72,-2.8,0.11834,0.050264,-1.1016599999999999,3
2024-06-14 08:03:28.322,0.665,-62.09,-2.6950000000000003,0.12590400000000002,0.061487999999999994,-1.1094680000000001,3
2024-06-14 08:03:28.327,0.245,-63.839999999999996,-3.115,0.12566,0.077592,-1.123376,3
2024-06-14 08:03:28.332,-0.21,-64.575,-3.1849999999999996,0.12932,0.02928,-1.114836,3
2024-06-14 08:03:28.337,0.24500000000000002,-68.39,-1.54,0.131272,-0.015371999999999999,-1.158756,3
2024-06-14 08:03:28.341,-2.975,-73.08,-0.56,0.147864,0.155428,-1.1175199999999998,3
2024-06-14 08:03:28.346,3.57,-37.589999999999996,-2.24,0.127856,0.098576,-1.067012,3
2024-06-14 08:03:28.351,1.0150000000000001,-79.8,-2.0999999999999996,0.14274000000000003,0.01586,-1.157048,3
2024-06-14 08:03:28.356,0.28,-82.74000000000001,-2.485,0.15689199999999998,0.07197999999999999,-1.1470440000000002,3
2024-06-14 08:03:28.361,-3.185,-86.45,-2.8,0.16909199999999996,0.07344400000000001,-1.14314,3
2024-06-14 08:03:28.366,-3.185,-89.32,-2.205,0.169092,0.092476,-1.158512,3
2024-06-14 08:03:28.371,-6.965,-92.015,-3.1849999999999996,0.168116,0.09759999999999999,-1.157292,3
2024-06-14 08:03:28.375,-7.3149999999999995,-96.25,-4.2,0.183,0.07564,-1.1712,3
2024-06-14 08:03:28.380,-9.065000000000001,-99.33,-5.355,0.18958799999999998,0.09174399999999999,-1.1909640000000001,3
2024-06-14 08:03:28.385,-11.69,-104.65,-6.055,0.210084,0.170556,-1.204628,3
2024-06-14 08:03:28.390,-9.415,-106.715,-7.77,0.195444,0.12151199999999998,-1.181692,3
2024-06-14 08:03:28.395,-7.805,-109.41,-8.504999999999999,0.19251600000000002,0.072224,-1.235128,3
2024-06-14 08:03:28.400,-4.83,-114.205,-8.68,0.19446799999999997,0.10004,-1.226832,3
2024-06-14 08:03:28.404,-4.9350000000000005,-117.94999999999999,-9.66,0.203984,0.111508,-1.246108,3
2024-06-14 08:03:28.409,-5.705,-121.66,-10.5,0.21032800000000001,0.11565600000000001,-1.2883200000000001,3
2024-06-14 08:03:28.414,-7.105,-125.685,-11.55,0.212524,0.11516799999999999,-1.28344,3
2024-06-14 08:03:28.419,-6.6850000000000005,-130.165,-12.6,0.21862399999999999,0.098332,-1.28344,3
2024-06-14 08:03:28.424,-4.025,-144.585,-13.055,0.221796,0.095404,-1.2197559999999998,3
2024-06-14 08:03:28.429,-5.67,-142.135,-14.665,0.228384,0.07661599999999999,-1.343464,3
2024-06-14 08:03:28.437,-3.885,-149.73000000000002,-15.19,0.221552,0.093452,-1.345904,3
2024-06-14 08:03:28.441,-4.97,-156.73000000000002,-15.995000000000001,0.22106399999999998,0.07661599999999999,-1.33834,3
2024-06-14 08:03:28.446,-6.79,-163.275,-16.695,0.233752,0.048311999999999994,-1.34566,3
2024-06-14 08:03:28.451,-7.91,-171.07999999999998,-16.66,0.2562,0.046116000000000004,-1.3754279999999999,3
2024-06-14 08:03:28.456,-10.675,-178.465,-16.66,0.253272,0.050996,-1.3888479999999999,3
2024-06-14 08:03:28.461,-12.879999999999999,-187.14499999999998,-16.8,0.2501,0.060756000000000004,-1.3805519999999998,3
2024-06-14 08:03:28.465,-16.134999999999998,-195.755,-17.395,0.258152,0.084912,-1.39446,3
2024-06-14 08:03:28.470,-19.39,-205.345,-18.515,0.275964,0.072956,-1.406416,3
2024-06-14 08:03:28.475,-19.88,-214.79500000000002,-18.795,0.286944,0.060024,-1.4217879999999998,3
2024-06-14 08:03:28.480,-20.265,-226.695,-18.935000000000002,0.27083999999999997,0.082716,-1.4720520000000001,3
2024-06-14 08:03:28.485,-22.575,-234.36,-19.635,0.286212,0.10613999999999998,-1.524024,3
2024-06-14 08:03:28.490,-26.425,-243.005,-20.685000000000002,0.32012799999999997,0.12346399999999999,-1.585512,3
2024-06-14 08:03:28.494,-32.06,-252.76999999999998,-22.05,0.338916,0.135908,-1.5750199999999999,4
2024-06-14 08:03:28.499,-26.53,-262.745,-22.225,0.330132,0.07564,-1.619916,4
2024-06-14 08:03:28.504,-27.020000000000003,-267.78499999999997,-22.26,0.330864,0.104188,-1.669204,4
2024-06-14 08:03:28.509,-29.855,-273.385,-22.715,0.31598,0.12834399999999999,-1.6716440000000001,4
2024-06-14 08:03:28.514,-31.29,-281.855,-24.08,0.383324,0.10858000000000001,-1.600396,4
2024-06-14 08:03:28.518,-28.384999999999998,-290.885,-23.975,0.367464,0.176412,-1.72264,4
2024-06-14 08:03:28.523,-32.83,-292.635,-25.515,0.321592,0.210084,-1.738988,4
2024-06-14 08:03:28.528,-34.755,-294.77,-27.475,0.287432,0.2318,-1.680672,4
2024-06-14 08:03:28.533,-35.980000000000004,-299.845,-30.695,0.31598,0.24522,-1.6645679999999998,4
2024-06-14 08:03:28.538,-32.725,-307.405,-32.935,0.316956,0.282796,-1.633336,4
2024-06-14 08:03:28.543,-35.35,-311.85,-35.665,0.30012000000000005,0.377712,-1.680916,4
2024-06-14 08:03:28.547,-39.725,-316.47,-41.230000000000004,0.326472,0.477996,-1.637484,4
2024-06-14 08:03:28.552,-44.94,-319.795,-47.495000000000005,0.276208,0.46530799999999994,-1.6760359999999999,4
2024-06-14 08:03:28.557,-51.1,-320.81,-54.32,0.35672800000000005,0.473604,-1.6103999999999998,4
2024-06-14 08:03:28.562,-53.34,-325.29,-59.115,0.385764,0.51484,-1.5542799999999999,4
2024-06-14 08:03:28.567,-60.795,-330.61,-64.12,0.414556,0.602924,-1.4466759999999999,4
2024-06-14 08:03:28.571,-71.47,-337.085,-72.975,0.604144,0.614392,-1.3644479999999999,4
2024-06-14 08:03:28.576,-70.7,-334.145,-80.57,0.5953599999999999,0.5441199999999999,-1.5001120000000001,4
2024-06-14 08:03:28.581,-71.4,-324.87,-81.9,0.64904,0.489464,-1.4137359999999999,4
2024-06-14 08:03:28.586,-86.13499999999999,-320.985,-87.815,0.5958479999999999,0.5526599999999999,-1.371036,4
2024-06-14 08:03:28.591,-97.50999999999999,-313.46000000000004,-92.715,0.480192,0.558516,-1.330044,4
2024-06-14 08:03:28.596,-113.12,-306.18,-98.28,0.329644,0.549488,-1.242204,4
2024-06-14 08:03:28.600,-125.685,-296.03,-106.61,0.330376,0.503616,-1.2380559999999998,4
2024-06-14 08:03:28.605,-127.64500000000001,-285.91499999999996,-114.41499999999999,0.277916,0.430172,-1.24806,4
2024-06-14 08:03:28.610,-127.08500000000001,-279.405,-122.36,0.145668,0.373564,-1.1665640000000002,4
2024-06-14 08:03:28.615,-122.815,-271.425,-132.23000000000002,0.057096,0.348676,-1.0826280000000001,4
2024-06-14 08:03:28.620,-114.41499999999999,-261.31,-140.7,-0.08539999999999999,0.283528,-1.029436,4
2024-06-14 08:03:28.624,-107.765,-249.55,-148.505,-0.20008,0.26937599999999995,-0.972584,4
2024-06-14 08:03:28.629,-95.725,-233.94,-142.17000000000002,-0.285724,0.287188,-0.8866959999999999,4
2024-06-14 08:03:28.634,-73.95500000000001,-219.66000000000003,-114.275,0.058071999999999985,0.166896,-0.716872,4
2024-06-14 08:03:28.639,-63.629999999999995,-209.825,-94.99000000000001,0.294752,-0.051239999999999994,-0.91134,4
2024-06-14 08:03:28.644,-47.95,-162.12,-68.95,-0.154696,-0.090036,-1.001376,4
2024-06-14 08:03:28.649,-30.835,-110.53,-32.445,-0.555588,-0.034648,-0.6527000000000001,4
2024-06-14 08:03:28.653,-14.875,-67.41,2.695,-0.563396,-0.036356,-0.564128,4
2024-06-14 08:03:28.658,3.045,-25.865,31.115000000000002,-0.455548,-0.031232000000000003,-0.62952,4
2024-06-14 08:03:28.663,21.945,15.75,55.125,-0.4636,0.054655999999999996,-0.662704,4
2024-06-14 08:03:28.668,33.53,54.635000000000005,74.19999999999999,-0.509228,0.173484,-0.6402559999999999,4
2024-06-14 08:03:28.673,37.8,88.2,86.31,-0.49019599999999997,0.24790399999999999,-0.626592,4
2024-06-14 08:03:28.677,38.71,117.74000000000001,92.61,-0.461648,0.28181999999999996,-0.661728,4
2024-06-14 08:03:28.682,36.645,144.2,94.60499999999999,-0.441396,0.34233199999999997,-0.693936,4
2024-06-14 08:03:28.687,32.55,167.405,93.24000000000001,-0.418948,0.38283599999999995,-0.7102839999999999,4
2024-06-14 08:03:28.692,27.755,188.37,89.14500000000001,-0.398696,0.37551599999999996,-0.7285839999999999,4
2024-06-14 08:03:28.697,24.955,206.95499999999998,83.02,-0.37088,0.338184,-0.743956,4
2024-06-14 08:03:28.702,24.884999999999998,223.3,75.53,-0.357216,0.295972,-0.761036,4
2024-06-14 08:03:28.706,26.775,237.895,66.71000000000001,-0.35306800000000005,0.26083599999999996,-0.779092,4
2024-06-14 08:03:28.711,29.75,251.405,57.260000000000005,-0.35868,0.23619199999999999,-0.772504,4
2024-06-14 08:03:28.716,32.165,264.425,47.81,-0.376004,0.217404,-0.75762,4
2024-06-14 08:03:28.721,33.845,277.655,38.85,-0.371124,0.210084,-0.7512759999999999,4
2024-06-14 08:03:28.726,36.225,290.185,29.925,-0.357216,0.200568,-0.767868,4
2024-06-14 08:03:28.730,39.725,302.19,21.490000000000002,-0.34355199999999997,0.17055599999999999,-0.8078839999999999,4
2024-06-14 08:03:28.735,44.519999999999996,312.83000000000004,13.37,-0.33476799999999995,0.12321999999999998,-0.825696,4
2024-06-14 08:03:28.740,52.325,322.03499999999997,6.93,-0.32939999999999997,0.07686,-0.822768,4
2024-06-14 08:03:28.745,63.735,330.26,1.575,-0.327204,0.031964,-0.813008,4
2024-06-14 08:03:28.750,77.28,337.54,-2.31,-0.319152,0.0034159999999999998,-0.8181320000000001,4
2024-06-14 08:03:28.755,91.245,343.70000000000005,-5.355,-0.30890399999999996,-0.00854,-0.8325279999999999,4
2024-06-14 08:03:28.759,103.03999999999999,349.15999999999997,-7.84,-0.302072,0.009271999999999999,-0.837896,4
2024-06-14 08:03:28.764,110.53,354.16499999999996,-10.219999999999999,-0.28914000000000006,0.049532,-0.8461919999999999,4
2024-06-14 08:03:28.769,113.435,357.49,-12.774999999999999,-0.26644799999999996,0.102236,-0.8471679999999999,4
2024-06-14 08:03:28.774,111.685,357.63,-16.52,-0.21154799999999999,0.163724,-0.854488,4
2024-06-14 08:03:28.779,105.525,353.885,-22.05,-0.143228,0.226188,-0.874252,4
2024-06-14 08:03:28.783,95.2,347.025,-28.77,-0.09272,0.256688,-0.859856,4
2024-06-14 08:03:28.788,82.03999999999999,337.12,-34.685,-0.05489999999999999,0.281576,-0.814716,4
2024-06-14 08:03:28.793,67.55,324.24,-39.620000000000005,-0.015128,0.30012,-0.7993439999999999,4
2024-06-14 08:03:28.798,52.29,309.155,-43.61,0.030987999999999998,0.315492,-0.8239879999999999,4
2024-06-14 08:03:28.803,36.575,293.44,-46.269999999999996,0.06368399999999999,0.323544,-0.844972,4
2024-06-14 08:03:28.808,21.490000000000002,278.81,-46.55,0.035623999999999996,0.338916,-0.8832800000000001,4
2024-06-14 08:03:28.812,8.19,267.12,-43.89,-0.015128,0.332084,-0.9281759999999999,4
2024-06-14 08:03:28.817,-2.275,260.26,-37.974999999999994,-0.084668,0.30744000000000005,-0.9794160000000001,4
2024-06-14 08:03:28.822,-9.59,257.845,-28.805,-0.15298799999999999,0.27816,-1.0492,4
2024-06-14 08:03:28.827,-14.7,260.43499999999995,-16.975,-0.208376,0.265472,-1.122888,4
2024-06-14 08:03:28.832,-18.655,266.07,-3.045,-0.23424,0.26034799999999997,-1.187792,4
2024-06-14 08:03:28.837,-22.645,272.86,11.620000000000001,-0.23570399999999997,0.260104,-1.2539159999999998,4
2024-06-14 08:03:28.841,-27.195,279.72,26.075,-0.202032,0.27059599999999995,-1.302472,4
2024-06-14 08:03:28.846,-32.27,284.55,39.41,-0.146644,0.279868,-1.338828,4
2024-06-14 08:03:28.851,-37.59,287.7,51.345,-0.095648,0.28670000000000007,-1.3839679999999999,4
2024-06-14 08:03:28.856,-42.980000000000004,290.115,61.845,-0.065392,0.28792000000000006,-1.414712,4
2024-06-14 08:03:28.861,-47.739999999999995,291.865,71.155,-0.044407999999999996,0.289384,-1.44082,4
2024-06-14 08:03:28.865,-51.345,293.3,78.96000000000001,-0.034648,0.283772,-1.472296,4
2024-06-14 08:03:28.870,-54.285,294.805,85.155,-0.029036,0.278892,-1.5067,4
2024-06-14 08:03:28.875,-56.14,296.765,89.67,-0.024155999999999997,0.26888799999999996,-1.526952,4
2024-06-14 08:03:28.880,-56.595,298.34000000000003,92.715,-0.015372,0.251564,-1.556232,4
2024-06-14 08:03:28.885,-56.7,299.565,93.625,-0.004392,0.244732,-1.5872199999999999,4
2024-06-14 08:03:28.890,-56.945,300.545,92.19,0.002684,0.22399199999999997,-1.6177199999999998,4
2024-06-14 08:03:28.894,-57.084999999999994,301.385,88.69,0.015616000000000001,0.19032,-1.65066,4
2024-06-14 08:03:28.899,-55.510000000000005,302.015,83.825,0.042212,0.13639600000000002,-1.6897,4
2024-06-14 08:03:28.904,-51.730000000000004,301.77,78.225,0.080032,0.085644,-1.719468,4
2024-06-14 08:03:28.909,-46.129999999999995,300.755,71.995,0.120536,0.055144,-1.7504559999999998,4
2024-06-14 08:03:28.914,-40.6,299.145,64.85499999999999,0.15933199999999997,0.04758,-1.778028,4
2024-06-14 08:03:28.918,-35.945,296.8,56.84,0.188124,0.048068,-1.8051119999999998,4
2024-06-14 08:03:28.923,-32.69,294.77,48.370000000000005,0.20617999999999997,0.063196,-1.83854,4
2024-06-14 08:03:28.928,-29.785,292.845,39.97,0.226188,0.075152,-1.8658679999999999,4
2024-06-14 08:03:28.933,-26.495,290.42999999999995,32.305,0.244976,0.08174,-1.8890479999999998,4
2024-06-14 08:03:28.938,-22.435000000000002,287.315,25.375,0.27449999999999997,0.09516,-1.924428,4
2024-06-14 08:03:28.943,-18.060000000000002,283.885,19.775,0.318176,0.13664,-1.96786,4
2024-06-14 08:03:28.947,-15.05,280.56,15.96,0.365512,0.183244,-1.9939680000000002,4
2024-06-14 08:03:28.952,-15.365,277.16499999999996,13.055,0.405528,0.23863199999999998,-2.0242240000000002,4
2024-06-14 08:03:28.957,-18.619999999999997,274.225,11.445,0.454572,0.290604,-2.054968,4
2024-06-14 08:03:28.962,-23.275,271.075,11.129999999999999,0.5143519999999999,0.320372,-2.0671679999999997,4
2024-06-14 08:03:28.967,-28.0,267.19,12.74,0.576816,0.32842399999999994,-2.0769279999999997,4
2024-06-14 08:03:28.971,-32.515,262.605,15.96,0.650992,0.333304,-2.084736,4
2024-06-14 08:03:28.976,-36.19,257.355,20.439999999999998,0.72468,0.352092,-2.0603359999999995,4
2024-06-14 08:03:28.981,-39.69,250.70499999999998,25.9,0.795196,0.369904,-2.033984,4
2024-06-14 08:03:28.987,-44.135000000000005,243.25,31.535,0.86376,0.40015999999999996,-2.0071440000000003,4
2024-06-14 08:03:28.992,-50.26,234.675,36.785,0.941596,0.43724799999999997,-1.9822559999999998,4
2024-06-14 08:03:28.997,-58.1,224.91,41.3,1.02236,0.43944399999999995,-1.9498039999999999,4
2024-06-14 08:03:29.001,-65.66,213.885,45.535,1.0882399999999999,0.41260399999999997,-1.8990520000000002,4
2024-06-14 08:03:29.006,-72.66,201.635,49.769999999999996,1.1531440000000002,0.359656,-1.8392720000000002,4
2024-06-14 08:03:29.011,-77.735,188.37,53.795,1.2031640000000001,0.289384,-1.813408,4
2024-06-14 08:03:29.016,-81.55000000000001,175.84,57.19,1.235128,0.194712,-1.7809559999999998,4
2024-06-14 08:03:29.021,-82.35499999999999,164.92000000000002,60.165,1.246352,0.10467599999999999,-1.729472,4
2024-06-14 08:03:29.025,-81.16499999999999,155.435,62.230000000000004,1.269044,0.013663999999999997,-1.6833559999999999,4
2024-06-14 08:03:29.030,-78.25999999999999,147.035,63.21,1.322724,-0.069784,-1.638948,4
2024-06-14 08:03:29.035,-73.95500000000001,138.53,62.79,1.410076,-0.12932,-1.5840480000000001,4
2024-06-14 08:03:29.040,-68.285,128.625,61.04,1.522316,-0.181048,-1.520852,4
2024-06-14 08:03:29.045,-61.95,116.97,57.015,1.6443159999999999,-0.202276,-1.47254,4
2024-06-14 08:03:29.049,-56.28,104.195,50.54,1.77266,-0.21862399999999999,-1.428864,4
2024-06-14 08:03:29.054,-51.379999999999995,90.23,42.035,1.889292,-0.24082800000000001,-1.3746960000000001,4
2024-06-14 08:03:29.059,-46.935,75.63499999999999,32.165,1.984208,-0.29548399999999997,-1.3371199999999999,4
2024-06-14 08:03:29.064,-41.44,60.725,21.7,2.034472,-0.389668,-1.2988119999999999,4
2024-06-14 08:03:29.069,-33.425000000000004,45.605000000000004,11.83,2.039352,-0.49458799999999997,-1.2695319999999999,4
2024-06-14 08:03:29.073,-22.435000000000002,30.625,3.255,2.0008,-0.5977999999999999,-1.242692,4
2024-06-14 08:03:29.078,-8.540000000000001,16.275,-3.045,1.9337,-0.675636,-1.216828,4
2024-06-14 08:03:29.083,7.3149999999999995,3.045,-6.720000000000001,1.827072,-0.7139439999999999,-1.2019440000000001,4
2024-06-14 08:03:29.088,23.03,-9.135,-7.98,1.6897000000000002,-0.689056,-1.1868159999999999,4
2024-06-14 08:03:29.093,37.415,-19.915,-7.14,1.546228,-0.6185400000000001,-1.175592,4
2024-06-14 08:03:29.098,49.349999999999994,-28.979999999999997,-4.34,1.40788,-0.5241119999999999,-1.1455799999999998,4
2024-06-14 08:03:29.102,59.36,-36.925,-0.455,1.288076,-0.413336,-1.131672,4
2024-06-14 08:03:29.107,66.535,-42.945,4.655,1.1812040000000001,-0.271084,-1.119228,4
2024-06-14 08:03:29.112,69.545,-47.32,10.780000000000001,1.0845799999999999,-0.12858799999999998,-1.102636,4
2024-06-14 08:03:29.117,69.02000000000001,-50.33,17.85,1.004548,-0.015128,-1.0787240000000002,4
2024-06-14 08:03:29.122,65.87,-52.675,25.48,0.937936,0.058316,-1.06628,4
2024-06-14 08:03:29.126,73.185,-90.405,27.475,1.7848600000000001,1.004304,-1.474248,4
