time,gyroscope_x,gyroscope_y,gyroscope_z,accelerometer_x,accelerometer_y,accelerometer_z,phase
2024-06-14 12:41:55.953,-376.39,-621.18,7.56,4.52864,1.88124,-9.858576,1
2024-06-14 12:41:55.958,-227.5,-218.96,-6.86,-0.8740079999999999,0.311832,3.6956239999999996,1
2024-06-14 12:41:55.963,-200.13,-112.0,23.94,-1.528904,-1.4356959999999999,-0.68076,1
2024-06-14 12:41:55.967,-218.47,-27.79,24.36,-1.752896,-0.3538,-1.587952,1
2024-06-14 12:41:55.972,-172.13,34.37,20.65,-1.7616800000000001,0.236192,-1.638216,1
2024-06-14 12:41:55.977,-252.0,-35.07,1.96,0.07564,0.032208,-1.724592,1
2024-06-14 12:41:55.982,-172.83,-73.78,-22.19,1.067256,0.042944,-2.191608,1
2024-06-14 12:41:55.987,-106.4,-127.47,-43.4,1.130208,0.428464,-2.88408,1
2024-06-14 12:41:55.992,-83.44,-171.64,-41.65,0.549488,0.632448,-2.7728159999999997,1
2024-06-14 12:41:55.996,-57.61,-210.07,-18.06,0.026352,0.403576,-2.8796880000000002,1
2024-06-14 12:41:56.001,-54.95,-182.98,8.19,0.181536,0.515328,-2.564928,1
2024-06-14 12:41:56.006,-45.85,-144.55,22.75,0.318664,0.498736,-2.314096,1
2024-06-14 12:41:56.011,-40.11,-110.39,31.01,0.325984,0.117608,-1.897832,1
2024-06-14 12:41:56.016,-38.71,-99.26,28.91,0.23912,-0.15616,-1.652856,1
2024-06-14 12:41:56.021,-17.71,-93.1,14.35,0.14688800000000002,-0.248392,-1.518168,1
2024-06-14 12:41:56.025,-9.87,-87.08,-5.81,0.1464,-0.19178399999999998,-1.37372,1
2024-06-14 12:41:56.030,-1.89,-79.94,-21.35,0.110288,-0.09467199999999999,-1.245864,1
2024-06-14 12:41:56.035,1.12,-70.35,-24.78,0.07173600000000001,-0.0034159999999999998,-1.1028799999999999,2
2024-06-14 12:41:56.040,-4.13,-61.81,-17.64,0.035624,0.045872,-1.03212,2
2024-06-14 12:41:56.045,-3.64,-55.51,-6.37,0.023912,0.040504,-1.029192,2
2024-06-14 12:41:56.050,-4.9,-51.03,2.03,0.045872,0.0068319999999999995,-1.065304,2
2024-06-14 12:41:56.054,-3.08,-46.69,2.87,0.07173600000000001,-0.054168,-1.111664,2
2024-06-14 12:41:56.059,-0.91,-47.04,-2.24,0.090768,-0.062464,-1.140944,2
2024-06-14 12:41:56.064,-0.91,-45.01,-7.14,0.104432,-0.049775999999999994,-1.117032,2
2024-06-14 12:41:56.069,0.49,-42.7,-7.91,0.07173600000000001,-0.014152,-1.08824,2
2024-06-14 12:41:56.074,0.21,-40.67,-4.62,0.032695999999999996,0.0068319999999999995,-1.068232,2
2024-06-14 12:41:56.079,0.49,-39.34,-1.19,0.000488,0.013176,-1.0574959999999998,2
2024-06-14 12:41:56.083,1.4,-39.2,-0.07,0.00488,-0.018544,-1.0560319999999999,2
2024-06-14 12:41:56.088,1.61,-40.46,-1.05,0.000976,-0.040015999999999996,-1.051152,2
2024-06-14 12:41:56.093,1.61,-40.18,-2.17,0.013176,-0.04636,-1.050664,2
2024-06-14 12:41:56.098,0.91,-40.25,-1.26,0.007808,-0.018056000000000003,-1.050664,2
2024-06-14 12:41:56.103,0.63,-39.62,0.28,0.00732,-0.011224,-1.033096,2
2024-06-14 12:41:56.108,0.91,-38.36,1.26,0.01464,-0.020984,-1.033584,2
2024-06-14 12:41:56.112,1.4,-37.1,1.05,0.011224,-0.026352,-1.0287039999999998,2
2024-06-14 12:41:56.117,1.26,-35.98,0.7,0.009272,-0.034648,-1.0282159999999998,2
2024-06-14 12:41:56.122,1.19,-35.84,0.84,0.010248,-0.048312,-1.033584,2
2024-06-14 12:41:56.127,0.77,-35.84,1.47,0.00732,-0.0366,-1.041392,2
2024-06-14 12:41:56.132,0.42,-37.66,1.96,0.00244,-0.030744,-1.0384639999999998,2
2024-06-14 12:41:56.137,0.49,-35.84,1.89,0.012688,-0.034648,-1.032608,2
2024-06-14 12:41:56.143,0.28,-36.26,1.61,0.011712,-0.033184,-1.022848,2
2024-06-14 12:41:56.147,0.14,-36.05,1.75,0.023424,-0.032208,-1.021872,2
2024-06-14 12:41:56.152,-0.42,-35.77,1.82,0.02684,-0.040992,-1.01504,2
2024-06-14 12:41:56.157,-0.28,-34.79,1.96,0.030256,-0.045872,-1.0126,2
2024-06-14 12:41:56.162,-2.24,-24.29,2.17,0.031232,-0.034648,-1.001864,2
2024-06-14 12:41:56.167,-3.57,-40.81,1.96,0.033671999999999994,-0.028304,-1.0043039999999999,2
2024-06-14 12:41:56.171,-1.47,-37.17,1.47,0.033671999999999994,-0.037576,-1.006744,2
2024-06-14 12:41:56.176,-3.15,-34.58,1.12,0.037088,-0.037576,-1.010648,2
2024-06-14 12:41:56.181,-3.43,-38.43,1.61,0.03904,-0.040015999999999996,-1.007232,2
2024-06-14 12:41:56.186,-3.57,-32.48,2.38,0.041479999999999996,-0.04392,-1.0043039999999999,2
2024-06-14 12:41:56.191,-5.6,-31.64,3.15,0.043432000000000005,-0.049288,-0.9960079999999999,2
2024-06-14 12:41:56.196,-5.67,-30.94,3.01,0.048799999999999996,-0.042944,-0.992592,2
2024-06-14 12:41:56.200,-18.55,-65.24,2.94,0.058072,-0.045384,-0.9969839999999999,2
2024-06-14 12:41:56.205,-6.23,-35.63,3.08,0.052704,-0.039528,-1.003328,2
2024-06-14 12:41:56.210,-13.02,-32.2,3.15,0.059536,-0.034159999999999996,-0.998448,2
2024-06-14 12:41:56.215,-12.25,-32.2,3.36,0.06783199999999999,-0.027816,-1.001376,2
2024-06-14 12:41:56.220,-18.41,-23.94,3.43,0.064416,-0.000488,-0.9940559999999999,2
2024-06-14 12:41:56.225,22.33,45.85,1.96,0.073688,-0.015616,-0.9901519999999999,2
2024-06-14 12:41:56.229,-6.93,-32.27,2.66,0.0732,-0.014152,-0.9940559999999999,2
2024-06-14 12:41:56.234,-10.43,-30.73,2.8,0.075152,-0.012688,-0.999424,2
2024-06-14 12:41:56.239,-14.28,-31.08,2.17,0.084424,-0.000976,-0.9989359999999999,2
2024-06-14 12:41:56.244,-5.04,-31.22,1.26,0.078568,-0.005368,-1.005768,2
2024-06-14 12:41:56.249,-11.55,-32.06,0.63,0.08052,-0.010248,-0.99552,2
2024-06-14 12:41:56.254,-7.0,-31.78,0.84,0.085888,-0.013663999999999999,-1.00772,2
2024-06-14 12:41:56.258,-7.49,-35.0,1.05,0.09028,-0.019032,-1.0140639999999999,2
2024-06-14 12:41:56.263,-9.94,-35.07,0.91,0.084424,-0.027816,-1.006256,2
2024-06-14 12:41:56.268,-7.49,-36.19,0.63,0.08637600000000001,-0.023424,-1.007232,2
2024-06-14 12:41:56.273,-10.29,-36.89,0.21,0.091256,-0.02196,-1.016992,2
2024-06-14 12:41:56.278,-10.43,-37.94,0.35,0.103456,-0.02196,-1.018456,2
2024-06-14 12:41:56.283,-10.85,-37.1,0.56,0.101992,-0.024399999999999998,-1.01016,2
2024-06-14 12:41:56.287,-12.74,-38.22,0.49,0.10052799999999999,-0.016104,-1.0096720000000001,2
2024-06-14 12:41:56.292,-11.34,-38.92,0.28,0.106384,-0.00976,-1.0096720000000001,2
2024-06-14 12:41:56.297,-11.76,-39.69,0.07,0.108336,-0.008296,-1.012112,2
2024-06-14 12:41:56.302,-10.64,-39.06,-0.14,0.113704,-0.005856,-1.010648,2
2024-06-14 12:41:56.307,-8.75,-35.77,-0.42,0.11956,-0.000488,-1.00772,2
2024-06-14 12:41:56.312,-8.96,-38.15,-0.35,0.120536,-0.000488,-1.0043039999999999,2
2024-06-14 12:41:56.316,-6.86,-38.71,-0.49,0.119072,0.0034159999999999998,-1.018456,2
2024-06-14 12:41:56.321,-4.62,-38.78,-0.84,0.12736799999999998,0.0,-1.02236,2
2024-06-14 12:41:56.326,-4.06,-38.5,-1.4,0.125416,-0.0034159999999999998,-1.025288,2
2024-06-14 12:41:56.331,-3.01,-39.83,-1.54,0.125416,-0.010248,-1.030656,2
2024-06-14 12:41:56.336,-1.75,-41.86,-1.4,0.13419999999999999,0.0,-1.0365119999999999,2
2024-06-14 12:41:56.341,0.07,-43.68,-1.33,0.133712,-0.00976,-1.0438319999999999,2
2024-06-14 12:41:56.345,3.01,-44.45,-1.19,0.136152,-0.003904,-1.03212,2
2024-06-14 12:41:56.350,10.29,-46.34,-0.49,0.147864,0.012688,-0.99308,2
2024-06-14 12:41:56.355,31.22,-51.87,1.54,0.13810399999999998,0.007808,-1.063352,2
2024-06-14 12:41:56.360,32.2,-52.71,2.66,0.145424,-0.051728,-1.2561120000000001,2
2024-06-14 12:41:56.365,18.55,-44.24,1.33,0.15372,-0.038064,-1.121424,2
2024-06-14 12:41:56.370,16.66,-43.26,0.63,0.153232,-0.017567999999999997,-1.0555439999999998,2
2024-06-14 12:41:56.374,16.73,-41.65,0.77,0.156648,-0.035624,-1.051152,2
2024-06-14 12:41:56.379,15.89,-41.09,0.28,0.162016,-0.039528,-1.100928,2
2024-06-14 12:41:56.384,17.36,-40.18,-0.07,0.16835999999999998,-0.033184,-1.0482239999999998,2
2024-06-14 12:41:56.389,17.57,-39.69,-0.35,0.17079999999999998,-0.0068319999999999995,-1.0579839999999998,2
2024-06-14 12:41:56.394,19.25,-39.62,-0.49,0.17079999999999998,-0.02684,-1.05652,2
2024-06-14 12:41:56.399,19.32,-39.62,-0.49,0.172264,-0.030744,-1.0789680000000001,2
2024-06-14 12:41:56.403,21.0,-40.67,-0.35,0.177144,-0.029768,-1.0950719999999998,2
2024-06-14 12:41:56.408,20.16,-41.72,-0.49,0.17324,-0.030744,-1.1248399999999998,2
2024-06-14 12:41:56.413,20.23,-45.01,-0.35,0.17568,-0.05368,-1.176568,2
2024-06-14 12:41:56.418,20.09,-49.14,0.21,0.174216,-0.060512,-1.159,2
2024-06-14 12:41:56.423,19.32,-54.95,0.91,0.174216,-0.076616,-1.25172,2
2024-06-14 12:41:56.428,17.64,-60.9,1.61,0.170312,-0.08295999999999999,-1.266848,2
2024-06-14 12:41:56.432,17.57,-66.64,2.66,0.181536,-0.073688,-1.2780719999999999,2
2024-06-14 12:41:56.437,17.29,-73.36,3.22,0.17568,-0.060512,-1.328824,2
2024-06-14 12:41:56.442,16.94,-80.15,3.78,0.179096,-0.066856,-1.331264,2
2024-06-14 12:41:56.447,16.73,-87.36,4.34,0.17812,-0.06490399999999999,-1.3542,2
2024-06-14 12:41:56.452,16.17,-95.62,4.62,0.17616800000000002,-0.05124,-1.338584,2
2024-06-14 12:41:56.457,17.64,-102.48,4.83,0.171288,-0.027816,-1.355176,2
2024-06-14 12:41:56.461,16.94,-110.18,4.55,0.203496,-0.041479999999999996,-1.4156879999999998,2
2024-06-14 12:41:56.466,18.83,-119.28,5.11,0.191296,-0.078568,-1.43716,2
2024-06-14 12:41:56.471,17.92,-128.45,5.67,0.179096,-0.051728,-1.4254479999999998,2
2024-06-14 12:41:56.476,15.68,-137.34,5.95,0.20984,-0.094184,-1.441552,2
2024-06-14 12:41:56.481,14.28,-148.68,7.35,0.18934399999999998,-0.13078399999999998,-1.568432,2
2024-06-14 12:41:56.486,12.53,-160.86,9.03,0.20154399999999997,-0.137616,-1.570872,2
2024-06-14 12:41:56.490,10.01,-175.28,10.99,0.159576,-0.14688800000000002,-1.6338240000000002,2
2024-06-14 12:41:56.495,6.72,-188.65,12.88,0.180072,-0.174704,-1.61772,3
2024-06-14 12:41:56.500,3.85,-203.0,15.19,0.183,-0.165432,-1.641144,3
2024-06-14 12:41:56.505,3.99,-214.76,17.22,0.18544,-0.11223999999999999,-1.638704,3
2024-06-14 12:41:56.510,4.06,-228.76,17.43,0.184464,-0.0068319999999999995,-1.745576,3
2024-06-14 12:41:56.515,2.03,-244.51,16.24,0.183,-0.04392,-1.825608,3
2024-06-14 12:41:56.519,2.1,-261.31,16.87,0.17860800000000002,-0.124928,-1.9642,3
2024-06-14 12:41:56.524,-2.8,-279.58,18.83,0.147376,-0.208376,-2.02032,3
2024-06-14 12:41:56.529,-8.05,-299.04,21.84,0.127856,-0.27376799999999996,-2.082296,3
2024-06-14 12:41:56.534,-14.98,-320.11,26.32,0.113216,-0.305976,-2.068632,3
2024-06-14 12:41:56.539,-18.41,-339.57,30.1,0.147864,-0.253272,-2.1106,3
2024-06-14 12:41:56.544,-24.85,-363.51,32.2,0.14103200000000002,-0.210816,-2.227232,3
2024-06-14 12:41:56.548,-27.79,-393.47,34.09,0.14688800000000002,-0.18934399999999998,-2.3589919999999998,3
2024-06-14 12:41:56.553,-31.5,-409.78,35.7,0.136152,-0.19276,-2.773304,3
2024-06-14 12:41:56.558,-36.26,-429.38,36.05,0.16738399999999998,-0.21862399999999999,-2.839184,3
2024-06-14 12:41:56.563,-33.6,-453.32,36.12,0.16348,-0.25473599999999996,-2.924584,3
2024-06-14 12:41:56.568,-27.23,-471.8,35.07,0.284992,-0.25376,-3.0963600000000002,3
2024-06-14 12:41:56.573,-21.42,-488.81,35.14,0.374296,-0.155672,-3.25252,3
2024-06-14 12:41:56.577,-19.25,-496.79,31.57,0.35965600000000003,-0.066856,-3.43796,3
2024-06-14 12:41:56.582,-18.69,-504.63,28.21,0.33183999999999997,-0.060512,-3.427224,3
2024-06-14 12:41:56.587,-19.67,-508.83,25.41,0.321104,-0.096136,-3.319864,3
2024-06-14 12:41:56.592,-13.37,-511.98,20.93,0.314272,-0.168848,-3.297904,3
2024-06-14 12:41:56.597,-3.85,-513.45,19.6,0.352824,-0.213256,-3.1490639999999996,3
2024-06-14 12:41:56.602,4.06,-507.01,20.09,0.13907999999999998,-0.179584,-3.0134000000000003,3
2024-06-14 12:41:56.606,6.51,-496.23,18.62,-0.198616,-0.122488,-2.862608,3
2024-06-14 12:41:56.611,11.55,-481.74,17.57,-0.528504,-0.177632,-2.746464,3
2024-06-14 12:41:56.616,17.64,-469.07,19.11,-0.907192,-0.23912,-2.580056,3
2024-06-14 12:41:56.621,25.62,-457.87,22.96,-1.26636,-0.397232,-2.4614719999999997,4
2024-06-14 12:41:56.626,33.53,-456.82,29.89,-1.6713999999999998,-0.567056,-2.638616,4
2024-06-14 12:41:56.631,50.68,-460.04,38.64,-2.0500879999999997,-0.62464,-2.5576079999999997,4
2024-06-14 12:41:56.635,70.21,-450.31,51.45,-2.1164560000000003,-0.574864,-2.201368,4
2024-06-14 12:41:56.640,95.55,-447.44,70.7,-1.9905519999999999,-0.45139999999999997,-1.6430960000000001,4
2024-06-14 12:41:56.645,104.72,-431.76,92.33,-1.394704,-0.739808,0.20251999999999998,4
2024-06-14 12:41:56.650,79.87,-351.61,101.78,-1.0755519999999998,-0.680272,0.685152,4
2024-06-14 12:41:56.655,116.2,-254.03,104.37,-1.2048720000000002,-0.186904,0.86132,4
2024-06-14 12:41:56.660,140.84,-123.9,101.36,-1.630896,-0.156648,-0.022448,4
2024-06-14 12:41:56.664,158.9,-53.2,90.23,-1.666032,-0.0366,-0.426024,4
2024-06-14 12:41:56.669,150.01,35.98,75.32,-1.44448,0.050752,-2.417064,4
2024-06-14 12:41:56.674,97.58,158.97,52.99,-1.31028,0.301584,-1.1248399999999998,4
2024-06-14 12:41:56.679,50.61,212.87,30.1,-1.245864,0.421144,-1.04432,4
2024-06-14 12:41:56.684,3.64,247.8,8.19,-1.159488,0.41968,-0.998448,4
2024-06-14 12:41:56.689,-40.25,269.78,-9.8,-1.020408,0.308904,-0.993568,4
2024-06-14 12:41:56.693,-78.19,279.86,-22.4,-0.881328,0.168848,-0.9921039999999999,4
2024-06-14 12:41:56.698,-103.95,283.36,-29.82,-0.77836,0.010248,-0.975024,4
2024-06-14 12:41:56.703,-118.72,283.78,-32.27,-0.6993039999999999,-0.160552,-0.897432,4
2024-06-14 12:41:56.708,-122.01,284.27,-30.59,-0.648552,-0.312808,-0.789584,4
2024-06-14 12:41:56.713,-116.41,286.93,-25.97,-0.613904,-0.416264,-0.672952,4
2024-06-14 12:41:56.718,-103.46,292.88,-18.97,-0.594872,-0.489952,-0.6095119999999999,4
2024-06-14 12:41:56.722,-85.05,301.14,-10.29,-0.5675439999999999,-0.5426559999999999,-0.596336,4
2024-06-14 12:41:56.727,-64.4,309.05,-0.56,-0.5416799999999999,-0.5572959999999999,-0.612928,4
2024-06-14 12:41:56.732,-43.89,316.47,9.38,-0.5143519999999999,-0.5246000000000001,-0.647088,4
2024-06-14 12:41:56.737,-25.83,323.33,18.69,-0.496784,-0.46848,-0.676368,4
2024-06-14 12:41:56.742,-12.25,328.93,26.81,-0.47433600000000004,-0.40064799999999995,-0.7076,4
2024-06-14 12:41:56.747,-4.27,333.06,33.25,-0.445056,-0.321104,-0.74176,4
2024-06-14 12:41:56.751,-1.26,335.3,37.94,-0.42212,-0.244976,-0.782752,4
2024-06-14 12:41:56.756,-2.59,336.91,41.02,-0.392352,-0.181536,-0.819352,4
2024-06-14 12:41:56.761,-6.23,337.61,42.35,-0.37576,-0.13956799999999997,-0.848144,4
2024-06-14 12:41:56.766,-10.36,337.68,42.21,-0.357704,-0.121512,-0.8740079999999999,4
2024-06-14 12:41:56.771,-13.44,337.68,41.16,-0.342576,-0.128832,-0.89548,4
2024-06-14 12:41:56.776,-14.07,338.94,39.34,-0.33183999999999997,-0.14347200000000002,-0.9213439999999999,4
2024-06-14 12:41:56.780,-11.27,340.34,36.82,-0.324032,-0.16835999999999998,-0.95404,4
2024-06-14 12:41:56.785,-5.6,342.93,33.67,-0.306464,-0.17616800000000002,-0.994544,4
2024-06-14 12:41:56.790,1.33,345.52,29.89,-0.28889600000000004,-0.176656,-1.0360239999999998,4
2024-06-14 12:41:56.795,8.75,347.62,25.41,-0.27327999999999997,-0.169336,-1.0853119999999998,4
2024-06-14 12:41:56.800,15.82,349.44,20.3,-0.258152,-0.161528,-1.1443599999999998,4
2024-06-14 12:41:56.805,22.19,350.49,14.63,-0.23716800000000002,-0.16104,-1.197552,4
2024-06-14 12:41:56.809,27.23,351.4,8.75,-0.216184,-0.15128,-1.24928,4
2024-06-14 12:41:56.814,31.85,351.75,2.59,-0.19666399999999998,-0.14347200000000002,-1.306376,4
2024-06-14 12:41:56.819,35.7,352.24,-3.64,-0.177632,-0.14347200000000002,-1.365912,4
2024-06-14 12:41:56.824,39.27,352.38,-9.52,-0.161528,-0.14591200000000001,-1.42984,4
2024-06-14 12:41:56.829,42.42,352.94,-15.26,-0.14396,-0.144936,-1.502064,4
2024-06-14 12:41:56.834,45.99,353.99,-20.72,-0.12444,-0.149816,-1.587952,4
2024-06-14 12:41:56.838,49.42,356.02,-27.02,-0.09759999999999999,-0.14396,-1.657248,4
2024-06-14 12:41:56.843,53.06,358.96,-33.95,-0.079544,-0.142984,-1.707512,4
2024-06-14 12:41:56.848,56.91,362.18,-41.09,-0.057583999999999996,-0.13663999999999998,-1.7660719999999999,4
2024-06-14 12:41:56.853,60.34,365.47,-47.53,-0.029768,-0.127856,-1.8378079999999999,4
2024-06-14 12:41:56.858,62.86,367.71,-53.83,0.0068319999999999995,-0.11956,-1.92028,4
2024-06-14 12:41:56.863,64.12,369.67,-59.99,0.037088,-0.098088,-2.0095840000000003,4
2024-06-14 12:41:56.867,64.19,370.23,-66.43,0.066368,-0.083936,-2.094496,4
2024-06-14 12:41:56.872,63.07,369.74,-73.01,0.08686400000000001,-0.074176,-2.184776,4
2024-06-14 12:41:56.877,60.9,368.76,-80.22,0.098576,-0.073688,-2.295064,4
2024-06-14 12:41:56.882,58.45,367.5,-88.13,0.096624,-0.110288,-2.452688,4
2024-06-14 12:41:56.887,54.88,366.17,-96.74,0.085888,-0.210816,-2.6366639999999997,4
2024-06-14 12:41:56.892,47.11,367.36,-106.96,0.12932,-0.25376,-2.708888,4
2024-06-14 12:41:56.896,45.01,371.35,-119.21,0.20105599999999998,-0.28011199999999997,-2.7367039999999996,4
2024-06-14 12:41:56.901,49.91,378.28,-131.6,0.29133600000000004,-0.328912,-2.7898959999999997,4
2024-06-14 12:41:56.906,56.7,388.22,-142.45,0.420168,-0.40211199999999997,-2.8728559999999996,4
2024-06-14 12:41:56.911,61.32,397.39,-150.5,0.545584,-0.48068,-2.994368,4
2024-06-14 12:41:56.916,56.77,405.93,-157.57,0.86864,-0.386496,-2.77916,4
2024-06-14 12:41:56.921,63.28,410.55,-162.4,0.986736,-0.28792,-2.9089679999999998,4
2024-06-14 12:41:56.925,87.71,412.02,-158.83,1.118984,-0.28450400000000003,-3.090016,4
2024-06-14 12:41:56.930,96.53,408.52,-152.32,1.364936,-0.203984,-3.232024,4
2024-06-14 12:41:56.935,86.45,399.21,-146.58,1.6401679999999998,-0.14103200000000002,-3.332552,4
2024-06-14 12:41:56.940,64.33,386.12,-140.49,1.8939279999999998,-0.090768,-3.369152,4
2024-06-14 12:41:56.945,38.99,372.19,-133.63,2.058872,-0.05856,-3.2959519999999998,4
2024-06-14 12:41:56.950,14.98,357.7,-127.61,2.146224,-0.048312,-3.11588,4
2024-06-14 12:41:56.954,-2.24,344.33,-123.48,2.220888,-0.055144,-2.85968,4
2024-06-14 12:41:56.959,-10.92,332.08,-119.63,2.2691999999999997,-0.088816,-2.5849360000000003,4
2024-06-14 12:41:56.964,-14.7,318.01,-112.84,2.379976,-0.169336,-2.3882719999999997,4
2024-06-14 12:41:56.969,-17.01,304.22,-100.59,2.628856,-0.382592,-2.221864,4
2024-06-14 12:41:56.974,-25.48,291.13,-80.08,2.9275119999999997,-0.630008,-2.062288,4
2024-06-14 12:41:56.979,-37.8,277.06,-51.87,3.27936,-0.9281759999999999,-1.8778240000000002,4
2024-06-14 12:41:56.983,-43.26,261.24,-16.59,3.7180720000000003,-1.178032,-1.58844,4
2024-06-14 12:41:56.988,-34.23,247.73,23.1,4.203144,-1.18096,-1.267824,4
2024-06-14 12:41:56.993,-2.1,230.86,63.35,4.646736,-0.98332,-0.99796,4
2024-06-14 12:41:56.998,48.72,207.06,100.45,4.990288,-0.730048,-0.855952,4
2024-06-14 12:41:57.003,100.59,174.16,130.83,5.242095999999999,-0.40552799999999994,-0.8642479999999999,4
2024-06-14 12:41:57.008,131.32,131.32,158.34,5.2972399999999995,-0.02684,-0.96624,4
2024-06-14 12:41:57.012,142.66,78.89,166.67,5.27772,0.366488,-1.0091839999999999,4
2024-06-14 12:41:57.017,121.52,21.35,171.99,4.972232,0.639768,-0.9950319999999999,4
2024-06-14 12:41:57.022,80.22,-31.78,172.41,4.560848,0.8061759999999999,-0.9437920000000001,4
2024-06-14 12:41:57.027,30.87,-76.37,167.65,4.131408,0.8583919999999999,-0.969168,4
2024-06-14 12:41:57.032,-17.22,-109.83,157.36,3.723928,0.822768,-1.137528,4
2024-06-14 12:41:57.037,-55.79,-132.02,141.61,3.350608,0.738832,-1.344928,4
2024-06-14 12:41:57.041,-83.72,-142.8,121.03,3.02316,0.60268,-1.507432,4
2024-06-14 12:41:57.046,-102.48,-143.5,97.44,2.7196239999999996,0.47092,-1.615768,4
2024-06-14 12:41:57.051,-360.85,-457.1,37.59,-1.9437039999999999,1.958344,-11.94624,4
