time,gyroscope_x,gyroscope_y,gyroscope_z,accelerometer_x,accelerometer_y,accelerometer_z,phase
2024-06-14 08:15:27.064,161.84,-215.14499999999998,45.36,3.63316,-0.16714,-2.97192,1
2024-06-14 08:15:27.069,163.275,-221.26999999999998,16.240000000000002,2.8042920000000002,0.11175199999999999,-0.304024,1
2024-06-14 08:15:27.075,213.60500000000002,-265.3,-17.605,2.2367479999999995,0.5441199999999999,-0.335744,1
2024-06-14 08:15:27.080,213.29,-270.76,-38.29,1.6516359999999999,-0.182756,-1.458876,1
2024-06-14 08:15:27.085,273.875,-228.79500000000002,-36.504999999999995,0.386008,-0.020496,-1.211948,1
2024-06-14 08:15:27.089,223.57999999999998,-234.745,-32.515,-0.27083999999999997,-0.13785999999999998,-1.432524,1
2024-06-14 08:15:27.094,161.07,-208.565,-20.825,-0.431636,0.053924,-1.597712,1
2024-06-14 08:15:27.099,109.9,-192.885,-6.86,-0.449204,0.068808,-1.9781080000000002,1
2024-06-14 08:15:27.104,102.655,-192.605,6.58,-0.144692,0.059536,-1.9986039999999998,1
2024-06-14 08:15:27.109,88.095,-206.64,11.83,0.028791999999999998,-0.111264,-2.28628,1
2024-06-14 08:15:27.113,68.25,-225.05,15.26,0.16714,-0.211792,-2.186728,1
2024-06-14 08:15:27.118,52.36,-224.98000000000002,17.675,0.010736,-0.31988399999999995,-2.257244,1
2024-06-14 08:15:27.123,41.894999999999996,-213.85000000000002,15.96,0.016347999999999998,-0.435296,-2.347768,1
2024-06-14 08:15:27.128,22.05,-184.415,5.285,0.055144,-0.413336,-2.195756,1
2024-06-14 08:15:27.133,12.145,-150.115,-6.545,0.117364,-0.24912399999999998,-2.088884,1
2024-06-14 08:15:27.137,4.445,-123.375,-13.86,0.14688800000000002,-0.11004399999999999,-1.839272,1
2024-06-14 08:15:27.142,2.835,-106.08500000000001,-15.260000000000002,0.14029999999999998,0.012688,-1.71288,1
2024-06-14 08:15:27.147,-3.08,-79.44999999999999,-12.495000000000001,0.141032,0.096624,-1.6528559999999999,1
2024-06-14 08:15:27.152,3.395,-60.06,-3.92,0.139812,0.24570799999999998,-1.5535479999999997,1
2024-06-14 08:15:27.157,9.66,-57.19,6.475,0.035868,0.268888,-1.306864,1
2024-06-14 08:15:27.161,17.675,-57.225,9.344999999999999,0.065636,0.123708,-1.2709959999999998,1
2024-06-14 08:15:27.166,22.61,-55.265,8.925,0.031232000000000003,0.032452,-1.160708,1
2024-06-14 08:15:27.171,24.535,-48.405,7.279999999999999,0.00122,-0.027815999999999997,-1.067988,1
2024-06-14 08:15:27.176,23.73,-37.485,4.095,0.013176,-0.038064,-1.043588,1
2024-06-14 08:15:27.181,24.605,-27.965,2.59,0.027084,0.011467999999999999,-1.0309,1
2024-06-14 08:15:27.186,25.095,-20.685000000000002,1.82,0.08149599999999999,0.045384,-1.05652,1
2024-06-14 08:15:27.190,26.74,-15.715,3.185,0.018543999999999998,0.040260000000000004,-1.0870199999999999,1
2024-06-14 08:15:27.195,29.259999999999998,-13.754999999999999,2.8,0.022935999999999998,-0.005368000000000001,-1.144848,1
2024-06-14 08:15:27.200,28.14,-15.75,2.0300000000000002,0.02074,-0.058072,-1.1614400000000002,1
2024-06-14 08:15:27.205,23.520000000000003,-19.32,1.995,-0.012931999999999999,-0.078324,-1.159244,1
2024-06-14 08:15:27.210,18.34,-21.805,2.38,-0.029036,-0.050996,-1.160952,1
2024-06-14 08:15:27.214,14.315,-24.884999999999998,2.205,-0.035868,-0.034892000000000006,-1.155584,2
2024-06-14 08:15:27.219,11.655,-26.32,1.26,-0.036356,-0.016347999999999998,-1.1189839999999998,2
2024-06-14 08:15:27.224,9.415,-27.65,0.42,-0.022692,-0.020984,-1.113372,2
2024-06-14 08:15:27.229,6.93,-29.855,0.14,-0.0366,-0.022692,-1.100196,2
2024-06-14 08:15:27.234,4.585,-32.935,-0.5249999999999999,-0.042943999999999996,-0.020252,-1.1089799999999999,2
2024-06-14 08:15:27.238,3.01,-36.505,-1.3650000000000002,-0.042456,-0.019032,-1.116056,2
2024-06-14 08:15:27.243,1.225,-38.92,-1.925,-0.034648,-0.014151999999999998,-1.113616,2
2024-06-14 08:15:27.248,-0.875,-41.055,-2.2750000000000004,-0.026352,-0.017324,-1.1101999999999999,2
2024-06-14 08:15:27.253,-3.29,-43.05,-2.2750000000000004,-0.026352,-0.027083999999999997,-1.114104,2
2024-06-14 08:15:27.258,-6.125,-45.64,-2.135,-0.027816,-0.0305,-1.107272,2
2024-06-14 08:15:27.263,-8.89,-47.705,-2.3449999999999998,-0.036844,-0.029036,-1.101172,2
2024-06-14 08:15:27.267,-11.165,-50.05,-2.4850000000000003,-0.033916,-0.020984000000000003,-1.1016599999999999,2
2024-06-14 08:15:27.272,-13.23,-52.605000000000004,-2.695,-0.025376,-0.013663999999999999,-1.097756,2
2024-06-14 08:15:27.277,-14.665,-54.18,-2.9749999999999996,-0.014396,-0.020984000000000003,-1.090436,2
2024-06-14 08:15:27.282,-16.17,-55.754999999999995,-2.87,-0.006588,-0.023912,-1.080432,2
2024-06-14 08:15:27.287,-17.535,-56.14,-2.87,-0.0002440000000000003,-0.016348,-1.077992,2
2024-06-14 08:15:27.291,-18.83,-56.035,-2.66,0.00732,-0.020252,-1.074576,2
2024-06-14 08:15:27.296,-19.740000000000002,-55.93,-2.205,0.011224,-0.010248,-1.0723799999999999,2
2024-06-14 08:15:27.301,-19.285,-56.35,-1.785,0.009028,0.00048799999999999994,-1.072136,2
2024-06-14 08:15:27.306,-18.445,-57.504999999999995,-1.435,0.013176,0.00732,-1.062132,2
2024-06-14 08:15:27.311,-17.325000000000003,-55.51,-1.505,0.016835999999999997,0.030988,-1.0579839999999998,2
2024-06-14 08:15:27.315,-12.95,-54.425,-1.575,0.017811999999999998,0.035136,-1.050176,2
2024-06-14 08:15:27.320,-9.625,-53.655,-1.575,0.024399999999999998,0.057096,-1.05652,2
2024-06-14 08:15:27.325,-4.55,-55.019999999999996,-1.6099999999999999,0.027572,0.059048,-1.0492,2
2024-06-14 08:15:27.330,-1.68,-55.58,-1.7850000000000001,0.037087999999999996,0.053436,-1.034804,2
2024-06-14 08:15:27.335,-1.505,-55.195,-2.135,0.041479999999999996,0.0549,-1.0384639999999998,2
2024-06-14 08:15:27.339,0.385,-54.46,-2.625,0.052947999999999995,0.055632,-1.0277280000000002,2
2024-06-14 08:15:27.344,0.385,-52.5,-3.15,0.069296,0.046116000000000004,-1.0299239999999998,2
2024-06-14 08:15:27.349,4.06,-42.525,-3.605,0.07222400000000001,0.040260000000000004,-1.029924,2
2024-06-14 08:15:27.354,3.535,-48.650000000000006,-3.115,0.072956,0.024888,-1.035048,2
2024-06-14 08:15:27.359,4.2,-46.06,-3.01,0.077104,0.0183,-1.0350480000000002,3
2024-06-14 08:15:27.364,4.83,-44.834999999999994,-2.66,0.07344400000000001,0.0,-1.0553,3
2024-06-14 08:15:27.368,4.865,-42.035,-2.3449999999999998,0.071004,0.009271999999999999,-1.058228,3
2024-06-14 08:15:27.373,3.5,-47.11,-2.1350000000000002,0.07417599999999999,0.005612000000000001,-1.077992,3
2024-06-14 08:15:27.378,1.4,-43.61,-1.96,0.081008,0.009516,-1.082384,3
2024-06-14 08:15:27.383,1.54,-44.45,-1.295,0.080276,0.0068319999999999995,-1.079456,3
2024-06-14 08:15:27.388,-0.385,-44.974999999999994,-0.77,0.090768,-0.00024400000000000002,-1.092388,3
2024-06-14 08:15:27.392,2.0300000000000002,-45.535,0.13999999999999999,0.09028,0.005612,-1.1048319999999998,3
2024-06-14 08:15:27.397,1.155,-48.125,0.875,0.103212,-0.004636,-1.096048,3
2024-06-14 08:15:27.402,-3.325,-52.08,1.085,0.113948,0.007564000000000001,-1.116056,3
2024-06-14 08:15:27.407,-7.84,-51.59,0.63,0.105408,0.003903999999999999,-1.069696,3
2024-06-14 08:15:27.412,-8.995000000000001,-49.0,0.24500000000000002,0.108092,0.024399999999999998,-1.0814080000000001,3
2024-06-14 08:15:27.416,-10.465,-46.83,-0.35,0.12566,0.008784,-1.0445639999999998,3
2024-06-14 08:15:27.421,-10.395,-45.185,0.35,0.126392,0.019276,-1.046272,3
2024-06-14 08:15:27.426,-11.059999999999999,-43.995,0.56,0.122976,0.024156,-1.0431,3
2024-06-14 08:15:27.431,-11.305,-42.21,0.06999999999999999,0.12980799999999998,0.030255999999999998,-1.041636,3
2024-06-14 08:15:27.436,-10.57,-39.44499999999999,-0.8400000000000001,0.133712,0.038064,-1.03822,3
2024-06-14 08:15:27.441,-8.925,-35.769999999999996,-1.26,0.134932,0.0305,-1.051884,3
2024-06-14 08:15:27.445,-8.855,-34.825,-1.19,0.139568,0.030987999999999998,-1.0445639999999998,3
2024-06-14 08:15:27.450,-8.155,-34.09,-1.12,0.140544,0.028791999999999998,-1.049688,3
2024-06-14 08:15:27.455,-7.595000000000001,-33.67,-1.225,0.146156,0.028304,-1.058716,3
2024-06-14 08:15:27.460,-7.140000000000001,-34.16,-1.225,0.139568,0.027816,-1.05896,3
2024-06-14 08:15:27.465,-6.615,-34.474999999999994,-1.26,0.142008,0.036112,-1.068232,3
2024-06-14 08:15:27.469,-5.81,-34.37,-1.225,0.147864,0.037576,-1.075552,3
2024-06-14 08:15:27.474,-5.109999999999999,-34.894999999999996,-1.26,0.153476,0.036356,-1.0692080000000002,3
2024-06-14 08:15:27.479,-4.865,-34.965,-1.4,0.160796,0.023912,-1.0716480000000002,3
2024-06-14 08:15:27.484,-5.355,-34.965,-1.225,0.16372399999999998,0.01586,-1.06506,3
2024-06-14 08:15:27.489,-6.195,-35.21,-1.085,0.170068,0.011956000000000001,-1.073112,3
2024-06-14 08:15:27.493,-6.859999999999999,-34.93,-0.7,0.17055599999999999,0.005612,-1.075552,3
2024-06-14 08:15:27.498,-8.295,-34.86,-0.385,0.173728,0.00732,-1.077748,3
2024-06-14 08:15:27.503,-9.24,-34.894999999999996,-0.07,0.178852,0.010492,-1.0836039999999998,3
2024-06-14 08:15:27.508,-10.29,-34.51,0.35,0.180072,0.010735999999999999,-1.086532,3
2024-06-14 08:15:27.513,-11.129999999999999,-34.825,0.7,0.176656,0.010735999999999999,-1.095316,3
2024-06-14 08:15:27.517,-11.864999999999998,-35.35,1.0150000000000001,0.176168,0.010736,-1.100196,3
2024-06-14 08:15:27.522,-12.95,-36.33,1.365,0.17836400000000002,0.01464,-1.106296,3
2024-06-14 08:15:27.527,-13.825,-37.625,1.61,0.18544,0.02074,-1.1028799999999999,3
2024-06-14 08:15:27.532,-14.805,-38.605000000000004,1.7850000000000001,0.18080400000000002,0.026352,-1.1126399999999999,3
2024-06-14 08:15:27.537,-16.03,-40.11,1.75,0.18348799999999998,0.038064,-1.1297199999999998,3
2024-06-14 08:15:27.542,-16.8,-41.79,1.8900000000000001,0.18226799999999999,0.028791999999999998,-1.134356,3
2024-06-14 08:15:27.546,-17.325,-43.644999999999996,1.89,0.18958799999999998,0.038552,-1.137284,3
2024-06-14 08:15:27.551,-17.955,-45.185,1.855,0.18714799999999998,0.042456,-1.1407,3
2024-06-14 08:15:27.556,-18.305,-47.144999999999996,1.645,0.193004,0.03904,-1.1455799999999998,3
2024-06-14 08:15:27.561,-18.69,-48.72,1.5750000000000002,0.195932,0.039772,-1.137772,3
2024-06-14 08:15:27.566,-18.865000000000002,-50.995000000000005,1.435,0.19641999999999998,0.040748,-1.140212,3
2024-06-14 08:15:27.570,-18.83,-52.989999999999995,1.4,0.20666800000000002,0.036112,-1.140944,3
2024-06-14 08:15:27.575,-18.41,-54.74,1.5750000000000002,0.208376,0.037576,-1.148508,3
2024-06-14 08:15:27.580,-18.165,-56.84,1.645,0.21716000000000002,0.040992,-1.1494840000000002,3
2024-06-14 08:15:27.585,-18.27,-58.730000000000004,1.715,0.218868,0.0488,-1.155096,3
2024-06-14 08:15:27.590,-18.13,-60.760000000000005,1.645,0.22033199999999997,0.060511999999999996,-1.164368,3
2024-06-14 08:15:27.594,-17.815,-63.455,1.435,0.21911199999999997,0.07198,-1.175348,3
2024-06-14 08:15:27.599,-17.08,-66.28999999999999,0.8400000000000001,0.217648,0.092476,-1.1895,3
2024-06-14 08:15:27.604,-16.134999999999998,-70.245,0.03499999999999999,0.221308,0.11053199999999999,-1.201944,3
2024-06-14 08:15:27.609,-14.525,-74.23500000000001,-1.05,0.224968,0.10370000000000001,-1.2080440000000001,3
2024-06-14 08:15:27.614,-12.809999999999999,-78.575,-1.855,0.223748,0.122488,-1.227564,3
2024-06-14 08:15:27.616,-12.32,-83.685,-3.255,0.228628,0.13541999999999998,-1.236836,3
2024-06-14 08:15:27.620,-11.725000000000001,-89.25,-4.795,0.229116,0.12566,-1.256112,3
2024-06-14 08:15:27.625,-10.99,-94.36,-5.88,0.23741199999999998,0.11102,-1.2749,3
2024-06-14 08:15:27.630,-10.36,-99.995,-6.720000000000001,0.23668,0.08784,-1.2917359999999998,3
2024-06-14 08:15:27.635,-10.184999999999999,-106.015,-7.245,0.244732,0.074664,-1.302228,3
2024-06-14 08:15:27.640,-10.29,-111.78999999999999,-7.56,0.25376,0.050264,-1.3237,3
2024-06-14 08:15:27.645,-10.219999999999999,-117.81,-7.3149999999999995,0.25473599999999996,0.036599999999999994,-1.3329719999999998,3
2024-06-14 08:15:27.649,-11.69,-124.145,-7.3149999999999995,0.263032,0.06831999999999999,-1.358592,3
2024-06-14 08:15:27.654,-11.41,-129.85000000000002,-7.805,0.262544,0.039040000000000005,-1.3771360000000001,3
2024-06-14 08:15:27.659,-9.274999999999999,-137.235,-7.21,0.25351599999999996,0.057584,-1.386164,3
2024-06-14 08:15:27.664,-9.765,-145.46,-7.84,0.255224,0.109556,-1.414712,3
2024-06-14 08:15:27.669,-10.780000000000001,-153.93,-8.96,0.258884,0.10735999999999998,-1.421544,3
2024-06-14 08:15:27.674,-11.235,-163.345,-10.185,0.25498,0.1281,-1.450824,3
2024-06-14 08:15:27.678,-11.585,-173.005,-11.83,0.249124,0.13639600000000002,-1.4788839999999999,3
2024-06-14 08:15:27.683,-12.879999999999999,-183.715,-13.86,0.2501,0.152744,-1.516216,3
2024-06-14 08:15:27.688,-12.915,-195.405,-15.925,0.2623,0.143472,-1.575996,3
2024-06-14 08:15:27.693,-12.985,-207.48000000000002,-17.744999999999997,0.256932,0.159332,-1.629432,3
2024-06-14 08:15:27.698,-13.895,-219.415,-20.02,0.25839599999999996,0.18446400000000002,-1.6560279999999998,3
2024-06-14 08:15:27.703,-14.105,-231.875,-22.365000000000002,0.24985599999999997,0.17177599999999998,-1.690188,3
2024-06-14 08:15:27.707,-9.38,-246.08499999999998,-24.43,0.24692799999999998,0.174704,-1.690432,3
2024-06-14 08:15:27.712,-3.6750000000000003,-260.645,-26.915,0.216672,0.11711999999999999,-1.844884,3
2024-06-14 08:15:27.717,-12.635,-274.575,-28.805,0.242048,0.191296,-1.8429319999999998,3
2024-06-14 08:15:27.722,-13.335,-289.38,-31.08,0.25717599999999996,0.159576,-1.88368,3
2024-06-14 08:15:27.727,-10.605,-305.83000000000004,-31.465,0.27303599999999995,0.094428,-1.994456,3
2024-06-14 08:15:27.732,-11.97,-320.95,-30.975,0.281332,0.08247199999999999,-2.13134,3
2024-06-14 08:15:27.736,-12.25,-337.61,-30.905,0.25986,0.09296399999999999,-2.1647679999999996,3
2024-06-14 08:15:27.741,5.18,-356.96500000000003,-28.98,0.315248,0.068076,-2.1786760000000003,3
2024-06-14 08:15:27.746,-14.245000000000001,-367.99,-29.225,0.352824,0.161528,-2.435608,3
2024-06-14 08:15:27.751,-17.255,-377.86,-30.869999999999997,0.433344,0.204472,-2.5112479999999997,3
2024-06-14 08:15:27.756,-11.899999999999999,-392.45500000000004,-31.325,0.3416,0.314272,-2.5354039999999998,3
2024-06-14 08:15:27.761,-17.92,-395.78,-34.965,0.312808,0.483852,-2.6156800000000002,3
2024-06-14 08:15:27.765,-18.305,-401.205,-43.575,0.261324,0.547536,-2.521496,3
2024-06-14 08:15:27.770,-13.649999999999999,-408.59000000000003,-49.349999999999994,0.21057199999999998,0.553148,-2.540284,3
2024-06-14 08:15:27.775,-13.44,-411.635,-59.150000000000006,0.14884,0.71492,-2.459764,3
2024-06-14 08:15:27.780,-9.625,-417.865,-70.455,0.08613199999999999,0.807396,-2.319952,3
2024-06-14 08:15:27.785,-11.515,-421.855,-83.825,0.155428,0.9925919999999999,-2.064484,3
2024-06-14 08:15:27.790,-14.91,-431.515,-98.84,0.46408799999999995,1.023336,-1.82634,3
2024-06-14 08:15:27.794,-8.05,-439.21500000000003,-107.80000000000001,0.41504399999999997,0.974536,-1.928088,3
2024-06-14 08:15:27.799,-21.735,-442.015,-114.03,0.343308,1.090192,-1.760704,3
2024-06-14 08:15:27.804,-57.715,-437.85,-123.9,0.22228399999999998,1.3359,-1.830732,3
2024-06-14 08:15:27.809,-111.545,-427.63,-137.55,-0.003415999999999999,1.41642,-1.897344,3
2024-06-14 08:15:27.814,-170.66,-408.275,-152.565,-0.2135,1.3781119999999998,-1.9024679999999998,3
2024-06-14 08:15:27.819,-225.05,-382.095,-166.46,-0.26083599999999996,1.2993000000000001,-1.8014519999999998,3
2024-06-14 08:15:27.823,-266.90999999999997,-353.815,-185.99,-0.48238800000000004,1.153632,-1.618452,3
2024-06-14 08:15:27.828,-288.96000000000004,-320.39,-213.71,-0.6963759999999999,0.873276,-1.325164,3
2024-06-14 08:15:27.833,-286.29999999999995,-282.625,-234.115,-0.845704,0.582916,-1.0121120000000001,3
2024-06-14 08:15:27.838,-264.6,-238.45499999999998,-226.66,-1.753384,0.31842000000000004,-0.6104879999999999,3
2024-06-14 08:15:27.843,-225.12,-164.07999999999998,-197.47,-0.521916,0.11760799999999999,-0.413092,4
2024-06-14 08:15:27.848,-167.01999999999998,-75.775,-160.79,-0.85156,-0.488976,-1.2634319999999999,4
2024-06-14 08:15:27.853,-106.64500000000001,14.98,-114.38,-1.438136,-0.940132,-0.8854759999999999,4
2024-06-14 08:15:27.857,-35.665,80.465,-58.974999999999994,-1.579412,-0.9223199999999999,-0.50264,4
2024-06-14 08:15:27.862,36.47,132.825,-13.44,-1.2797800000000001,-0.592676,-0.609756,4
2024-06-14 08:15:27.867,97.895,175.77,15.96,-0.9179279999999999,-0.33989199999999997,-0.898164,4
2024-06-14 08:15:27.872,139.965,205.94,34.37,-0.7620119999999999,-0.130296,-1.048712,4
2024-06-14 08:15:27.877,161.105,227.04500000000002,44.17,-0.72834,0.112484,-1.045296,4
2024-06-14 08:15:27.882,164.115,243.635,45.150000000000006,-0.691496,0.365512,-0.994544,4
2024-06-14 08:15:27.886,152.21499999999997,256.62,38.675,-0.633424,0.552416,-0.958432,4
2024-06-14 08:15:27.891,128.94,266.28,27.475,-0.572668,0.646844,-0.952332,4
2024-06-14 08:15:27.896,98.595,273.28,13.719999999999999,-0.519232,0.6861280000000001,-0.938912,4
2024-06-14 08:15:27.901,66.08,278.21500000000003,-0.665,-0.48556,0.686372,-0.893284,4
2024-06-14 08:15:27.906,37.519999999999996,280.90999999999997,-14.385000000000002,-0.463356,0.626104,-0.840824,4
2024-06-14 08:15:27.911,15.504999999999999,280.805,-26.740000000000002,-0.414312,0.528748,-0.8156919999999999,4
2024-06-14 08:15:27.915,1.295,277.655,-37.239999999999995,-0.34404,0.429196,-0.813496,4
2024-06-14 08:15:27.920,-6.3,271.775,-45.71,-0.274988,0.326228,-0.82594,4
2024-06-14 08:15:27.925,-8.785,264.775,-51.8,-0.23448399999999997,0.234484,-0.816424,4
2024-06-14 08:15:27.930,-7.035,258.685,-54.915,-0.23058,0.16226000000000002,-0.802028,4
2024-06-14 08:15:27.935,-2.45,255.115,-55.685,-0.24522,0.124928,-0.782996,4
2024-06-14 08:15:27.940,3.395,255.36,-54.25,-0.243512,0.103944,-0.778116,4
2024-06-14 08:15:27.944,8.54,258.405,-50.89,-0.25351599999999996,0.08857199999999998,-0.8027599999999999,4
2024-06-14 08:15:27.949,11.9,263.865,-45.955,-0.26083599999999996,0.084912,-0.8386279999999999,4
2024-06-14 08:15:27.954,13.23,271.005,-39.48,-0.284748,0.087108,-0.867664,4
2024-06-14 08:15:27.959,12.95,279.86,-32.06,-0.308416,0.084424,-0.8759600000000001,4
2024-06-14 08:15:27.964,12.04,289.1,-24.009999999999998,-0.324032,0.081984,-0.898652,4
2024-06-14 08:15:27.969,11.129999999999999,297.85,-15.715,-0.316712,0.072468,-0.9379359999999999,4
2024-06-14 08:15:27.973,9.309999999999999,305.62,-7.63,-0.30744,0.077836,-0.978928,4
2024-06-14 08:15:27.978,6.335,312.48,0.1399999999999999,-0.284748,0.099064,-1.0091839999999999,4
2024-06-14 08:15:27.983,1.9249999999999998,317.695,7.49,-0.25376,0.11516799999999999,-1.038952,4
2024-06-14 08:15:27.988,-3.605,321.02,13.965,-0.2196,0.127856,-1.073356,4
2024-06-14 08:15:27.993,-10.22,322.0,19.424999999999997,-0.177388,0.139568,-1.106784,4
2024-06-14 08:15:27.998,-17.29,320.21500000000003,23.905,-0.11956,0.155916,-1.1433840000000002,4
2024-06-14 08:15:28.002,-24.745,315.98,27.44,-0.07564,0.174704,-1.1699799999999998,4
2024-06-14 08:15:28.007,-32.48,309.26,29.645000000000003,-0.035624,0.18348799999999998,-1.208532,4
2024-06-14 08:15:28.012,-39.795,301.245,30.73,-0.0002440000000000003,0.18788,-1.250012,4
2024-06-14 08:15:28.017,-47.285,293.15999999999997,31.185,0.019276,0.177632,-1.2805119999999999,4
2024-06-14 08:15:28.022,-54.355000000000004,286.33500000000004,31.29,0.02196,0.171288,-1.313208,4
2024-06-14 08:15:28.027,-60.585,280.84000000000003,31.535,0.027083999999999997,0.14688800000000002,-1.36518,4
2024-06-14 08:15:28.031,-65.94,277.13,32.55,0.034648,0.10858,-1.41886,4
2024-06-14 08:15:28.036,-70.14,275.065,34.755,0.041724,0.06295200000000001,-1.46156,4
2024-06-14 08:15:28.041,-73.28999999999999,275.065,38.22,0.045871999999999996,0.020496,-1.5057239999999998,4
2024-06-14 08:15:28.046,-75.18,277.16499999999996,43.19,0.055632,-0.02562,-1.5474480000000002,4
2024-06-14 08:15:28.051,-75.39,280.525,49.735,0.075396,-0.072468,-1.5896599999999999,4
2024-06-14 08:15:28.056,-74.06,283.99,57.785,0.09345200000000001,-0.10345599999999999,-1.632604,4
2024-06-14 08:15:28.061,-71.64500000000001,287.315,66.57,0.11053199999999999,-0.122,-1.675548,4
2024-06-14 08:15:28.065,-68.88,290.15,75.81,0.130052,-0.116632,-1.71044,4
2024-06-14 08:15:28.070,-65.625,292.005,84.63,0.14127599999999998,-0.094672,-1.743136,4
2024-06-14 08:15:28.075,-63.56,293.09000000000003,92.08500000000001,0.14688800000000002,-0.04636,-1.7726600000000001,4
2024-06-14 08:15:28.080,-62.3,293.33500000000004,97.50999999999999,0.157624,-0.004392,-1.803648,4
2024-06-14 08:15:28.085,-62.265,293.125,101.325,0.15616000000000002,0.043188,-1.8365879999999999,4
2024-06-14 08:15:28.090,-63.28,292.565,103.18,0.15616,0.09076799999999999,-1.876604,4
2024-06-14 08:15:28.094,-64.82,292.39,103.145,0.161528,0.127368,-1.917352,4
2024-06-14 08:15:28.099,-65.485,293.125,101.885,0.17836400000000002,0.15176800000000001,-1.956392,4
2024-06-14 08:15:28.104,-64.75,293.72,99.89,0.21301199999999998,0.16616399999999998,-1.991528,4
2024-06-14 08:15:28.109,-62.650000000000006,293.86,97.86,0.274744,0.186172,-2.0303240000000002,4
2024-06-14 08:15:28.114,-59.395,292.88,95.69,0.34794400000000003,0.216916,-2.0598479999999997,4
2024-06-14 08:15:28.119,-56.105,290.885,93.59,0.415532,0.26474,-2.08132,4
2024-06-14 08:15:28.123,-53.445,288.505,91.69999999999999,0.47824,0.310856,-2.093032,4
2024-06-14 08:15:28.128,-51.905,285.81,90.22999999999999,0.5350919999999999,0.34794400000000003,-2.1037679999999996,4
2024-06-14 08:15:28.133,-51.625,283.045,88.97,0.5936520000000001,0.3782,-2.108892,4
2024-06-14 08:15:28.138,-52.71,279.58000000000004,88.025,0.651236,0.41138399999999997,-2.114016,4
2024-06-14 08:15:28.143,-54.845,275.45,86.975,0.705892,0.446276,-2.118652,4
2024-06-14 08:15:28.148,-57.89,271.6,85.68,0.746396,0.472628,-2.124752,4
2024-06-14 08:15:28.152,-61.459999999999994,267.715,84.0,0.786656,0.48360800000000004,-2.1171879999999996,4
2024-06-14 08:15:28.157,-64.645,263.725,82.215,0.816912,0.4819,-2.114504,4
2024-06-14 08:15:28.162,-67.865,260.33000000000004,80.395,0.8447279999999999,0.458964,-2.095472,4
2024-06-14 08:15:28.167,-71.505,256.865,78.47,0.8735200000000001,0.429684,-2.0822960000000004,4
2024-06-14 08:15:28.172,-77.0,254.24,76.16,0.92354,0.408212,-2.07888,4
2024-06-14 08:15:28.177,-83.72,252.45499999999998,73.465,0.9847840000000001,0.36478,-2.0622879999999997,4
2024-06-14 08:15:28.181,-89.6,250.95,70.665,1.058228,0.28913999999999995,-2.023492,4
2024-06-14 08:15:28.186,-93.17,248.70999999999998,68.005,1.156804,0.200568,-2.006412,4
2024-06-14 08:15:28.191,-94.15,244.685,65.555,1.28466,0.12419599999999999,-1.976156,4
2024-06-14 08:15:28.196,-92.68,238.805,63.665,1.4183720000000002,0.06344,-1.9337,4
2024-06-14 08:15:28.201,-90.545,230.615,61.67,1.556232,0.035624,-1.88612,4
2024-06-14 08:15:28.206,-89.46,220.60500000000002,58.975,1.7141,0.026596,-1.834636,4
2024-06-14 08:15:28.210,-90.475,208.845,55.195,1.8919759999999999,0.013908,-1.7809559999999998,4
2024-06-14 08:15:28.215,-93.24000000000001,196.07,50.015,2.09474,-0.02196,-1.71166,4
2024-06-14 08:15:28.220,-97.61500000000001,182.56,43.54,2.32898,-0.090036,-1.633092,4
2024-06-14 08:15:28.225,-102.47999999999999,167.51,36.19,2.5925000000000002,-0.221308,-1.560624,4
2024-06-14 08:15:28.230,-106.61,150.395,29.225,2.853092,-0.426024,-1.511336,4
2024-06-14 08:15:28.235,-106.68,129.605,23.765,3.080744,-0.6846639999999999,-1.474736,4
2024-06-14 08:15:28.239,-98.35,104.78999999999999,20.755000000000003,3.212016,-0.968436,-1.433256,4
2024-06-14 08:15:28.244,-78.995,76.65,21.104999999999997,3.224216,-1.2324439999999999,-1.3829919999999998,4
2024-06-14 08:15:28.249,-49.665,47.81,23.975,3.122956,-1.4000720000000002,-1.33102,4
2024-06-14 08:15:28.254,-13.51,20.65,27.965,2.9158,-1.3969,-1.2780719999999999,4
2024-06-14 08:15:28.259,22.4,-1.8550000000000002,30.799999999999997,2.641788,-1.2514759999999998,-1.228052,4
2024-06-14 08:15:28.264,50.785,-17.045,31.85,2.3448399999999996,-1.00284,-1.182912,4
2024-06-14 08:15:28.268,68.985,-25.025,31.255000000000003,2.05082,-0.727608,-1.134112,4
2024-06-14 08:15:28.273,78.26,-27.545,29.54,1.798768,-0.4958079999999999,-1.0726239999999998,4
2024-06-14 08:15:28.278,107.72999999999999,-78.365,27.475,2.60226,0.061488,-1.7453319999999999,0
2024-06-14 08:15:28.283,164.605,-186.76,19.39,3.41112,-0.49141599999999996,-1.89222,0
2024-06-14 08:15:28.288,180.88,-215.60000000000002,-6.614999999999999,2.795264,0.374784,-0.131272,0
2024-06-14 08:15:28.293,195.265,-245.42,-39.235,3.142476,0.498492,-0.369904,0
