time,gyroscope_x,gyroscope_y,gyroscope_z,accelerometer_x,accelerometer_y,accelerometer_z,phase
2024-06-14 09:15:23.459,-235.79500000000002,-423.46500000000003,-16.52,4.056744,1.103612,-9.379847999999999,1
2024-06-14 09:15:23.464,-150.39499999999998,-289.275,-38.885000000000005,-2.420724,0.11370399999999997,2.2945759999999997,1
2024-06-14 09:15:23.469,-188.16,-342.685,-31.045,-1.402024,-1.086532,1.370792,1
2024-06-14 09:15:23.473,-230.825,-356.405,-39.795,-0.751276,-0.11394800000000001,-2.459764,1
2024-06-14 09:15:23.478,-224.245,-363.33500000000004,-49.28,-0.6087799999999999,-0.06514799999999998,-1.225856,1
2024-06-14 09:15:23.483,-203.52499999999998,-389.445,-56.07,0.653188,-0.08149599999999999,-1.724348,1
2024-06-14 09:15:23.488,-166.91500000000002,-377.54499999999996,-72.065,0.727364,0.208376,-1.8353679999999999,1
2024-06-14 09:15:23.493,-106.68,-348.635,-87.08000000000001,0.564128,0.227408,-2.021052,1
2024-06-14 09:15:23.498,-57.435,-321.15999999999997,-97.125,0.22618799999999997,0.293776,-2.016904,1
2024-06-14 09:15:23.502,-44.870000000000005,-305.76,-91.07,0.091988,0.40870000000000006,-2.1396360000000003,1
2024-06-14 09:15:23.507,-60.62,-288.33,-66.71000000000001,0.09540399999999999,0.6021920000000001,-2.154276,1
2024-06-14 09:15:23.512,-75.46000000000001,-270.655,-33.215,0.057339999999999995,0.7437119999999999,-2.126704,1
2024-06-14 09:15:23.517,-76.125,-253.505,-5.67,0.028304,0.648308,-1.9929919999999999,1
2024-06-14 09:15:23.522,-62.3,-229.46,12.18,-0.01708,0.436516,-1.8844119999999998,1
2024-06-14 09:15:23.527,-56.0,-206.36,22.015,0.031232,0.031964,-1.600152,1
2024-06-14 09:15:23.531,-51.03,-184.695,21.28,0.052216,-0.120536,-1.569896,1
2024-06-14 09:15:23.536,-35.629999999999995,-161.245,10.219999999999999,0.07808,-0.14395999999999998,-1.546228,1
2024-06-14 09:15:23.541,-22.854999999999997,-119.385,-2.975,0.14371599999999998,-0.08759600000000001,-1.645048,1
2024-06-14 09:15:23.546,-18.445,-74.62,-9.695,0.151524,-0.130052,-1.528172,1
2024-06-14 09:15:23.551,-19.25,-51.205,-9.415,0.23204399999999997,-0.055144,-1.340048,1
2024-06-14 09:15:23.555,-18.095,-31.325000000000003,-6.86,0.23887599999999998,0.054168,-1.1875479999999998,1
2024-06-14 09:15:23.560,-13.719999999999999,-17.71,-1.715,0.179828,0.10858,-1.02724,1
2024-06-14 09:15:23.565,-12.775,-12.11,-0.56,0.02562,0.062952,-1.05042,1
2024-06-14 09:15:23.570,-11.795,-7.385,-1.925,-0.107848,-0.034404000000000004,-1.082628,1
2024-06-14 09:15:23.575,-12.39,-12.844999999999999,-1.12,-0.05367999999999999,-0.0017079999999999999,-1.0784799999999999,1
2024-06-14 09:15:23.580,-12.530000000000001,-16.31,-2.065,0.013908,-0.012688,-1.084336,2
2024-06-14 09:15:23.584,-13.579999999999998,-19.005,-2.065,-0.009028000000000001,0.004636000000000002,-1.094096,2
2024-06-14 09:15:23.589,-13.09,-21.805,-3.325,-0.066856,0.007808,-1.06628,2
2024-06-14 09:15:23.594,-12.809999999999999,-26.04,-3.045,-0.096136,-0.011224,-1.082628,2
2024-06-14 09:15:23.599,-12.95,-31.43,-1.19,-0.08637600000000001,0.00976,-1.0918999999999999,2
2024-06-14 09:15:23.604,-11.305,-36.68000000000001,-0.42,-0.081496,0.027572,-1.0860439999999998,2
2024-06-14 09:15:23.609,-9.415,-39.235,-0.56,-0.074908,0.03172,-1.067744,2
2024-06-14 09:15:23.613,-7.5600000000000005,-39.655,-0.595,-0.025132,0.028059999999999995,-1.058228,2
2024-06-14 09:15:23.618,-5.705,-37.695,-1.225,-0.005856,0.020496,-1.03944,2
2024-06-14 09:15:23.623,-4.62,-33.285,-1.505,-0.038552,0.0004880000000000006,-1.0255319999999999,2
2024-06-14 09:15:23.628,-3.9899999999999998,-29.925,-0.91,-0.05660799999999999,-0.0021959999999999996,-1.051396,2
2024-06-14 09:15:23.633,-3.535,-30.59,-0.21,-0.06758800000000001,0.0039040000000000004,-1.072136,2
2024-06-14 09:15:23.638,-2.975,-32.445,0.455,-0.076372,0.00048799999999999994,-1.0857999999999999,2
2024-06-14 09:15:23.642,-2.065,-33.81,0.8400000000000001,-0.070516,0.005612000000000001,-1.066036,2
2024-06-14 09:15:23.647,-1.085,-34.335,0.9450000000000001,-0.053436,0.017324,-1.052616,2
2024-06-14 09:15:23.652,-0.21,-34.58,1.19,-0.06222,0.01586,-1.058228,2
2024-06-14 09:15:23.657,0.665,-35.455,1.26,-0.063928,0.01586,-1.0606679999999997,2
2024-06-14 09:15:23.662,1.4,-35.980000000000004,1.295,-0.04758,0.017324,-1.05164,2
2024-06-14 09:15:23.667,1.96,-35.7,0.98,-0.05856,0.013664000000000003,-1.0470039999999998,2
2024-06-14 09:15:23.671,1.855,-35.84,0.7350000000000001,-0.026352,0.008539999999999999,-1.033096,2
2024-06-14 09:15:23.676,2.17,-35.595,0.84,-0.029524,0.01098,-1.027728,2
2024-06-14 09:15:23.681,1.26,-36.504999999999995,0.77,-0.048068,0.008784,-1.0274839999999998,2
2024-06-14 09:15:23.686,0.665,-34.685,0.77,-0.01586,0.010248,-1.021628,2
2024-06-14 09:15:23.691,2.52,-27.965,-0.49000000000000005,-0.007076000000000001,0.000244,-1.01016,2
2024-06-14 09:15:23.696,0.0,-36.19,0.9099999999999999,-0.020252,-0.004391999999999999,-1.016016,2
2024-06-14 09:15:23.700,0.945,-36.995000000000005,1.0150000000000001,-0.0012200000000000002,0.005856,-1.02236,2
2024-06-14 09:15:23.705,0.805,-42.175,0.98,-0.007319999999999999,0.008052,-1.01504,2
2024-06-14 09:15:23.710,2.8,-45.045,0.49,-0.028059999999999998,-0.003172,-1.0313880000000002,2
2024-06-14 09:15:23.715,8.995000000000001,-42.525000000000006,1.6099999999999999,0.013664,-0.016104,-1.02358,2
2024-06-14 09:15:23.720,8.120000000000001,-41.79,2.03,-0.021471999999999998,-0.025376,-1.057252,2
2024-06-14 09:15:23.724,8.120000000000001,-40.739999999999995,2.59,-0.011956,-0.025863999999999998,-1.029192,2
2024-06-14 09:15:23.729,7.105,-40.775,3.045,-0.029768000000000003,-0.011224,-1.007232,2
2024-06-14 09:15:23.734,7.665,-38.885,3.2199999999999998,0.041236,-0.008296,-1.03578,2
2024-06-14 09:15:23.739,9.66,-39.095,3.3600000000000003,-0.00854,-0.0026839999999999998,-1.038952,2
2024-06-14 09:15:23.744,6.6850000000000005,-43.785,3.465,-0.008052,-0.01342,-0.959652,2
2024-06-14 09:15:23.749,2.38,-39.83,3.115,0.025863999999999998,0.010003999999999999,-1.066036,2
2024-06-14 09:15:23.753,7.245,-36.085,2.625,0.045627999999999995,-0.0004879999999999997,-0.998204,2
2024-06-14 09:15:23.758,7.665,-34.685,3.2199999999999998,0.009027999999999998,-0.034892,-1.002352,2
2024-06-14 09:15:23.763,10.045,-32.725,3.675,0.044408,-0.00366,-1.0108920000000001,2
2024-06-14 09:15:23.768,11.445,-31.43,3.4299999999999997,0.026596,0.014884000000000001,-1.021628,2
2024-06-14 09:15:23.773,13.754999999999999,-31.08,3.1500000000000004,0.026596,0.019032,-1.0126,2
2024-06-14 09:15:23.778,14.21,-30.73,2.835,0.03782,0.012444,-1.0262639999999998,2
2024-06-14 09:15:23.782,14.525,-30.415,2.765,0.030255999999999998,-0.005855999999999999,-1.0250439999999998,2
2024-06-14 09:15:23.787,13.895,-25.865000000000002,3.115,0.04074799999999999,-0.00854,-1.0121120000000001,2
2024-06-14 09:15:23.792,13.475000000000001,-25.2,3.325,0.040992,-0.0060999999999999995,-1.01504,2
2024-06-14 09:15:23.797,13.09,-25.13,3.5,0.040015999999999996,-0.009028,-1.019188,2
2024-06-14 09:15:23.802,13.02,-25.515,3.85,0.044896000000000005,-0.018056000000000003,-1.01016,2
2024-06-14 09:15:23.807,12.145,-25.34,4.025,0.048556,-0.017568,-1.000644,2
2024-06-14 09:15:23.811,10.885,-24.85,3.9899999999999998,0.052947999999999995,-0.011467999999999999,-0.987468,2
2024-06-14 09:15:23.816,9.625,-23.729999999999997,4.025,0.059292,-0.016592,-0.9699,2
2024-06-14 09:15:23.821,8.575,-22.505000000000003,4.0600000000000005,0.062952,-0.010735999999999999,-0.964288,2
2024-06-14 09:15:23.826,7.63,-21.42,3.7800000000000002,0.06612399999999999,-0.0053679999999999995,-0.96746,2
2024-06-14 09:15:23.831,6.615,-20.09,3.605,0.072224,-0.003904,-0.9720959999999998,2
2024-06-14 09:15:23.836,6.02,-18.69,3.3600000000000003,0.071004,-0.00732,-0.97112,2
2024-06-14 09:15:23.840,5.425000000000001,-17.674999999999997,3.185,0.06661199999999999,-0.013908,-0.9891759999999999,2
2024-06-14 09:15:23.845,4.585000000000001,-17.465,3.15,0.059292,-0.026839999999999996,-1.0108920000000001,2
2024-06-14 09:15:23.850,4.27,-17.955,3.395,0.056852,-0.03172,-1.0335839999999998,2
2024-06-14 09:15:23.855,3.92,-18.97,3.675,0.062708,-0.034159999999999996,-1.04188,2
2024-06-14 09:15:23.860,4.0600000000000005,-20.195,4.025,0.061,-0.018544,-1.059936,2
2024-06-14 09:15:23.865,4.41,-22.575000000000003,4.0600000000000005,0.058316,-0.01464,-1.0821399999999999,2
2024-06-14 09:15:23.869,5.005000000000001,-24.85,4.025,0.05734,-0.014639999999999999,-1.0933639999999998,2
2024-06-14 09:15:23.874,6.23,-27.335,4.234999999999999,0.06344,-0.01586,-1.0992199999999999,2
2024-06-14 09:15:23.879,7.665,-29.61,4.13,0.05734,-0.013420000000000001,-1.1040999999999999,2
2024-06-14 09:15:23.884,10.29,-32.795,4.164999999999999,0.064416,0.016104,-1.110444,2
2024-06-14 09:15:23.889,12.46,-35.91,3.465,0.06856399999999999,0.025376,-1.108736,2
2024-06-14 09:15:23.893,15.120000000000001,-38.64,2.9050000000000002,0.06856399999999999,0.0014639999999999998,-1.1106880000000001,2
2024-06-14 09:15:23.898,17.5,-41.16,2.415,0.06612399999999999,0.02074,-1.125084,2
2024-06-14 09:15:23.903,20.09,-45.115,1.505,0.06612399999999999,0.038552,-1.152412,2
2024-06-14 09:15:23.908,23.45,-49.980000000000004,0.63,0.06368399999999999,0.025132,-1.20292,2
2024-06-14 09:15:23.913,27.3,-57.155,0.105,0.056364,0.00366,-1.235128,2
2024-06-14 09:15:23.918,30.31,-63.875,0.07,0.069296,-0.003172,-1.244644,2
2024-06-14 09:15:23.922,33.53,-68.14500000000001,-0.14,0.057583999999999996,-0.014151999999999998,-1.290028,2
2024-06-14 09:15:23.927,34.055,-75.67,-0.665,0.053192,-0.012931999999999999,-1.3634719999999998,2
2024-06-14 09:15:23.932,35.21,-85.01499999999999,-0.595,0.063928,-0.05124,-1.388116,2
2024-06-14 09:15:23.937,37.94,-95.445,0.31500000000000006,0.065636,-0.056119999999999996,-1.4457,2
2024-06-14 09:15:23.942,38.010000000000005,-106.19,0.17500000000000002,0.063196,-0.005612,-1.444968,2
2024-06-14 09:15:23.947,37.870000000000005,-116.725,0.0,0.060023999999999994,-0.041968,-1.4823,2
2024-06-14 09:15:23.951,40.285,-128.48499999999999,0.315,0.058072,-0.031964,-1.5179239999999998,2
2024-06-14 09:15:23.956,40.53,-139.86,0.07,0.07442000000000001,-0.031964,-1.512068,2
2024-06-14 09:15:23.961,41.125,-151.445,0.27999999999999997,0.06075599999999999,-0.050019999999999995,-1.537932,2
2024-06-14 09:15:23.966,43.015,-163.905,1.085,0.054412,-0.061488,-1.5823399999999999,2
2024-06-14 09:15:23.971,41.405,-176.19,1.33,0.048068,-0.0488,-1.635776,2
2024-06-14 09:15:23.976,38.71,-190.925,1.96,0.050752,-0.136396,-1.6638359999999999,2
2024-06-14 09:15:23.980,37.625,-204.68,4.515,0.043432,-0.16714,-1.6845759999999999,2
2024-06-14 09:15:23.985,31.57,-219.555,6.65,0.040504,-0.166652,-1.7187359999999998,2
2024-06-14 09:15:23.990,25.865000000000002,-236.005,9.415,0.032695999999999996,-0.230824,-1.74094,2
2024-06-14 09:15:23.995,21.314999999999998,-250.67000000000002,12.915,0.040748,-0.202276,-1.779736,3
2024-06-14 09:15:24.000,17.71,-267.78499999999997,15.120000000000001,0.048311999999999994,-0.139324,-1.9232079999999998,3
2024-06-14 09:15:24.005,15.190000000000001,-287.21000000000004,16.415,0.024156,-0.08954799999999999,-2.045696,3
2024-06-14 09:15:24.009,6.86,-305.2,16.555,0.06344,-0.118096,-2.121092,3
2024-06-14 09:15:24.014,0.245,-326.515,18.13,0.017079999999999998,-0.29036,-2.1569599999999998,3
2024-06-14 09:15:24.019,-3.9549999999999996,-347.97,22.189999999999998,-0.080764,-0.375272,-2.200636,3
2024-06-14 09:15:24.024,-13.440000000000001,-367.675,26.145,-0.044407999999999996,-0.403332,-2.2587080000000004,3
2024-06-14 09:15:24.029,-16.975,-390.705,29.89,-0.10492,-0.44700799999999996,-2.2862799999999996,3
2024-06-14 09:15:24.033,-15.855,-407.365,34.019999999999996,-0.04635999999999999,-0.404552,-2.44488,3
2024-06-14 09:15:24.038,-8.785,-430.745,37.379999999999995,-0.04489599999999999,-0.36697599999999997,-2.410232,3
2024-06-14 09:15:24.043,-1.75,-445.69,39.025,0.06709999999999999,-0.259128,-2.61568,3
2024-06-14 09:15:24.048,7.035,-460.215,38.22,0.21862399999999999,-0.168848,-2.816248,3
2024-06-14 09:15:24.053,12.04,-468.055,34.545,0.28425999999999996,-0.110288,-3.038776,3
2024-06-14 09:15:24.058,21.314999999999998,-467.88,30.03,0.324032,-0.277428,-3.2461759999999997,3
2024-06-14 09:15:24.062,30.485,-467.39,33.88,0.25864,-0.30231600000000003,-3.31352,3
2024-06-14 09:15:24.067,25.270000000000003,-460.845,36.015,0.153476,-0.182512,-3.4179519999999997,3
2024-06-14 09:15:24.072,15.96,-452.76,36.505,0.020252,-0.119804,-3.5240919999999996,3
2024-06-14 09:15:24.077,11.235,-450.765,38.5,-0.3111,-0.053924,-3.5467839999999997,3
2024-06-14 09:15:24.082,3.955,-451.36,37.625,-0.659288,-0.096624,-3.610468,3
2024-06-14 09:15:24.087,-5.25,-450.765,36.82,-1.1529,-0.30256,-3.4350319999999996,3
2024-06-14 09:15:24.091,-3.255,-442.57500000000005,41.405,-1.590392,-0.57462,-3.145892,3
2024-06-14 09:15:24.096,2.5199999999999996,-439.39,52.115,-1.9110079999999998,-0.754936,-2.788188,3
2024-06-14 09:15:24.101,12.635000000000002,-441.735,67.47999999999999,-2.007144,-0.834724,-2.3424,3
2024-06-14 09:15:24.106,23.73,-459.34000000000003,88.095,-2.270908,-0.9337880000000001,-1.8634279999999999,3
2024-06-14 09:15:24.111,22.295,-487.16499999999996,117.775,-1.8866079999999998,-0.9696560000000001,-0.85034,4
2024-06-14 09:15:24.116,7.455,-553.3499999999999,140.84,-1.0579839999999998,-1.248792,-0.06905199999999995,4
2024-06-14 09:15:24.120,13.895,-479.28999999999996,157.64,-1.1582679999999999,-1.131672,-1.432036,4
2024-06-14 09:15:24.125,57.435,-365.505,167.51,-1.322236,-0.692472,-1.832684,4
2024-06-14 09:15:24.130,82.25,-257.67,160.08999999999997,-1.252208,-0.5673,-1.36884,4
2024-06-14 09:15:24.135,74.55,-121.94,139.79000000000002,-1.605276,-0.27938,-0.807884,4
2024-06-14 09:15:24.140,52.36,9.835,112.35,-1.808528,0.01952,-0.562176,4
2024-06-14 09:15:24.145,18.235,114.31,80.395,-1.6152799999999998,0.066856,-0.8483879999999999,4
2024-06-14 09:15:24.149,-23.275,178.15,47.81,-1.281488,0.06490399999999999,-1.183644,4
2024-06-14 09:15:24.154,-61.495000000000005,206.745,19.81,-1.108736,0.019763999999999997,-1.2566,4
2024-06-14 09:15:24.159,-94.885,211.61,-2.0300000000000002,-1.0433439999999998,-0.072956,-1.159244,4
2024-06-14 09:15:24.164,-120.68,203.0,-17.815,-0.9542839999999999,-0.14152,-0.960628,4
2024-06-14 09:15:24.169,-133.875,191.345,-29.645000000000003,-0.8515600000000001,-0.209108,-0.7595719999999999,4
2024-06-14 09:15:24.174,-133.76999999999998,180.565,-38.745000000000005,-0.755424,-0.286212,-0.641476,4
2024-06-14 09:15:24.178,-121.555,173.215,-46.269999999999996,-0.679296,-0.366732,-0.585844,4
2024-06-14 09:15:24.183,-99.05000000000001,168.875,-51.8,-0.6353759999999999,-0.428708,-0.528504,4
2024-06-14 09:15:24.188,-69.61500000000001,169.75,-55.93000000000001,-0.6373279999999999,-0.46530799999999994,-0.44773999999999997,4
2024-06-14 09:15:24.193,-37.1,176.78500000000003,-58.975,-0.663192,-0.4819,-0.378444,4
2024-06-14 09:15:24.198,-5.635,189.945,-60.97,-0.689788,-0.45920799999999995,-0.367952,4
2024-06-14 09:15:24.202,20.405,205.51999999999998,-62.614999999999995,-0.70028,-0.406504,-0.408212,4
2024-06-14 09:15:24.207,38.08,223.89499999999998,-64.19,-0.709064,-0.331108,-0.46067199999999997,4
2024-06-14 09:15:24.212,46.06,243.39,-66.28999999999999,-0.706868,-0.23985199999999998,-0.500444,4
2024-06-14 09:15:24.217,44.625,263.025,-68.635,-0.710772,-0.154452,-0.5404599999999999,4
2024-06-14 09:15:24.222,35.595,283.22,-71.08500000000001,-0.697352,-0.099552,-0.5970679999999999,4
2024-06-14 09:15:24.227,21.979999999999997,301.07,-73.255,-0.670268,-0.071492,-0.657824,4
2024-06-14 09:15:24.231,6.405,317.485,-74.69,-0.643184,-0.06832,-0.711992,4
2024-06-14 09:15:24.236,-7.9799999999999995,331.03,-74.62,-0.604144,-0.092476,-0.746884,4
2024-06-14 09:15:24.241,-18.41,342.72,-73.11500000000001,-0.5697399999999999,-0.13054000000000002,-0.775676,4
2024-06-14 09:15:24.246,-23.240000000000002,352.87,-69.965,-0.528748,-0.1769,-0.809348,4
2024-06-14 09:15:24.251,-22.12,362.775,-65.485,-0.494588,-0.21472000000000002,-0.84912,4
2024-06-14 09:15:24.256,-16.835,370.78999999999996,-59.955,-0.47287199999999996,-0.239608,-0.8842559999999999,4
2024-06-14 09:15:24.260,-8.995000000000001,378.35,-53.584999999999994,-0.458232,-0.24546400000000002,-0.922808,4
2024-06-14 09:15:24.265,-0.5950000000000001,384.79,-46.83,-0.438956,-0.23912,-0.974536,4
2024-06-14 09:15:24.270,6.755000000000001,390.915,-39.9,-0.419924,-0.217892,-1.037976,4
2024-06-14 09:15:24.275,12.075,396.27,-33.144999999999996,-0.39747599999999994,-0.192516,-1.0972680000000001,4
2024-06-14 09:15:24.280,14.49,401.135,-26.6,-0.38527599999999995,-0.16714,-1.148752,4
2024-06-14 09:15:24.285,14.77,406.45500000000004,-20.265,-0.366488,-0.147132,-1.208532,4
2024-06-14 09:15:24.289,13.3,410.55,-14.42,-0.34550400000000003,-0.134932,-1.284904,4
2024-06-14 09:15:24.294,11.48,413.90999999999997,-8.82,-0.32208,-0.129564,-1.3656679999999999,4
2024-06-14 09:15:24.299,10.149999999999999,416.95500000000004,-3.78,-0.29743600000000003,-0.13151599999999997,-1.4403320000000002,4
2024-06-14 09:15:24.304,9.905000000000001,419.195,0.84,-0.28303999999999996,-0.13419999999999999,-1.519144,4
2024-06-14 09:15:24.309,11.690000000000001,422.345,4.48,-0.25815199999999994,-0.147376,-1.609912,4
2024-06-14 09:15:24.314,14.805,424.76,7.455,-0.23765599999999998,-0.15054800000000002,-1.706048,4
2024-06-14 09:15:24.318,18.445,427.875,9.135000000000002,-0.214476,-0.15250000000000002,-1.797548,4
2024-06-14 09:15:24.323,22.259999999999998,431.27,9.485,-0.19397999999999999,-0.151036,-1.894172,4
2024-06-14 09:15:24.328,26.11,434.7,8.365,-0.17055599999999999,-0.146644,-2.0008,4
2024-06-14 09:15:24.333,29.715,438.445,5.775,-0.13663999999999998,-0.149816,-2.113772,4
2024-06-14 09:15:24.338,33.005,440.755,2.4850000000000003,-0.108092,-0.15445199999999998,-2.243092,4
2024-06-14 09:15:24.342,36.295,442.19,-1.2950000000000002,-0.071492,-0.17177599999999998,-2.3846119999999997,4
2024-06-14 09:15:24.347,39.795,441.35,-4.97,-0.042943999999999996,-0.1891,-2.5366239999999998,4
2024-06-14 09:15:24.352,44.59,439.985,-8.47,-0.020007999999999998,-0.205204,-2.6915639999999996,4
2024-06-14 09:15:24.357,50.364999999999995,437.5,-11.690000000000001,-0.0009759999999999999,-0.22716399999999998,-2.873588,4
2024-06-14 09:15:24.362,56.77,435.08500000000004,-14.7,0.048068,-0.24766,-3.0773279999999996,4
2024-06-14 09:15:24.367,62.125,432.91499999999996,-18.725,0.130052,-0.26522799999999996,-3.2798480000000003,4
2024-06-14 09:15:24.371,64.19,432.91499999999996,-24.605,0.267912,-0.27425599999999994,-3.4128279999999998,4
2024-06-14 09:15:24.376,62.93,436.45,-32.865,0.5163040000000001,-0.210572,-3.3676880000000002,4
2024-06-14 09:15:24.381,68.285,443.905,-40.18,0.67832,-0.20495999999999998,-3.47456,4
2024-06-14 09:15:24.386,80.43,447.405,-41.894999999999996,0.898896,-0.210084,-3.595584,4
2024-06-14 09:15:24.391,87.71000000000001,448.17499999999995,-41.23,1.162416,-0.17397200000000002,-3.583872,4
2024-06-14 09:15:24.396,84.21000000000001,446.915,-41.51,1.36762,-0.14713199999999999,-3.5675239999999997,4
2024-06-14 09:15:24.400,73.185,439.46,-41.825,1.5572080000000001,-0.109556,-3.529948,4
2024-06-14 09:15:24.405,34.754999999999995,383.18,-44.31,2.609336,0.021227999999999997,-4.77508,4
2024-06-14 09:15:24.410,21.77,406.105,-44.17,1.210972,0.008539999999999999,-1.384944,4
2024-06-14 09:15:24.415,-0.5249999999999995,379.75,-41.894999999999996,2.05448,-0.36844,-2.3833919999999997,4
2024-06-14 09:15:24.420,-4.165,380.765,-29.259999999999998,2.5939639999999997,-0.478484,-3.256424,4
2024-06-14 09:15:24.425,18.794999999999998,351.575,-10.885,3.0382879999999997,-0.57096,-3.2354399999999996,4
2024-06-14 09:15:24.429,38.745,328.055,7.0,3.29522,-0.522404,-2.513688,4
2024-06-14 09:15:24.434,52.535,305.235,23.555,3.5480039999999997,-0.458232,-1.870992,4
2024-06-14 09:15:24.439,63.77,282.45000000000005,40.040000000000006,3.841048,-0.339404,-1.633824,4
2024-06-14 09:15:24.444,75.03999999999999,250.635,55.334999999999994,4.192895999999999,-0.114192,-1.6108879999999999,4
2024-06-14 09:15:24.449,91.56,212.485,67.2,4.5671919999999995,0.18275599999999997,-1.53354,4
2024-06-14 09:15:24.454,110.845,173.635,73.815,4.955640000000001,0.5219159999999999,-1.4208120000000002,4
2024-06-14 09:15:24.458,120.05,136.36,73.885,5.418996,0.8339920000000001,-1.3820160000000001,4
2024-06-14 09:15:24.463,110.39,98.525,67.55,5.719116,1.075796,-1.387628,4
2024-06-14 09:15:24.468,75.91499999999999,54.879999999999995,56.525,5.682028,1.1712000000000002,-1.433256,4
2024-06-14 09:15:24.473,23.485,4.095,42.245000000000005,5.39362,1.190232,-1.4283759999999999,4
2024-06-14 09:15:24.478,-28.560000000000002,-48.93,25.515,4.963203999999999,1.105564,-1.402024,4
2024-06-14 09:15:24.483,-66.325,-97.22999999999999,7.28,4.509364,0.931348,-1.4159319999999997,4
2024-06-14 09:15:24.487,-83.09,-137.095,-11.48,4.020144,0.7139439999999999,-1.4935239999999999,4
