time,gyroscope_x,gyroscope_y,gyroscope_z,accelerometer_x,accelerometer_y,accelerometer_z,phase
2024-06-14 12:32:01.708,212.695,-510.09,-6.824999999999999,4.944416,-4.892444,-7.116748,1
2024-06-14 12:32:01.712,194.215,-120.015,-77.77,-3.932304,-0.070272,1.652124,1
2024-06-14 12:32:01.717,116.58500000000001,-350.63,-42.28,-1.91784,1.644804,2.082296,1
2024-06-14 12:32:01.722,122.64,-392.105,-45.254999999999995,-1.964932,1.133624,-1.074576,1
2024-06-14 12:32:01.727,103.95,-438.865,-14.56,-0.298412,-0.5338719999999999,-1.263188,1
2024-06-14 12:32:01.732,71.61,-449.04999999999995,3.325,0.538996,0.04050399999999999,-1.421544,1
2024-06-14 12:32:01.736,60.34,-430.91999999999996,0.07,1.3256519999999998,0.503616,-1.427156,1
2024-06-14 12:32:01.741,53.900000000000006,-412.15999999999997,5.88,0.9803919999999999,0.027816,-2.175504,1
2024-06-14 12:32:01.746,56.80500000000001,-365.61,15.365,0.269132,-0.15079199999999998,-2.588596,1
2024-06-14 12:32:01.751,80.28999999999999,-320.81,4.2,0.021716,-0.134688,-2.451224,1
2024-06-14 12:32:01.756,95.27,-283.64,-17.255,0.173484,-0.217404,-2.4912400000000003,1
2024-06-14 12:32:01.760,100.555,-244.405,-35.42,0.199836,-0.378444,-2.402424,1
2024-06-14 12:32:01.765,84.875,-207.655,-47.144999999999996,0.20910800000000002,-0.120292,-2.46928,1
2024-06-14 12:32:01.770,61.495000000000005,-165.2,-46.165000000000006,0.227896,0.204228,-2.1045,1
2024-06-14 12:32:01.775,42.349999999999994,-130.69,-30.45,0.46164799999999995,0.44700799999999996,-1.828048,1
2024-06-14 12:32:01.780,20.545,-94.255,-7.455,0.610488,0.361364,-1.7958399999999999,1
2024-06-14 12:32:01.785,4.935,-67.48,15.434999999999999,0.5155719999999999,0.16909200000000002,-1.589416,1
2024-06-14 12:32:01.789,-1.68,-52.185,23.17,0.20862,-0.094916,-1.5193880000000002,1
2024-06-14 12:32:01.794,-2.555,-47.39,12.775000000000002,-0.048068,-0.12102399999999999,-1.2663600000000002,1
2024-06-14 12:32:01.799,-3.3600000000000003,-48.894999999999996,-0.8400000000000001,-0.12029200000000001,-0.049288,-1.079212,1
2024-06-14 12:32:01.804,-8.434999999999999,-45.605000000000004,-7.175,-0.049288000000000005,0.06709999999999999,-1.005768,2
2024-06-14 12:32:01.809,-14.665,-37.275000000000006,-3.815,0.035624,0.189832,-0.9867360000000001,2
2024-06-14 12:32:01.813,-16.485,-27.335,3.29,0.12736799999999998,0.181048,-1.04188,2
2024-06-14 12:32:01.818,-12.530000000000001,-22.645,5.355,0.113704,0.14688800000000002,-1.074088,2
2024-06-14 12:32:01.823,-6.475,-18.865000000000002,1.7149999999999999,0.06832,0.088572,-1.0911680000000001,2
2024-06-14 12:32:01.828,-3.5700000000000003,-16.415,-2.24,0.023424,0.066368,-1.121912,2
2024-06-14 12:32:01.833,-4.48,-15.015,-2.9050000000000002,0.004391999999999999,0.076372,-1.05408,2
2024-06-14 12:32:01.837,-4.48,-14.07,-1.75,-0.0014640000000000002,0.12492799999999998,-1.0396839999999998,2
2024-06-14 12:32:01.842,-3.36,-12.809999999999999,-1.19,0.001952,0.13054,-1.053348,2
2024-06-14 12:32:01.847,-1.5750000000000002,-12.46,-1.4,-0.016592,0.08271599999999998,-1.0716480000000002,2
2024-06-14 12:32:01.852,-0.805,-13.125,-1.75,-0.013176,0.084668,-1.089216,2
2024-06-14 12:32:01.857,-0.27999999999999997,-13.895,-1.855,-0.019520000000000003,0.09174399999999999,-1.081164,2
2024-06-14 12:32:01.861,0.03499999999999999,-14.77,-1.505,-0.027327999999999998,0.103212,-1.070184,2
2024-06-14 12:32:01.866,0.8049999999999999,-15.120000000000001,-1.33,-0.027816,0.118584,-1.0604239999999998,2
2024-06-14 12:32:01.871,1.575,-15.47,-1.33,-0.008296,0.09906400000000001,-1.038952,2
2024-06-14 12:32:01.876,1.89,-15.96,-1.295,-0.028792,0.107848,-1.054324,2
2024-06-14 12:32:01.881,2.485,-16.205,-1.47,-0.02562,0.10492,-1.053836,2
2024-06-14 12:32:01.886,2.8,-16.695,-1.6099999999999999,-0.029523999999999998,0.114192,-1.048224,2
2024-06-14 12:32:01.890,3.675,-17.71,-1.505,-0.030011999999999997,0.12273200000000001,-1.046272,2
2024-06-14 12:32:01.895,4.55,-17.675,-1.6099999999999999,-0.027327999999999998,0.122,-1.03578,2
2024-06-14 12:32:01.900,5.18,-17.78,-1.645,-0.022448,0.114436,-1.030412,2
2024-06-14 12:32:01.905,5.529999999999999,-17.5,-1.68,-0.019764,0.115656,-1.02602,2
2024-06-14 12:32:01.910,5.74,-17.675,-1.645,-0.022448000000000003,0.111264,-1.030656,2
2024-06-14 12:32:01.914,6.16,-18.41,-1.54,-0.024643999999999996,0.11956,-1.022848,2
2024-06-14 12:32:01.919,6.3,-19.075,-1.61,-0.024156,0.112728,-1.0311439999999998,2
2024-06-14 12:32:01.924,6.895,-20.23,-1.575,-0.01952,0.111752,-1.027484,2
2024-06-14 12:32:01.929,7.105,-21.07,-1.645,-0.015127999999999999,0.10955599999999999,-1.026996,2
2024-06-14 12:32:01.934,7.35,-21.35,-1.6099999999999999,-0.011712,0.113948,-1.020164,2
2024-06-14 12:32:01.938,7.49,-21.35,-1.75,-0.003416,0.10492000000000001,-1.0182120000000001,2
2024-06-14 12:32:01.943,7.3149999999999995,-20.895,-1.855,-0.0026839999999999998,0.108824,-1.0116239999999999,2
2024-06-14 12:32:01.948,7.525,-20.79,-2.065,0.001464,0.110288,-1.006256,2
2024-06-14 12:32:01.953,7.455,-20.335,-2.38,0.000488,0.116632,-1.003084,2
2024-06-14 12:32:01.958,7.63,-19.705,-2.5549999999999997,-0.0019520000000000002,0.112484,-1.00406,2
2024-06-14 12:32:01.963,7.875,-19.005,-2.73,0.007564000000000001,0.112484,-0.9957640000000001,2
2024-06-14 12:32:01.967,7.734999999999999,-18.9,-3.115,0.007808000000000001,0.110044,-1.00894,2
2024-06-14 12:32:01.972,7.84,-18.445,-3.395,0.004148,0.10858,-1.007476,2
2024-06-14 12:32:01.977,7.595,-18.095,-3.675,0.009028000000000001,0.10980000000000001,-1.008696,2
2024-06-14 12:32:01.982,7.595,-17.955,-3.5700000000000003,0.013176,0.101748,-1.011136,2
2024-06-14 12:32:01.987,7.140000000000001,-17.57,-3.64,0.011956,0.09028,-1.013576,2
2024-06-14 12:32:01.991,6.37,-17.045,-3.535,0.016836,0.08881599999999999,-1.017236,2
2024-06-14 12:32:01.996,5.425,-16.939999999999998,-3.325,0.020007999999999998,0.08003199999999999,-1.01626,2
2024-06-14 12:32:02.001,4.27,-16.59,-3.045,0.020496,0.081008,-1.017968,2
2024-06-14 12:32:02.006,3.045,-16.799999999999997,-2.695,0.02196,0.077836,-1.016016,2
2024-06-14 12:32:02.011,1.75,-16.310000000000002,-2.485,0.021471999999999998,0.07564000000000001,-1.0218720000000001,2
2024-06-14 12:32:02.015,0.665,-16.45,-2.17,0.025131999999999998,0.078812,-1.021628,2
2024-06-14 12:32:02.020,-0.455,-16.52,-1.9249999999999998,0.024644,0.088328,-1.0248,2
2024-06-14 12:32:02.025,-1.26,-17.22,-1.75,0.024155999999999997,0.090524,-1.02724,2
2024-06-14 12:32:02.030,-1.7149999999999999,-17.57,-1.785,0.024156,0.097356,-1.025532,2
2024-06-14 12:32:02.035,-1.855,-18.165,-1.8199999999999998,0.022447999999999996,0.10369999999999999,-1.024068,2
2024-06-14 12:32:02.039,-1.855,-18.935000000000002,-2.065,0.018056,0.107848,-1.02602,2
2024-06-14 12:32:02.044,-1.82,-19.39,-2.31,0.028548,0.110044,-1.02358,2
2024-06-14 12:32:02.049,-1.505,-19.985,-2.3449999999999998,0.030744,0.10614,-1.0238239999999998,2
2024-06-14 12:32:02.054,-1.435,-20.685000000000002,-2.5549999999999997,0.032695999999999996,0.105408,-1.0226039999999998,2
2024-06-14 12:32:02.059,-1.05,-20.79,-2.6950000000000003,0.032695999999999996,0.107116,-1.02358,2
2024-06-14 12:32:02.064,-0.98,-21.245,-2.87,0.035136,0.109556,-1.019432,2
2024-06-14 12:32:02.068,-0.8400000000000001,-21.175,-3.01,0.037332000000000004,0.101992,-1.02236,2
2024-06-14 12:32:02.073,-0.9450000000000001,-21.525,-3.045,0.03782,0.09662399999999999,-1.0274839999999998,2
2024-06-14 12:32:02.078,-1.12,-20.055,-3.185,0.041479999999999996,0.09516,-1.0287039999999998,2
2024-06-14 12:32:02.083,2.17,-11.375,-1.015,0.038552,0.10247999999999999,-1.01992,2
2024-06-14 12:32:02.088,-1.54,-21.245,-4.375,0.044896000000000005,0.09052400000000001,-1.03212,2
2024-06-14 12:32:02.092,-3.01,-24.15,-1.96,0.046848,0.09272,-1.034072,2
2024-06-14 12:32:02.097,-1.995,-22.994999999999997,-1.085,0.04758,0.094672,-1.0389519999999999,2
2024-06-14 12:32:02.102,-4.795,-24.045,-2.66,0.044408,0.097356,-1.039196,2
2024-06-14 12:32:02.107,36.120000000000005,-115.605,6.51,0.018299999999999997,0.14884,-0.976488,2
2024-06-14 12:32:02.112,1.085,-30.1,-0.3849999999999998,0.047824,0.092476,-1.0494439999999998,2
2024-06-14 12:32:02.116,-9.345,-29.4,-0.8050000000000002,0.053192,0.102724,-1.0482239999999998,2
2024-06-14 12:32:02.121,-4.654999999999999,-29.12,-4.13,0.057583999999999996,0.105896,-1.039928,2
2024-06-14 12:32:02.126,-5.495,-29.89,-4.34,0.056119999999999996,0.108336,-1.0460280000000002,2
2024-06-14 12:32:02.131,-8.645,-32.305,-1.435,0.062952,0.096868,-1.047004,2
2024-06-14 12:32:02.136,-5.145,-32.725,-0.8399999999999999,0.06368399999999999,0.099552,-1.053592,2
2024-06-14 12:32:02.141,-10.535,-34.685,-3.8150000000000004,0.061,0.09394,-1.086044,2
2024-06-14 12:32:02.145,-7.105,-37.625,-3.955,0.064416,0.107848,-1.03944,2
2024-06-14 12:32:02.150,-11.305,-37.8,-2.66,0.06880800000000001,0.1037,-1.0792119999999998,2
2024-06-14 12:32:02.155,-9.31,-40.46,-0.5599999999999999,0.07441999999999999,0.083692,-1.0723799999999999,2
2024-06-14 12:32:02.160,-12.004999999999999,-42.945,-2.1350000000000002,0.068808,0.112728,-1.095804,2
2024-06-14 12:32:02.165,-10.36,-44.66,-3.22,0.07905599999999999,0.101504,-1.076528,2
2024-06-14 12:32:02.169,-10.115,-46.06,-2.765,0.07564,0.11102,-1.084092,2
2024-06-14 12:32:02.174,-9.030000000000001,-47.81,-1.26,0.083448,0.101504,-1.084092,2
2024-06-14 12:32:02.179,-8.015,-46.2,-1.19,0.101504,0.11199600000000001,-1.0943399999999999,2
2024-06-14 12:32:02.184,-8.54,-51.24,-2.17,0.081496,0.098088,-1.1211799999999998,2
2024-06-14 12:32:02.189,-1.295,-51.730000000000004,-1.225,0.086376,0.101504,-1.142896,2
2024-06-14 12:32:02.193,4.585,-54.565,-0.21000000000000008,0.08881599999999999,0.12151199999999998,-1.16876,2
2024-06-14 12:32:02.198,5.46,-61.04,3.78,0.071004,0.078324,-1.02846,2
2024-06-14 12:32:02.203,2.38,-58.17,-0.8400000000000001,0.102236,0.106628,-1.1870599999999998,2
2024-06-14 12:32:02.208,-7.595000000000001,-60.655,-1.33,0.10052799999999999,0.108336,-1.168028,2
2024-06-14 12:32:02.213,-10.185,-67.62,-1.19,0.106872,0.096624,-1.1763240000000001,2
2024-06-14 12:32:02.217,-10.045,-69.265,-0.63,0.10638399999999999,0.09296399999999999,-1.292224,2
2024-06-14 12:32:02.222,-8.645,-72.625,-0.63,0.104188,0.110288,-1.195112,2
2024-06-14 12:32:02.227,-13.79,-77.595,-1.54,0.10467599999999999,0.11712,-1.260504,2
2024-06-14 12:32:02.230,-16.975,-84.63,-1.54,0.11760799999999999,0.11516799999999999,-1.288564,2
2024-06-14 12:32:02.235,-19.915,-90.755,-2.1,0.114436,0.132004,-1.2849039999999998,2
2024-06-14 12:32:02.240,-19.985,-97.475,-2.7649999999999997,0.114924,0.12932,-1.319308,2
2024-06-14 12:32:02.244,-20.439999999999998,-105.735,-4.165,0.11102,0.13322399999999998,-1.348344,2
2024-06-14 12:32:02.249,-19.39,-112.84,-5.6,0.11663199999999999,0.175192,-1.386652,3
2024-06-14 12:32:02.254,-17.57,-119.21000000000001,-7.735,0.111264,0.210084,-1.41032,3
2024-06-14 12:32:02.259,-13.195,-127.01499999999999,-9.309999999999999,0.113948,0.186416,-1.4544839999999999,3
2024-06-14 12:32:02.264,-12.81,-136.78,-11.2,0.106628,0.207644,-1.434964,3
2024-06-14 12:32:02.269,-11.655000000000001,-146.195,-13.16,0.09394,0.176168,-1.4803479999999998,3
2024-06-14 12:32:02.273,-10.815000000000001,-155.995,-14.245,0.125904,0.152988,-1.536468,3
2024-06-14 12:32:02.278,-10.01,-165.865,-14.77,0.10614,0.14883999999999997,-1.635532,3
2024-06-14 12:32:02.283,-9.73,-178.85000000000002,-14.875,0.12102399999999999,0.171288,-1.710928,3
2024-06-14 12:32:02.288,-7.805,-192.64,-16.275,0.10613999999999998,0.21301199999999998,-1.736792,3
2024-06-14 12:32:02.293,-4.83,-210.0,-18.865000000000002,0.08369199999999999,0.251808,-1.794864,3
2024-06-14 12:32:02.298,-0.9450000000000001,-228.16500000000002,-21.77,0.059292,0.24888,-1.8780679999999998,3
2024-06-14 12:32:02.302,3.115,-246.82,-24.36,0.061488,0.25546800000000003,-1.9703,3
2024-06-14 12:32:02.307,6.51,-266.56,-26.880000000000003,0.083204,0.26596,-2.0718039999999998,3
2024-06-14 12:32:02.312,9.555,-288.015,-29.189999999999998,0.049288,0.248636,-2.2574880000000004,3
2024-06-14 12:32:02.317,13.440000000000001,-309.33000000000004,-31.675000000000004,0.06222,0.2788919999999999,-2.298724,3
2024-06-14 12:32:02.322,20.37,-334.53,-33.845,0.101504,0.296704,-2.548824,3
2024-06-14 12:32:02.326,27.509999999999998,-359.345,-35.735,0.062464,0.36112,-2.69864,3
2024-06-14 12:32:02.331,32.795,-382.865,-38.29,0.08027600000000001,0.40869999999999995,-2.812588,3
2024-06-14 12:32:02.336,35.56,-406.175,-41.335,0.100284,0.523136,-3.019744,3
2024-06-14 12:32:02.341,37.8,-425.11,-46.480000000000004,0.130052,0.6234200000000001,-3.0631760000000003,3
2024-06-14 12:32:02.346,37.17,-444.255,-51.975,0.051972,0.645624,-3.126616,3
2024-06-14 12:32:02.351,34.334999999999994,-457.065,-56.735,0.006100000000000001,0.565592,-3.088064,3
2024-06-14 12:32:02.355,28.875,-472.99,-59.325,0.06124399999999999,0.45676799999999995,-3.126128,3
2024-06-14 12:32:02.360,20.37,-487.2,-60.27,0.004148,0.405772,-3.094408,3
2024-06-14 12:32:02.365,5.46,-492.31,-60.864999999999995,0.0732,0.35014,-3.208844,3
2024-06-14 12:32:02.370,-3.15,-495.145,-59.71,0.094428,0.21716000000000002,-3.1012399999999998,3
2024-06-14 12:32:02.375,-7.035,-493.32500000000005,-58.45,0.066368,0.09345200000000001,-2.9697240000000003,3
2024-06-14 12:32:02.380,-15.435,-526.75,-55.44,0.077348,0.040504,-1.8231680000000001,3
2024-06-14 12:32:02.384,1.0150000000000001,-485.24,-48.019999999999996,-0.274256,-0.08832799999999999,-3.7924919999999993,3
2024-06-14 12:32:02.389,-8.715,-475.15999999999997,-45.010000000000005,-0.6954,0.097112,-3.006324,3
2024-06-14 12:32:02.394,-9.73,-466.34000000000003,-43.75,-1.0187,0.18031599999999998,-2.6144600000000002,3
2024-06-14 12:32:02.399,-19.25,-451.04499999999996,-45.010000000000005,-1.303204,0.275964,-2.2018560000000003,3
2024-06-14 12:32:02.404,-31.534999999999997,-423.745,-49.35,-1.4996239999999998,0.385764,-1.5128,3
2024-06-14 12:32:02.409,-34.195,-412.86,-57.68,-1.6948239999999999,0.498004,-1.376404,3
2024-06-14 12:32:02.413,-46.34,-384.02,-69.195,-1.8373199999999998,0.549976,-0.823744,3
2024-06-14 12:32:02.418,-61.075,-353.53499999999997,-91.245,-1.8041359999999997,0.610976,-0.442616,3
2024-06-14 12:32:02.423,-77.175,-349.58000000000004,-114.205,-0.947452,0.92476,0.07076,3
2024-06-14 12:32:02.428,-91.875,-311.605,-124.46000000000001,-0.9808800000000001,0.5663239999999999,-1.326628,4
2024-06-14 12:32:02.433,-120.75,-217.76999999999998,-120.29499999999999,-1.334436,0.289872,-1.77022,4
2024-06-14 12:32:02.438,-133.035,-122.675,-102.725,-1.636508,-0.012444,-1.234152,4
2024-06-14 12:32:02.442,-115.185,-39.269999999999996,-73.39500000000001,-1.729472,-0.23912,-0.8654679999999999,4
2024-06-14 12:32:02.447,-70.105,35.7,-35.42,-1.524756,-0.43529599999999996,-0.747616,4
2024-06-14 12:32:02.452,-13.825000000000001,95.655,4.585000000000001,-1.308572,-0.5119119999999999,-0.855464,4
2024-06-14 12:32:02.457,40.915,139.685,38.955,-1.182912,-0.45945199999999997,-0.9154879999999999,4
2024-06-14 12:32:02.462,88.375,169.575,64.4,-1.074576,-0.3172,-0.781776,4
2024-06-14 12:32:02.466,129.04500000000002,186.58499999999998,80.71000000000001,-1.009672,-0.128832,-0.672952,4
2024-06-14 12:32:02.471,154.385,196.49,88.16499999999999,-0.96014,0.05978,-0.63928,4
2024-06-14 12:32:02.476,161.035,202.685,88.655,-0.909632,0.268156,-0.61732,4
2024-06-14 12:32:02.481,150.185,207.235,83.3,-0.869128,0.448472,-0.575352,4
2024-06-14 12:32:02.486,124.775,212.73000000000002,73.67500000000001,-0.846192,0.583892,-0.5094719999999999,4
2024-06-14 12:32:02.491,91.455,219.66000000000003,60.69,-0.823256,0.6670959999999999,-0.45554799999999995,4
2024-06-14 12:32:02.495,55.790000000000006,227.95499999999998,46.06,-0.783728,0.682956,-0.437492,4
2024-06-14 12:32:02.500,22.26,236.95,31.255,-0.748104,0.637572,-0.44530000000000003,4
2024-06-14 12:32:02.505,-5.285,246.19,17.64,-0.7127239999999999,0.5380199999999999,-0.455792,4
2024-06-14 12:32:02.510,-23.59,255.04500000000002,6.3,-0.68808,0.41357999999999995,-0.47018799999999994,4
2024-06-14 12:32:02.515,-31.814999999999998,263.69,-2.2399999999999998,-0.658556,0.27449999999999997,-0.49092800000000003,4
2024-06-14 12:32:02.520,-30.59,271.775,-7.49,-0.629032,0.152012,-0.5260639999999999,4
2024-06-14 12:32:02.524,-22.295,279.23,-10.045,-0.6038999999999999,0.06222,-0.565104,4
2024-06-14 12:32:02.529,-10.08,286.265,-10.465,-0.579012,0.015372,-0.6046320000000001,4
2024-06-14 12:32:02.534,2.5900000000000003,293.37,-9.66,-0.560468,0.0017079999999999999,-0.650992,4
2024-06-14 12:32:02.539,13.195,300.58000000000004,-8.225,-0.5333839999999999,0.021228,-0.693936,4
2024-06-14 12:32:02.544,19.53,307.93,-7.105,-0.515572,0.055388,-0.73932,4
2024-06-14 12:32:02.549,20.405,315.245,-6.545,-0.49824799999999997,0.099552,-0.780312,4
2024-06-14 12:32:02.553,16.625,322.245,-6.615,-0.482632,0.136884,-0.809836,4
2024-06-14 12:32:02.558,9.8,328.51,-6.965,-0.45554799999999995,0.154696,-0.8425320000000001,4
2024-06-14 12:32:02.563,1.75,333.55,-7.595,-0.42944,0.158112,-0.8732759999999999,4
2024-06-14 12:32:02.568,-6.02,337.225,-8.19,-0.40747999999999995,0.14884000000000003,-0.9003599999999999,4
2024-06-14 12:32:02.573,-12.530000000000001,339.85,-8.4,-0.377712,0.13298,-0.929884,4
2024-06-14 12:32:02.578,-17.185,341.32000000000005,-8.19,-0.346724,0.112972,-0.98332,4
2024-06-14 12:32:02.582,-20.265,341.985,-7.385,-0.316712,0.09272,-1.032608,4
2024-06-14 12:32:02.587,-21.805,342.37,-6.23,-0.298412,0.077104,-1.073112,4
2024-06-14 12:32:02.592,-22.015,343.14,-4.9,-0.287188,0.06612399999999999,-1.116056,4
2024-06-14 12:32:02.597,-22.225,344.295,-3.325,-0.27181599999999995,0.07027199999999999,-1.175348,4
2024-06-14 12:32:02.602,-22.715,345.59000000000003,-1.68,-0.26400799999999996,0.07686,-1.236592,4
2024-06-14 12:32:02.607,-23.905,347.375,-0.31499999999999995,-0.25229599999999996,0.09345200000000001,-1.310524,4
2024-06-14 12:32:02.611,-25.619999999999997,348.80999999999995,1.155,-0.244,0.105652,-1.389092,4
2024-06-14 12:32:02.616,-27.755000000000003,350.28,2.8,-0.23546,0.121268,-1.468392,4
2024-06-14 12:32:02.621,-29.924999999999997,351.575,5.145,-0.221796,0.131272,-1.54696,4
2024-06-14 12:32:02.626,-31.919999999999998,352.275,8.365,-0.212768,0.140788,-1.617476,4
2024-06-14 12:32:02.631,-33.879999999999995,352.065,12.565000000000001,-0.192272,0.150792,-1.693116,4
2024-06-14 12:32:02.635,-36.47,351.645,17.5,-0.166408,0.1647,-1.776564,4
2024-06-14 12:32:02.640,-39.515,349.86,22.645000000000003,-0.13639600000000002,0.17909599999999998,-1.87148,4
2024-06-14 12:32:02.645,-43.19,347.16499999999996,28.0,-0.10614,0.199348,-1.972496,4
2024-06-14 12:32:02.650,-46.445,343.70000000000005,33.705,-0.06466,0.216916,-2.063752,4
2024-06-14 12:32:02.655,-49.489999999999995,339.32500000000005,40.355000000000004,-0.019275999999999998,0.22521199999999997,-2.1596439999999997,4
2024-06-14 12:32:02.660,-52.010000000000005,334.495,48.335,0.03538,0.22838399999999998,-2.255536,4
2024-06-14 12:32:02.664,-54.075,329.07,57.995,0.10491999999999999,0.209596,-2.374364,4
2024-06-14 12:32:02.669,-55.19499999999999,324.1,69.86,0.193492,0.198128,-2.50588,4
2024-06-14 12:32:02.674,-53.375,319.30499999999995,84.28,0.321104,0.202764,-2.614948,4
2024-06-14 12:32:02.679,-46.864999999999995,315.90999999999997,100.905,0.51728,0.23277599999999998,-2.64618,4
2024-06-14 12:32:02.684,-37.485,316.96000000000004,118.685,0.7795799999999999,0.23546,-2.5498000000000003,4
2024-06-14 12:32:02.689,-39.725,317.485,132.685,0.853512,0.308172,-2.829668,4
2024-06-14 12:32:02.693,-56.07,322.0,137.26999999999998,1.019432,0.39283999999999997,-2.996808,4
2024-06-14 12:32:02.698,-66.815,331.345,137.97,1.273924,0.404064,-3.051464,4
2024-06-14 12:32:02.703,-68.985,339.01,136.465,1.499136,0.424316,-3.141256,4
2024-06-14 12:32:02.708,-67.97,347.34000000000003,131.565,1.7040959999999998,0.375272,-3.2000599999999997,4
2024-06-14 12:32:02.713,-61.425,356.475,124.775,1.915888,0.33110799999999996,-3.214944,4
2024-06-14 12:32:02.718,-44.66,363.58,116.97,2.103036,0.333792,-3.198352,4
2024-06-14 12:32:02.722,-18.759999999999998,367.22,107.66,2.263588,0.357704,-3.1322279999999996,4
2024-06-14 12:32:02.727,10.535,366.625,97.54499999999999,2.345816,0.39015599999999995,-2.97436,4
2024-06-14 12:32:02.732,35.42,358.78499999999997,87.36,2.226744,0.393328,-2.655208,4
2024-06-14 12:32:02.737,45.955,347.54999999999995,78.75,2.319464,0.31134399999999995,-2.4675719999999997,4
2024-06-14 12:32:02.742,28.770000000000003,337.78499999999997,68.88,2.65472,0.335012,-2.370704,4
2024-06-14 12:32:02.747,2.3449999999999998,324.065,55.44,2.989,0.35550800000000005,-2.195024,4
2024-06-14 12:32:02.751,-14.209999999999999,309.89,40.11,3.266672,0.440176,-1.880264,4
2024-06-14 12:32:02.756,-15.085,292.88,22.295,3.5253119999999996,0.601216,-1.579168,4
2024-06-14 12:32:02.761,-5.46,275.275,-0.5949999999999998,3.82226,0.764208,-1.322236,4
2024-06-14 12:32:02.766,6.475,255.85,-28.384999999999998,4.153124,0.867908,-1.1211799999999998,4
2024-06-14 12:32:02.771,8.715,233.975,-59.185,4.486672,0.868884,-0.9821,4
2024-06-14 12:32:02.774,-8.785,207.445,-89.775,4.747508,0.749812,-0.924028,4
2024-06-14 12:32:02.778,-43.96,175.42000000000002,-118.02000000000001,4.888540000000001,0.582428,-0.9271999999999999,4
2024-06-14 12:32:02.783,-82.845,136.57,-141.995,4.893908,0.383568,-0.930372,4
2024-06-14 12:32:02.788,-110.81,91.0,-160.47500000000002,4.7577560000000005,0.18519599999999997,-0.937692,4
2024-06-14 12:32:02.793,-119.49000000000001,38.29,-173.635,4.528884,0.016835999999999997,-0.945988,4
2024-06-14 12:32:02.798,-104.265,-17.71,-178.465,4.25902,-0.5985320000000001,-1.0740880000000002,4
