time,gyroscope_x,gyroscope_y,gyroscope_z,accelerometer_x,accelerometer_y,accelerometer_z,phase
2024-06-14 11:43:10.909,181.44,-149.52,-37.45,0.169336,-1.465952,-6.830536,1
2024-06-14 11:43:10.914,311.08,-374.36,31.92,0.730536,0.512888,-0.50264,1
2024-06-14 11:43:10.918,316.96,-281.19,39.9,-1.927112,0.916464,0.11516799999999999,1
2024-06-14 11:43:10.923,330.54,-271.39,57.54,-0.023912,0.19276,-0.27181599999999995,1
2024-06-14 11:43:10.928,332.43,-240.17,69.16,-1.73728,-0.567056,-2.807952,1
2024-06-14 11:43:10.933,208.39,-258.72,95.2,-1.05652,-0.438712,-1.8173119999999998,1
2024-06-14 11:43:10.938,151.55,-298.06,113.75,-0.421144,-0.078568,-1.310768,1
2024-06-14 11:43:10.943,119.42,-342.72,121.24,0.182024,-0.433832,-1.6792079999999998,1
2024-06-14 11:43:10.947,139.23,-349.44,126.0,0.726144,-0.360144,-2.8006320000000002,1
2024-06-14 11:43:10.952,72.24,-295.4,105.49,0.5675439999999999,-1.682136,-3.211528,1
2024-06-14 11:43:10.957,48.86,-245.28,75.74,0.429928,-0.835456,-2.850408,1
2024-06-14 11:43:10.962,34.37,-187.18,61.25,0.411872,-0.251808,-2.494168,1
2024-06-14 11:43:10.967,73.36,-96.32,51.59,0.506544,-0.8418,-3.33304,1
2024-06-14 11:43:10.971,42.07,16.94,8.19,0.398696,-0.27181599999999995,-1.941752,1
2024-06-14 11:43:10.976,49.91,14.63,-4.06,0.225456,0.241072,-1.416664,1
2024-06-14 11:43:10.981,46.76,-2.24,8.96,0.121512,-0.023424,-1.43472,2
2024-06-14 11:43:10.986,41.09,-19.67,9.94,0.094184,0.108336,-1.315648,2
2024-06-14 11:43:10.991,36.68,-32.55,22.75,0.023424,0.069296,-1.135576,2
2024-06-14 11:43:10.996,32.97,-33.53,30.73,-0.122488,-0.14200800000000002,-0.9823439999999999,2
2024-06-14 11:43:11.000,29.05,-19.04,20.65,-0.057095999999999994,-0.14688800000000002,-0.920368,2
2024-06-14 11:43:11.005,28.49,-13.3,6.16,0.056608,-0.233752,-0.98332,2
2024-06-14 11:43:11.010,24.92,-11.34,-4.34,0.059536,-0.168848,-0.988688,2
2024-06-14 11:43:11.015,16.87,-6.93,-3.71,0.10052799999999999,-0.081008,-1.080432,2
2024-06-14 11:43:11.020,12.95,-3.43,2.1,0.069296,0.042455999999999994,-1.1053199999999999,2
2024-06-14 11:43:11.025,16.87,0.91,3.99,-0.002928,0.09516,-1.06628,2
2024-06-14 11:43:11.029,23.73,3.08,2.03,-0.07564,0.005368,-1.023336,2
2024-06-14 11:43:11.034,24.71,5.95,-0.35,-0.10394400000000001,-0.083448,-1.0189439999999998,2
2024-06-14 11:43:11.039,20.65,7.49,-0.28,-0.064416,-0.121024,-1.09068,2
2024-06-14 11:43:11.044,14.07,5.04,0.28,-0.042944,-0.11419199999999999,-1.143384,2
2024-06-14 11:43:11.049,7.91,1.33,0.56,-0.08686400000000001,-0.091256,-1.10776,2
2024-06-14 11:43:11.053,3.29,-3.29,0.21,-0.13810399999999998,-0.074176,-1.0775039999999998,2
2024-06-14 11:43:11.058,0.91,-8.75,-0.21,-0.14688800000000002,-0.041968,-1.0857999999999999,2
2024-06-14 11:43:11.063,0.14,-14.77,-0.98,-0.12395199999999999,-0.031232,-1.1048319999999998,2
2024-06-14 11:43:11.068,-0.28,-20.02,-1.54,-0.10736,-0.052216,-1.091656,2
2024-06-14 11:43:11.073,-2.1,-24.92,-1.26,-0.108336,-0.077592,-1.0687200000000001,2
2024-06-14 11:43:11.078,-5.18,-30.52,-1.12,-0.11419199999999999,-0.08491199999999999,-1.072136,2
2024-06-14 11:43:11.082,-8.61,-37.87,-1.19,-0.110776,-0.078568,-1.0857999999999999,2
2024-06-14 11:43:11.087,-11.2,-45.64,-1.26,-0.099064,-0.06344,-1.092632,2
2024-06-14 11:43:11.092,-12.53,-51.94,-1.33,-0.09711199999999999,-0.040504,-1.081896,2
2024-06-14 11:43:11.097,-13.02,-55.58,-1.4,-0.09955199999999999,-0.033671999999999994,-1.06628,2
2024-06-14 11:43:11.102,-12.53,-58.1,-1.47,-0.098576,-0.033671999999999994,-1.060912,2
2024-06-14 11:43:11.107,-11.62,-58.8,-1.68,-0.081984,-0.034159999999999996,-1.064816,2
2024-06-14 11:43:11.111,-9.94,-59.99,-1.96,-0.066368,-0.022936,-1.074576,2
2024-06-14 11:43:11.116,-9.94,-63.07,-2.1,-0.06490399999999999,-0.056608,-1.038952,2
2024-06-14 11:43:11.121,-10.64,-63.63,-1.82,-0.056119999999999996,-0.051728,-1.0296800000000002,2
2024-06-14 11:43:11.126,-11.27,-64.75,-1.54,-0.052216,-0.037576,-1.021872,2
2024-06-14 11:43:11.131,-13.86,-54.32,-1.12,-0.056119999999999996,-0.030256,-1.00284,2
2024-06-14 11:43:11.135,-9.8,-67.2,-1.19,-0.06831999999999999,-0.0366,-1.000888,2
2024-06-14 11:43:11.140,-5.81,-63.0,-1.12,-0.028304,-0.047824,-1.0238239999999998,2
2024-06-14 11:43:11.145,-11.76,-50.12,-0.77,-0.00976,-0.042455999999999994,-1.007232,2
2024-06-14 11:43:11.150,-16.66,-57.61,-0.07,-0.016592,-0.032695999999999996,-1.003328,2
2024-06-14 11:43:11.155,-10.01,-62.79,-0.49,-0.00244,-0.031232,-1.0004,2
2024-06-14 11:43:11.160,-9.1,-59.99,-1.89,0.001464,-0.037088,-1.002352,2
2024-06-14 11:43:11.164,-7.98,-60.2,-0.91,0.0034159999999999998,-0.043432000000000005,-1.001864,2
2024-06-14 11:43:11.169,-7.63,-60.69,0.77,0.003904,-0.023912,-1.007232,2
2024-06-14 11:43:11.174,-6.65,-56.84,0.42,0.012199999999999999,-0.024887999999999997,-0.9989359999999999,2
2024-06-14 11:43:11.179,4.55,-19.32,-1.54,0.015616,-0.018544,-1.001376,2
2024-06-14 11:43:11.184,-5.32,-51.87,-2.45,0.020007999999999998,-0.021472,-1.000888,2
2024-06-14 11:43:11.189,-5.88,-45.99,-0.56,0.01952,-0.016592,-1.003816,2
2024-06-14 11:43:11.193,-4.27,-42.84,0.98,0.015128,-0.019032,-1.0140639999999999,2
2024-06-14 11:43:11.198,-12.32,-36.19,-1.82,0.012688,0.004391999999999999,-1.0248,2
2024-06-14 11:43:11.203,-5.18,-36.33,-3.22,0.013663999999999999,-0.00732,-1.020896,2
2024-06-14 11:43:11.208,-3.71,-35.98,-3.01,0.023912,-0.00976,-1.01504,2
2024-06-14 11:43:11.213,0.07,-34.65,-1.19,0.03172,-0.008783999999999998,-1.022848,2
2024-06-14 11:43:11.217,-0.14,-33.46,-1.54,0.03904,-0.02684,-1.011624,2
2024-06-14 11:43:11.222,1.33,-32.2,-2.66,0.043432000000000005,-0.029768,-1.0140639999999999,2
2024-06-14 11:43:11.227,0.28,-31.01,-2.8,0.044408,-0.032208,-1.013576,2
2024-06-14 11:43:11.232,0.07,-29.75,-1.96,0.05124,-0.024399999999999998,-1.013576,2
2024-06-14 11:43:11.237,0.56,-28.84,-1.96,0.049288,-0.024399999999999998,-1.0194320000000001,2
2024-06-14 11:43:11.242,1.33,-28.0,-3.29,0.047335999999999996,-0.009272,-1.016992,2
2024-06-14 11:43:11.246,3.22,-27.23,-4.34,0.050752,-0.009272,-1.0091839999999999,2
2024-06-14 11:43:11.251,4.69,-26.11,-4.41,0.054168,-0.008783999999999998,-1.008208,2
2024-06-14 11:43:11.256,6.37,-25.62,-4.13,0.057583999999999996,-0.025864,-1.001864,2
2024-06-14 11:43:11.261,7.14,-24.43,-4.62,0.059048,-0.02928,-1.002352,2
2024-06-14 11:43:11.266,7.98,-23.87,-5.18,0.059536,-0.0366,-0.999912,2
2024-06-14 11:43:11.271,8.82,-23.38,-5.18,0.059536,-0.035624,-1.013088,2
2024-06-14 11:43:11.275,9.38,-23.17,-4.69,0.057583999999999996,-0.024887999999999997,-1.023336,2
2024-06-14 11:43:11.280,10.57,-23.52,-4.69,0.056119999999999996,-0.02684,-1.024312,2
2024-06-14 11:43:11.285,11.48,-24.85,-5.18,0.055144,-0.027816,-1.04432,2
2024-06-14 11:43:11.290,12.46,-27.23,-5.53,0.055632,-0.013176,-1.070672,2
2024-06-14 11:43:11.295,13.58,-30.52,-5.11,0.054655999999999996,-0.00976,-1.082384,2
2024-06-14 11:43:11.299,14.35,-34.16,-4.41,0.056119999999999996,-0.009272,-1.098,2
2024-06-14 11:43:11.304,14.7,-38.64,-4.27,0.06588,-0.02928,-1.1350879999999999,2
2024-06-14 11:43:11.309,14.14,-43.26,-4.2,0.07173600000000001,-0.05124,-1.163392,3
2024-06-14 11:43:11.314,13.16,-48.09,-3.92,0.05368,-0.05124,-1.165832,3
2024-06-14 11:43:11.319,9.38,-51.66,-3.5,0.08637600000000001,-0.036112000000000005,-1.1716879999999998,3
2024-06-14 11:43:11.324,7.7,-50.12,-3.22,0.07222400000000001,-0.10003999999999999,-1.2722159999999998,3
2024-06-14 11:43:11.328,5.67,-57.05,-2.45,0.07564,-0.047335999999999996,-1.218536,3
2024-06-14 11:43:11.333,3.22,-61.04,-2.38,0.08686400000000001,-0.04636,-1.252208,3
2024-06-14 11:43:11.338,1.26,-64.75,-2.1,0.09516,-0.09272,-1.267336,3
2024-06-14 11:43:11.343,-1.12,-67.83,-1.12,0.09467199999999999,-0.081008,-1.303936,3
2024-06-14 11:43:11.348,-5.95,-69.44,-1.26,0.092232,-0.113704,-1.272704,3
2024-06-14 11:43:11.353,-8.26,-70.7,-0.14,0.088816,-0.13907999999999998,-1.274656,3
2024-06-14 11:43:11.357,-11.62,-74.13,1.19,0.093696,-0.110776,-1.252208,3
2024-06-14 11:43:11.362,-15.4,-76.16,2.38,0.102968,-0.11516799999999999,-1.2932000000000001,3
2024-06-14 11:43:11.367,-17.57,-79.66,3.43,0.103456,-0.09272,-1.32492,3
2024-06-14 11:43:11.372,-19.39,-83.44,4.62,0.095648,-0.126392,-1.363472,3
2024-06-14 11:43:11.377,-15.89,-87.99,6.65,0.094184,-0.09272,-1.511824,3
2024-06-14 11:43:11.380,-15.96,-97.72,7.28,0.09711199999999999,0.00244,-1.4571679999999998,3
2024-06-14 11:43:11.384,-17.78,-106.19,6.65,0.102968,-0.037088,-1.416664,3
2024-06-14 11:43:11.389,-18.13,-115.08,6.93,0.108336,-0.077592,-1.413248,3
2024-06-14 11:43:11.394,-20.3,-123.76,7.35,0.09955199999999999,-0.09516,-1.442528,3
2024-06-14 11:43:11.399,-22.26,-132.23,8.26,0.101016,-0.096136,-1.528416,3
2024-06-14 11:43:11.404,-23.87,-143.36,8.68,0.093696,-0.08784,-1.5767280000000001,3
2024-06-14 11:43:11.408,-25.48,-155.75,8.75,0.088816,-0.020496,-1.6084479999999999,3
2024-06-14 11:43:11.413,-25.48,-169.54,8.05,0.083448,0.030744,-1.67872,3
2024-06-14 11:43:11.418,-22.75,-185.99,6.51,0.076616,0.048799999999999996,-1.69824,3
2024-06-14 11:43:11.423,-16.94,-205.1,5.25,0.062464,0.066368,-1.803648,3
2024-06-14 11:43:11.428,-14.7,-218.75,2.31,0.060024,0.112728,-1.9807919999999999,3
2024-06-14 11:43:11.433,-7.35,-232.4,-0.56,0.039528,0.062952,-1.8446399999999998,3
2024-06-14 11:43:11.437,-7.42,-255.71,-2.59,0.034159999999999996,0.118096,-1.967616,3
2024-06-14 11:43:11.442,-5.25,-274.33,-5.25,0.033184,0.09028,-2.02032,3
2024-06-14 11:43:11.447,-12.88,-287.07,-8.54,0.011712,0.14347200000000002,-2.124264,3
2024-06-14 11:43:11.452,-8.05,-316.68,-11.48,-0.016592,0.122488,-2.155984,3
2024-06-14 11:43:11.457,-6.16,-335.93,-14.56,-0.038064,0.19763999999999998,-2.1730639999999997,3
2024-06-14 11:43:11.462,-6.16,-361.41,-19.18,-0.061488,0.29036,-2.3106799999999996,3
2024-06-14 11:43:11.466,-9.24,-380.52,-25.55,-0.045872,0.328424,-2.434144,3
2024-06-14 11:43:11.471,-5.6,-407.61,-31.57,-0.027816,0.32012799999999997,-2.7781839999999995,3
2024-06-14 11:43:11.476,-4.55,-429.87,-36.33,-0.043432000000000005,0.37332,-2.9646,3
2024-06-14 11:43:11.481,-11.06,-456.05,-42.07,-0.089792,0.486048,-3.094408,3
2024-06-14 11:43:11.486,-16.31,-482.16,-48.93,-0.020984,0.45383999999999997,-3.366712,3
2024-06-14 11:43:11.491,-20.44,-506.94,-53.41,0.168848,0.418704,-3.678056,3
2024-06-14 11:43:11.495,-35.14,-526.05,-59.08,0.11223999999999999,0.616832,-3.881552,3
2024-06-14 11:43:11.500,-40.25,-546.0,-67.55,0.20007999999999998,0.487024,-3.880576,3
2024-06-14 11:43:11.505,-52.85,-557.62,-70.49,0.14054399999999997,0.336232,-4.18216,3
2024-06-14 11:43:11.510,-58.8,-567.91,-75.81,0.062952,0.284992,-4.16996,3
2024-06-14 11:43:11.515,-47.81,-580.02,-79.87,-0.077104,-0.033671999999999994,-4.412008,4
2024-06-14 11:43:11.520,-33.18,-593.39,-80.08,-0.251808,-0.14932800000000002,-4.4159120000000005,4
2024-06-14 11:43:11.524,-3.5,-599.62,-81.55,-0.561688,-0.09467199999999999,-4.013312,4
2024-06-14 11:43:11.529,34.72,-587.65,-83.09,-0.909144,0.0366,-3.789808,4
2024-06-14 11:43:11.534,66.29,-565.46,-81.69,-1.202432,0.159088,-3.697576,4
2024-06-14 11:43:11.539,85.4,-534.8,-80.92,-1.745576,0.447984,-3.097336,4
2024-06-14 11:43:11.544,98.63,-499.24,-86.17,-2.162328,0.7734800000000001,-2.9153119999999997,4
2024-06-14 11:43:11.549,109.27,-483.28,-98.07,-2.432192,1.038952,-2.4863600000000003,4
2024-06-14 11:43:11.553,107.03,-469.07,-113.82,-2.884568,1.286856,-1.445944,4
2024-06-14 11:43:11.558,108.64,-450.31,-120.75,-2.184776,1.6011279999999999,0.783728,4
2024-06-14 11:43:11.563,108.29,-460.53,-109.69,-1.3790879999999999,1.798768,0.293288,4
2024-06-14 11:43:11.568,12.11,-328.51,-120.4,-1.096536,2.060824,-1.922232,4
2024-06-14 11:43:11.573,-104.16,-210.49,-140.98,-1.380552,2.202344,-1.8646479999999999,4
2024-06-14 11:43:11.578,-177.24,-105.0,-145.6,-2.11548,1.226344,-1.1697359999999999,4
2024-06-14 11:43:11.582,-193.9,6.23,-125.79,-2.506368,0.182512,-0.887184,4
2024-06-14 11:43:11.587,-163.66,96.39,-86.59,-2.275056,-0.44700799999999996,-0.9311039999999999,4
2024-06-14 11:43:11.592,-100.24,155.26,-42.63,-1.665056,-0.632936,-0.979904,4
2024-06-14 11:43:11.597,-26.18,191.73,-3.57,-1.325896,-0.59292,-1.296616,4
2024-06-14 11:43:11.602,39.97,208.6,27.93,-1.226832,-0.55876,-1.30784,4
2024-06-14 11:43:11.607,90.65,212.03,54.74,-1.168272,-0.43968799999999997,-1.11996,4
2024-06-14 11:43:11.611,123.55,212.8,77.0,-1.162416,-0.213744,-0.95648,4
2024-06-14 11:43:11.616,141.19,215.04,93.8,-1.1028799999999999,-0.010248,-0.846192,4
2024-06-14 11:43:11.621,145.04,218.19,105.7,-1.013576,0.162016,-0.759328,4
2024-06-14 11:43:11.626,139.02,222.32,113.4,-0.94184,0.31768799999999997,-0.676856,4
2024-06-14 11:43:11.631,126.49,227.92,117.32,-0.869616,0.457744,-0.599264,4
2024-06-14 11:43:11.636,108.08,235.48,117.11,-0.828136,0.603168,-0.542168,4
2024-06-14 11:43:11.640,83.44,243.88,112.49,-0.792024,0.728096,-0.522648,4
2024-06-14 11:43:11.645,51.03,252.28,104.02,-0.7412719999999999,0.770552,-0.543144,4
2024-06-14 11:43:11.650,14.0,260.61,93.38,-0.682712,0.74664,-0.5870639999999999,4
2024-06-14 11:43:11.655,-21.7,268.31,82.6,-0.630984,0.676856,-0.6319600000000001,4
2024-06-14 11:43:11.660,-51.31,275.38,72.24,-0.588528,0.5724239999999999,-0.664168,4
2024-06-14 11:43:11.665,-72.87,281.4,62.79,-0.5436319999999999,0.43676,-0.7007680000000001,4
2024-06-14 11:43:11.669,-87.71,287.7,54.6,-0.499712,0.30109600000000003,-0.754448,4
2024-06-14 11:43:11.674,-96.53,294.63,48.02,-0.455792,0.170312,-0.8169120000000001,4
2024-06-14 11:43:11.679,-98.42,301.49,43.19,-0.430904,0.045384,-0.875472,4
2024-06-14 11:43:11.684,-95.06,309.47,40.11,-0.40650400000000003,-0.058072,-0.930128,4
2024-06-14 11:43:11.689,-86.38,317.24,38.5,-0.382104,-0.16104,-0.984784,4
2024-06-14 11:43:11.694,-75.39,325.36,37.66,-0.36112,-0.21862399999999999,-1.035536,4
2024-06-14 11:43:11.698,-62.44,332.92,37.31,-0.340136,-0.24790399999999999,-1.0833599999999999,4
2024-06-14 11:43:11.703,-51.03,340.76,36.82,-0.32500799999999996,-0.235704,-1.1150799999999998,4
2024-06-14 11:43:11.708,-40.81,348.32,36.12,-0.311832,-0.2074,-1.152656,4
2024-06-14 11:43:11.713,-33.32,355.18,34.58,-0.294264,-0.17568,-1.1936479999999998,4
2024-06-14 11:43:11.718,-28.91,362.04,32.2,-0.27425599999999994,-0.128832,-1.2287839999999999,4
2024-06-14 11:43:11.723,-27.51,368.41,28.98,-0.254248,-0.08295999999999999,-1.274168,4
2024-06-14 11:43:11.727,-28.14,373.73,24.99,-0.23082399999999997,-0.042944,-1.325408,4
2024-06-14 11:43:11.732,-31.15,378.28,20.37,-0.199592,-0.008783999999999998,-1.374696,4
2024-06-14 11:43:11.737,-35.63,381.92,15.47,-0.174216,0.018056000000000003,-1.434232,4
2024-06-14 11:43:11.742,-40.46,385.0,10.71,-0.14152,0.022448,-1.484008,4
2024-06-14 11:43:11.747,-45.01,387.45,6.51,-0.125904,0.020007999999999998,-1.5337839999999998,4
2024-06-14 11:43:11.752,-48.3,389.69,3.29,-0.113216,0.015616,-1.581608,4
2024-06-14 11:43:11.756,-50.19,392.14,0.63,-0.10052799999999999,0.010248,-1.640656,4
2024-06-14 11:43:11.761,-50.47,394.66,-0.98,-0.08295999999999999,0.0068319999999999995,-1.700192,4
2024-06-14 11:43:11.766,-49.42,397.18,-1.61,-0.06831999999999999,0.010736,-1.763144,4
2024-06-14 11:43:11.771,-47.95,399.77,-1.26,-0.049288,0.026352,-1.8304880000000001,4
2024-06-14 11:43:11.776,-46.83,402.36,-0.07,-0.033184,0.040992,-1.8939279999999998,4
2024-06-14 11:43:11.781,-46.55,405.02,1.75,-0.018544,0.081008,-1.951512,4
2024-06-14 11:43:11.785,-48.09,407.33,3.78,-0.002928,0.12688,-2.0281279999999997,4
2024-06-14 11:43:11.790,-51.66,409.08,5.88,0.011712,0.170312,-2.122312,4
2024-06-14 11:43:11.795,-56.21,409.71,8.12,0.037576,0.20447200000000001,-2.225768,4
2024-06-14 11:43:11.800,-62.37,409.5,11.06,0.085888,0.241072,-2.37656,4
2024-06-14 11:43:11.805,-68.25,407.47,15.05,0.148352,0.28157600000000005,-2.534672,4
2024-06-14 11:43:11.810,-73.15,404.32,20.58,0.21716,0.300608,-2.672776,4
2024-06-14 11:43:11.814,-78.61,401.1,28.0,0.28792,0.323056,-2.7962399999999996,4
2024-06-14 11:43:11.819,-83.86,397.81,37.03,0.386496,0.338672,-2.8957919999999997,4
2024-06-14 11:43:11.824,-89.6,395.01,47.39,0.51728,0.35233600000000004,-3.00608,4
2024-06-14 11:43:11.829,-98.35,392.35,58.17,0.657824,0.3538,-3.144672,4
2024-06-14 11:43:11.834,-109.06,389.83,68.88,0.796904,0.34159999999999996,-3.278872,4
2024-06-14 11:43:11.839,-118.16,387.73,79.52,0.947696,0.29865600000000003,-3.3803759999999996,4
2024-06-14 11:43:11.843,-123.83,386.75,90.65,1.1282560000000001,0.240584,-3.4335679999999997,4
2024-06-14 11:43:11.848,-125.93,387.66,101.57,1.334192,0.188856,-3.463336,4
2024-06-14 11:43:11.853,-124.39,390.81,111.72,1.585024,0.149816,-3.468704,4
2024-06-14 11:43:11.858,-120.19,395.57,119.84,1.881728,0.121024,-3.426736,4
2024-06-14 11:43:11.863,-113.75,400.54,125.51,2.2135679999999995,0.094184,-3.372568,4
2024-06-14 11:43:11.868,-102.83,404.11,127.47,2.600552,0.087352,-3.2861920000000002,4
2024-06-14 11:43:11.872,-85.75,402.85,125.3,3.05732,0.10394400000000001,-3.144672,4
2024-06-14 11:43:11.877,-65.66,395.57,117.32,3.621448,0.14932800000000002,-2.9138479999999998,4
2024-06-14 11:43:11.882,-48.65,380.8,102.27,4.217784,0.193248,-2.612752,4
2024-06-14 11:43:11.887,-39.69,357.98,79.31,4.86048,0.216672,-2.2384560000000002,4
2024-06-14 11:43:11.892,-34.65,326.27,47.88,5.464624,0.285968,-1.853912,4
2024-06-14 11:43:11.897,-30.94,284.2,6.51,5.969215999999999,0.34550400000000003,-1.565992,4
2024-06-14 11:43:11.901,-27.58,234.36,-43.19,6.367424,0.33183999999999997,-1.470832,4
2024-06-14 11:43:11.906,-26.53,180.39,-94.64,6.6846239999999995,0.13078399999999998,-1.446432,4
2024-06-14 11:43:11.911,-26.11,126.63,-137.76,6.936432,-0.16104,-1.362496,4
2024-06-14 11:43:11.916,43.96,-4.69,-149.1,8.112024,-1.804136,-4.022584,4
2024-06-14 11:43:11.921,127.96,-136.5,-137.48,7.683559999999999,-1.958832,-1.595272,4
2024-06-14 11:43:11.926,229.6,-219.38,-119.14,6.967175999999999,-2.25456,-0.8364320000000001,4
2024-06-14 11:43:11.930,347.9,-310.17,-93.66,6.6919439999999994,-1.62748,-0.7481039999999999,4
2024-06-14 11:43:11.935,433.93,-388.29,-86.17,4.918552,-0.08247199999999999,-0.9311039999999999,4
2024-06-14 11:43:11.940,507.01,-383.81,-67.69,0.310368,-0.11956,-1.648952,4
2024-06-14 11:43:11.945,380.94,-374.08,-52.64,0.39332799999999996,-1.2736800000000001,-3.234952,4
2024-06-14 11:43:11.950,216.65,-365.82,-7.0,0.351848,0.40064799999999995,-3.0104719999999996,4
2024-06-14 11:43:11.955,147.35,-364.07,30.17,-0.843264,0.46799199999999996,-2.2521199999999997,4
2024-06-14 11:43:11.959,94.29,-389.97,61.95,-0.7188239999999999,0.425536,-1.920768,4
2024-06-14 11:43:11.964,106.61,-387.31,89.81,-0.384544,-0.05368,-4.602816,0
