time,gyroscope_x,gyroscope_y,gyroscope_z,accelerometer_x,accelerometer_y,accelerometer_z,phase
2024-06-14 09:17:55.342,19.285,-34.05500000000001,60.795,-6.194915999999999,0.9777079999999999,5.737171999999999,1
2024-06-14 09:17:55.347,123.61999999999999,-67.445,45.5,-1.833904,0.9225639999999999,-0.582428,1
2024-06-14 09:17:55.352,152.775,-81.025,35.63,-0.507032,-0.058316,-0.541436,1
2024-06-14 09:17:55.356,164.14999999999998,-175.76999999999998,40.635,1.608448,0.036599999999999994,-1.103612,1
2024-06-14 09:17:55.361,114.555,-362.56500000000005,61.53,1.293444,-0.29523999999999995,-1.542568,1
2024-06-14 09:17:55.366,41.195,-384.895,83.86,0.44212799999999997,-0.150792,-1.7204439999999999,1
2024-06-14 09:17:55.371,-4.654999999999999,-362.32000000000005,95.13,-0.12932,-0.044896000000000005,-1.91174,1
2024-06-14 09:17:55.376,3.3950000000000005,-342.44,84.07,-0.0043920000000000035,-0.30158399999999996,-2.096692,1
2024-06-14 09:17:55.381,41.16,-328.82500000000005,54.739999999999995,0.2013,-0.7449319999999999,-2.245044,1
2024-06-14 09:17:55.385,50.225,-311.185,20.3,0.21862399999999999,-0.95648,-2.6298319999999995,1
2024-06-14 09:17:55.390,33.004999999999995,-275.83500000000004,-10.325,0.162748,-0.772016,-2.86456,1
2024-06-14 09:17:55.395,11.690000000000001,-228.41,-30.835,0.31110000000000004,-0.3640479999999999,-2.5437000000000003,1
2024-06-14 09:17:55.400,6.405,-176.78500000000003,-36.47,0.42724399999999996,0.09320799999999999,-2.221132,1
2024-06-14 09:17:55.405,6.755,-129.99,-24.255,0.362584,0.436272,-1.8648919999999998,1
2024-06-14 09:17:55.409,10.5,-93.765,-2.6950000000000003,0.256688,0.46238,-1.773148,1
2024-06-14 09:17:55.414,12.565,-70.595,12.25,0.238388,0.265472,-1.4764439999999999,1
2024-06-14 09:17:55.419,14.105,-57.61,15.084999999999999,0.07710399999999999,0.047824,-1.255868,1
2024-06-14 09:17:55.424,14.84,-49.525,10.325000000000001,-0.086864,-0.112484,-1.153144,2
2024-06-14 09:17:55.429,11.69,-44.38,3.185,-0.11443599999999998,-0.07832399999999999,-1.0287039999999998,2
2024-06-14 09:17:55.433,10.395,-40.985,-1.8200000000000003,-0.056364,0.023912,-0.98576,2
2024-06-14 09:17:55.438,10.57,-35.980000000000004,-1.505,-0.010492000000000001,0.10247999999999999,-0.970876,2
2024-06-14 09:17:55.443,12.25,-31.675,2.31,-0.01342,0.085156,-1.0055239999999999,2
2024-06-14 09:17:55.448,12.530000000000001,-29.54,3.185,-0.028548,0.028792,-1.0494439999999998,2
2024-06-14 09:17:55.453,12.25,-29.505,-0.175,-0.052947999999999995,-0.01098,-1.074576,2
2024-06-14 09:17:55.457,10.885000000000002,-30.485,-3.185,-0.06466,0.019032,-1.072624,2
2024-06-14 09:17:55.462,10.57,-32.41,-2.205,-0.06417199999999999,0.077348,-1.05164,2
2024-06-14 09:17:55.467,11.69,-33.775000000000006,-0.175,-0.06417199999999999,0.059292,-1.0228479999999998,2
2024-06-14 09:17:55.472,11.690000000000001,-32.06,-0.525,-0.037087999999999996,0.008296,-1.0189439999999998,2
2024-06-14 09:17:55.477,10.254999999999999,-29.505000000000003,-2.38,-0.005612,0.0024400000000000008,-1.0309,2
2024-06-14 09:17:55.482,8.75,-27.895,-2.5549999999999997,-0.046848,0.026108,-1.048468,2
2024-06-14 09:17:55.486,7.699999999999999,-28.665,-2.17,-0.086864,0.034648,-1.062864,2
2024-06-14 09:17:55.491,6.65,-30.1,-2.5549999999999997,-0.081252,0.005123999999999999,-1.066524,2
2024-06-14 09:17:55.496,5.075,-31.675,-3.15,-0.063196,-0.002928,-1.063108,2
2024-06-14 09:17:55.501,3.535,-32.165,-3.3600000000000003,-0.066368,0.012932,-1.06018,2
2024-06-14 09:17:55.506,2.2750000000000004,-33.32,-3.255,-0.06831999999999999,0.020739999999999998,-1.054812,2
2024-06-14 09:17:55.510,1.61,-35.105000000000004,-3.465,-0.075152,0.030011999999999997,-1.055056,2
2024-06-14 09:17:55.515,1.19,-36.33,-3.955,-0.053680000000000005,0.027084,-1.047004,2
2024-06-14 09:17:55.520,0.63,-37.974999999999994,-4.375,-0.09808800000000001,0.014152,-1.067988,2
2024-06-14 09:17:55.525,-0.21000000000000002,-39.235,-4.41,-0.04782399999999999,0.027572,-1.04188,2
2024-06-14 09:17:55.530,-0.98,-41.825,-4.025,-0.109068,0.009516,-1.07848,2
2024-06-14 09:17:55.534,10.290000000000001,4.725000000000001,-4.41,-0.037332000000000004,0.025376,-1.048468,2
2024-06-14 09:17:55.539,-2.485,-44.59,-3.955,-0.085156,0.033184000000000005,-1.046272,2
2024-06-14 09:17:55.544,-0.98,-48.545,-3.465,-0.04465199999999999,0.035136,-1.032852,2
2024-06-14 09:17:55.549,0.5599999999999999,-49.35,-3.465,-0.056364,0.043676,-1.046516,2
2024-06-14 09:17:55.554,-0.175,-51.835,-4.305,-0.1037,0.040260000000000004,-1.0716480000000002,2
2024-06-14 09:17:55.559,1.575,-52.78,-4.725,-0.0043920000000000035,0.050996,-1.0121120000000001,2
2024-06-14 09:17:55.563,2.205,-54.425,-4.445,0.049044,0.044652,-0.99796,2
2024-06-14 09:17:55.568,4.165,-53.235,-3.71,-0.024399999999999995,0.04074799999999999,-1.036756,2
2024-06-14 09:17:55.573,7.42,-48.125,-3.255,-0.014884000000000001,0.03294,-1.0431,2
2024-06-14 09:17:55.578,9.59,-48.825,-2.835,-0.026595999999999998,0.039528,-1.035536,2
2024-06-14 09:17:55.583,10.185,-43.68,-2.835,-0.031964,0.04074799999999999,-1.0182120000000001,2
2024-06-14 09:17:55.587,10.5,-41.230000000000004,-2.625,-0.01098,0.03294,-1.01626,2
2024-06-14 09:17:55.592,10.465,-40.25,-3.01,0.0056120000000000015,0.04026,-1.020896,2
2024-06-14 09:17:55.597,10.254999999999999,-37.555,-3.185,0.011711999999999997,0.02196,-1.0023520000000001,2
2024-06-14 09:17:55.602,5.215000000000001,-53.97,-2.6950000000000003,0.003904,0.012688,-1.0191879999999998,2
2024-06-14 09:17:55.607,3.64,-38.57,-3.08,0.0183,0.013908,-1.01992,2
2024-06-14 09:17:55.611,3.9899999999999998,-35.14,-3.045,0.016347999999999998,0.040015999999999996,-0.988444,2
2024-06-14 09:17:55.616,-0.7,-37.870000000000005,-4.165,0.022448000000000003,0.022935999999999998,-1.004548,2
2024-06-14 09:17:55.621,0.14,-37.275000000000006,-4.025,0.02196,0.005856,-1.0067439999999999,2
2024-06-14 09:17:55.626,4.655,-35.35,-3.2199999999999998,0.026596,0.014151999999999998,-1.02968,2
2024-06-14 09:17:55.631,7.7,-32.025000000000006,-2.555,0.019276,0.032696,-1.0145520000000001,2
2024-06-14 09:17:55.635,6.58,-30.555,-3.815,0.03172,0.034892,-1.02114,2
2024-06-14 09:17:55.640,7.21,-27.93,-4.76,0.03172,0.044896000000000005,-1.045052,2
2024-06-14 09:17:55.645,10.045,-25.235,-4.585,0.033428,0.013908,-1.0335839999999998,2
2024-06-14 09:17:55.650,8.855,-24.814999999999998,-4.34,0.032695999999999996,0.019764,-1.007476,2
2024-06-14 09:17:55.655,7.42,-23.765,-4.27,0.042212,0.0122,-0.99674,2
2024-06-14 09:17:55.660,-0.8400000000000001,-26.705,-4.9,0.04367599999999999,0.016104,-1.0018639999999999,2
2024-06-14 09:17:55.664,-0.875,-25.619999999999997,-4.725,0.045871999999999996,0.023668,-1.006256,2
2024-06-14 09:17:55.669,-0.875,-23.275,-4.515000000000001,0.052947999999999995,0.020252,-0.99308,2
2024-06-14 09:17:55.674,-0.595,-19.88,-4.515000000000001,0.049776,0.022447999999999996,-1.004548,2
2024-06-14 09:17:55.679,-0.385,-20.125,-4.550000000000001,0.050019999999999995,0.028304,-1.004304,2
2024-06-14 09:17:55.684,-0.10499999999999998,-19.634999999999998,-4.76,0.048068,0.035135999999999994,-1.0004,2
2024-06-14 09:17:55.688,0.49,-19.74,-4.970000000000001,0.051727999999999996,0.030012,-1.000644,2
2024-06-14 09:17:55.693,1.295,-19.53,-5.145,0.050019999999999995,0.03440399999999999,-1.01016,2
2024-06-14 09:17:55.698,1.505,-19.845,-5.32,0.050752,0.021471999999999998,-1.01382,2
2024-06-14 09:17:55.703,2.065,-20.02,-5.25,0.053436,0.026352,-1.0309,2
2024-06-14 09:17:55.708,2.1,-21.07,-5.355,0.049044000000000004,0.026840000000000003,-1.021628,2
2024-06-14 09:17:55.712,2.03,-22.085,-5.635,0.053436,0.03172,-1.035048,2
2024-06-14 09:17:55.717,2.03,-23.134999999999998,-5.845000000000001,0.054655999999999996,0.030255999999999998,-1.036512,2
2024-06-14 09:17:55.722,1.8199999999999998,-24.674999999999997,-6.02,0.05978,0.021716,-1.040172,2
2024-06-14 09:17:55.727,1.75,-25.725,-6.23,0.053436,0.010004,-1.0313880000000002,2
2024-06-14 09:17:55.732,0.8400000000000001,-27.3,-6.125,0.060511999999999996,0.010248,-1.050176,2
2024-06-14 09:17:55.737,-0.42,-29.155,-5.95,0.05831599999999999,-0.0009759999999999994,-1.076528,2
2024-06-14 09:17:55.741,-1.855,-32.129999999999995,-5.705,0.058072,0.0009759999999999999,-1.0762839999999998,2
2024-06-14 09:17:55.746,-3.535,-34.265,-5.635,0.056608000000000006,0.002928,-1.090192,2
2024-06-14 09:17:55.751,-5.215,-37.695,-5.425,0.06222,-0.0021959999999999996,-1.103856,2
2024-06-14 09:17:55.756,-7.175,-41.335,-5.109999999999999,0.05734,-0.018543999999999998,-1.131428,2
2024-06-14 09:17:55.761,-9.45,-45.045,-4.375,0.059292,-0.03172,-1.1619279999999998,2
2024-06-14 09:17:55.765,-12.530000000000001,-49.84,-3.5700000000000003,0.05612,-0.030255999999999998,-1.1895,2
2024-06-14 09:17:55.770,-15.504999999999999,-54.705,-2.9400000000000004,0.055144,-0.011468,-1.2197559999999998,2
2024-06-14 09:17:55.775,-17.955,-61.39,-2.52,0.060511999999999996,0.007564,-1.23342,2
2024-06-14 09:17:55.780,-19.740000000000002,-67.235,-2.45,0.055388,0.021716,-1.2417159999999998,2
2024-06-14 09:17:55.785,-22.295,-75.32,-2.555,0.059047999999999996,0.0017079999999999999,-1.277096,2
2024-06-14 09:17:55.789,-24.92,-80.88499999999999,-2.24,0.064416,-0.009760000000000001,-1.305644,2
2024-06-14 09:17:55.794,-28.77,-89.285,-1.96,0.06758800000000001,-0.0012200000000000002,-1.3656679999999999,2
2024-06-14 09:17:55.799,-33.53,-98.28,-1.75,0.062464000000000006,-0.003416,-1.39324,2
2024-06-14 09:17:55.804,-37.03,-107.485,-1.8199999999999998,0.060511999999999996,0.0,-1.4073919999999998,2
2024-06-14 09:17:55.809,-39.375,-117.005,-1.7149999999999999,0.064416,-0.0004880000000000006,-1.444724,2
2024-06-14 09:17:55.813,-43.120000000000005,-125.82499999999999,-1.9249999999999998,0.061976,0.001708,-1.452776,2
2024-06-14 09:17:55.818,-46.41,-136.71,-2.205,0.06124399999999999,0.012444,-1.48718,2
2024-06-14 09:17:55.823,-47.879999999999995,-146.195,-2.52,0.07368799999999999,0.006588,-1.4898639999999999,2
2024-06-14 09:17:55.826,-48.965,-155.29500000000002,-2.905,0.05734,0.03538,-1.512068,2
2024-06-14 09:17:55.831,-51.1,-165.58499999999998,-3.745,0.05856,0.062464,-1.532564,2
2024-06-14 09:17:55.836,-52.29,-175.83999999999997,-5.215,0.0549,0.08149599999999999,-1.536712,2
2024-06-14 09:17:55.840,-48.72,-187.985,-6.37,0.066856,0.08710799999999999,-1.59088,2
2024-06-14 09:17:55.845,-45.15,-200.02499999999998,-7.42,0.055388,0.09759999999999999,-1.605032,2
2024-06-14 09:17:55.850,-45.465,-212.52,-9.52,0.050264,0.10931199999999999,-1.680672,2
2024-06-14 09:17:55.855,-41.93,-225.89,-10.92,0.08149600000000001,0.067588,-1.714832,2
2024-06-14 09:17:55.860,-35.455,-239.95999999999998,-11.865,0.068564,0.16738399999999998,-1.7150759999999998,3
2024-06-14 09:17:55.865,-34.72,-253.225,-15.54,0.053924,0.27449999999999997,-1.768756,3
2024-06-14 09:17:55.869,-32.27,-267.78499999999997,-20.299999999999997,0.0671,0.29133600000000004,-1.8319519999999998,3
2024-06-14 09:17:55.874,-27.72,-285.46000000000004,-25.165,0.064904,0.346236,-1.8614760000000001,3
2024-06-14 09:17:55.879,-26.04,-302.995,-31.044999999999998,-0.001952,0.35428800000000005,-2.00446,3
2024-06-14 09:17:55.884,-23.52,-322.03499999999997,-35.7,0.026596,0.29133600000000004,-2.051064,3
2024-06-14 09:17:55.889,-22.82,-341.845,-38.675,-0.004148000000000001,0.28669999999999995,-2.154764,3
2024-06-14 09:17:55.894,-23.345,-361.095,-41.685,-0.005856,0.240096,-2.258952,3
2024-06-14 09:17:55.898,-23.03,-383.67,-43.47,-0.040748,0.225944,-2.285548,3
2024-06-14 09:17:55.903,-15.329999999999998,-400.645,-43.995,0.06539199999999999,0.096624,-2.4626919999999997,3
2024-06-14 09:17:55.908,-8.19,-414.505,-39.34,0.142496,0.08539999999999999,-2.674728,3
2024-06-14 09:17:55.913,-10.989999999999998,-425.775,-35.56,0.17446,0.1708,-2.7337759999999998,3
2024-06-14 09:17:55.918,-17.15,-432.25,-32.34,0.0915,0.298656,-2.732068,3
2024-06-14 09:17:55.922,-32.655,-437.46500000000003,-32.34,0.149328,0.45506,-2.89262,3
2024-06-14 09:17:55.927,-53.375,-440.65,-35.175,0.081252,0.537776,-3.009252,3
2024-06-14 09:17:55.932,-69.61500000000001,-433.125,-40.18,0.11224,0.537044,-3.189324,3
2024-06-14 09:17:55.937,-84.245,-430.15,-46.375,0.095892,0.47750800000000004,-3.1790760000000002,3
2024-06-14 09:17:55.942,-97.44,-426.15999999999997,-54.18,-0.169336,0.427488,-3.0582960000000003,3
2024-06-14 09:17:55.947,-113.4,-417.55,-63.07000000000001,-0.49336800000000003,0.374784,-3.1109999999999998,3
2024-06-14 09:17:55.951,-130.76,-410.69,-72.66,-0.9645320000000001,0.400892,-3.1571159999999994,3
2024-06-14 09:17:55.956,-144.62,-401.1,-86.975,-1.3778679999999999,0.48409599999999997,-3.0297479999999997,3
2024-06-14 09:17:55.961,-150.815,-397.21500000000003,-104.615,-1.7101959999999998,0.536556,-2.853092,3
2024-06-14 09:17:55.966,-145.35500000000002,-406.735,-125.02,-1.9742039999999998,0.574864,-2.478796,3
2024-06-14 09:17:55.971,-123.655,-422.765,-149.345,-2.093764,0.433588,-1.961272,3
2024-06-14 09:17:55.976,-83.58,-450.73,-170.765,-1.882704,0.49019599999999997,-1.280268,3
2024-06-14 09:17:55.980,-23.134999999999998,-505.92499999999995,-185.885,-0.7912920000000001,0.651724,-0.371368,3
2024-06-14 09:17:55.985,26.11,-467.88,-187.005,-1.0099159999999998,0.535092,-0.9962519999999999,3
2024-06-14 09:17:55.990,30.905,-346.53499999999997,-188.96499999999997,-1.90808,0.324764,-0.8278920000000001,3
2024-06-14 09:17:55.995,-3.71,-227.115,-189.945,-1.747284,0.32330000000000003,-0.993812,3
2024-06-14 09:17:56.000,-27.055,-94.605,-178.535,-1.483276,0.390644,-1.2309800000000002,3
2024-06-14 09:17:56.005,-35.245,17.395,-158.02499999999998,-1.540616,0.22594399999999998,-1.355908,3
2024-06-14 09:17:56.009,-37.834999999999994,105.7,-135.485,-1.549644,0.063196,-1.232932,3
2024-06-14 09:17:56.014,-32.06,164.22,-113.295,-1.43228,0.048311999999999994,-1.108492,3
2024-06-14 09:17:56.019,-16.275,193.79500000000002,-94.395,-1.2871000000000001,0.078324,-1.035048,4
2024-06-14 09:17:56.024,4.165,199.22,-79.275,-1.1287439999999997,0.09759999999999999,-1.040172,4
2024-06-14 09:17:56.029,26.565,186.62,-66.11500000000001,-0.958432,0.09394,-1.0377319999999999,4
2024-06-14 09:17:56.034,46.655,167.23000000000002,-54.705,-0.8337479999999999,0.093696,-0.9816120000000002,4
2024-06-14 09:17:56.038,58.205,150.36,-44.66,-0.746396,0.09759999999999999,-0.811056,4
2024-06-14 09:17:56.043,60.760000000000005,140.28,-34.545,-0.70516,0.11882799999999999,-0.643184,4
2024-06-14 09:17:56.048,54.845,139.265,-23.625,-0.6861280000000001,0.13883600000000001,-0.532896,4
2024-06-14 09:17:56.053,40.775,146.96499999999997,-12.495000000000001,-0.6819799999999999,0.160308,-0.491172,4
2024-06-14 09:17:56.058,20.685,161.49,-1.4700000000000002,-0.6841759999999999,0.174216,-0.478484,4
2024-06-14 09:17:56.062,-1.645,180.46,9.66,-0.69906,0.174704,-0.47628800000000004,4
2024-06-14 09:17:56.067,-22.015,201.565,20.58,-0.7076,0.154696,-0.493368,4
2024-06-14 09:17:56.072,-37.239999999999995,222.495,31.464999999999996,-0.6971080000000001,0.121512,-0.529236,4
2024-06-14 09:17:56.077,-45.535,241.22,41.93000000000001,-0.6731959999999999,0.08271600000000001,-0.584624,4
2024-06-14 09:17:56.082,-47.25,256.62,52.08,-0.6429400000000001,0.045628,-0.633424,4
2024-06-14 09:17:56.087,-43.12,269.46500000000003,61.635000000000005,-0.61366,0.016836,-0.671732,4
2024-06-14 09:17:56.091,-35.42,280.70000000000005,70.315,-0.575108,-0.010248,-0.6983280000000001,4
2024-06-14 09:17:56.096,-26.740000000000002,290.57,77.77,-0.541924,-0.013663999999999999,-0.7261439999999999,4
2024-06-14 09:17:56.101,-18.795,300.615,83.86,-0.5121560000000001,-0.0036599999999999996,-0.752984,4
2024-06-14 09:17:56.106,-13.51,311.22,88.58500000000001,-0.489708,0.01952,-0.7807999999999999,4
2024-06-14 09:17:56.111,-11.34,322.03499999999997,91.84,-0.47165199999999996,0.038796,-0.811544,4
2024-06-14 09:17:56.116,-12.075,333.16499999999996,93.87,-0.454084,0.061975999999999996,-0.8449720000000001,4
2024-06-14 09:17:56.120,-14.98,343.875,94.88499999999999,-0.443592,0.077592,-0.8759600000000001,4
2024-06-14 09:17:56.125,-18.9,353.885,95.13,-0.430172,0.08857200000000001,-0.914268,4
2024-06-14 09:17:56.130,-22.645,363.615,94.99000000000001,-0.41699600000000003,0.08417999999999999,-0.95648,4
2024-06-14 09:17:56.135,-25.585,372.785,94.57,-0.40113599999999994,0.077104,-0.9964959999999999,4
2024-06-14 09:17:56.140,-26.705,380.94,94.22,-0.39015599999999995,0.067344,-1.047492,4
2024-06-14 09:17:56.145,-26.075000000000003,388.185,93.73,-0.373564,0.059047999999999996,-1.107516,4
2024-06-14 09:17:56.149,-24.15,393.96000000000004,93.24,-0.35550800000000005,0.052704,-1.16998,4
2024-06-14 09:17:56.154,-21.28,399.03499999999997,92.47,-0.337452,0.053436,-1.241472,4
2024-06-14 09:17:56.159,-17.675,403.935,91.28,-0.313784,0.058072,-1.305644,4
2024-06-14 09:17:56.164,-13.545000000000002,408.65999999999997,89.94999999999999,-0.290604,0.065148,-1.3734760000000001,4
2024-06-14 09:17:56.169,-9.555,412.96500000000003,88.305,-0.265228,0.081984,-1.450336,4
2024-06-14 09:17:56.174,-5.984999999999999,416.91999999999996,86.625,-0.23668,0.09638,-1.53354,4
2024-06-14 09:17:56.178,-2.765,420.31500000000005,84.97999999999999,-0.204472,0.113704,-1.622112,4
2024-06-14 09:17:56.183,-0.31499999999999995,423.395,83.54499999999999,-0.18202400000000002,0.133956,-1.714344,4
2024-06-14 09:17:56.188,1.085,425.845,82.11,-0.162992,0.16006399999999998,-1.8173119999999998,4
2024-06-14 09:17:56.193,1.785,428.225,80.99000000000001,-0.130296,0.18422,-1.924184,4
2024-06-14 09:17:56.198,1.575,430.395,80.43,-0.110288,0.207644,-2.04594,4
2024-06-14 09:17:56.203,0.27999999999999997,432.25,80.08,-0.086132,0.23619199999999999,-2.181848,4
2024-06-14 09:17:56.207,-1.5750000000000002,433.78999999999996,80.28999999999999,-0.060267999999999995,0.258396,-2.337764,4
2024-06-14 09:17:56.212,-4.305,434.315,80.88499999999999,-0.040748000000000006,0.28181999999999996,-2.506856,4
2024-06-14 09:17:56.217,-8.120000000000001,434.805,82.25,-0.02196,0.305732,-2.692052,4
2024-06-14 09:17:56.222,-12.81,434.49,84.56,0.014884,0.316956,-2.920192,4
2024-06-14 09:17:56.227,-16.03,433.15999999999997,88.86500000000001,0.09052400000000001,0.32574,-3.157604,4
2024-06-14 09:17:56.231,-14.350000000000001,431.97,96.25,0.26693599999999995,0.314272,-3.318888,4
2024-06-14 09:17:56.236,-6.615,434.28,107.065,0.480924,0.29524000000000006,-3.3708599999999995,4
2024-06-14 09:17:56.241,0.45500000000000007,436.625,117.005,0.621712,0.354044,-3.506768,4
2024-06-14 09:17:56.246,2.9050000000000002,438.13,123.725,0.824476,0.391864,-3.587288,4
2024-06-14 09:17:56.251,6.65,438.55,129.01,1.069208,0.470676,-3.592168,4
2024-06-14 09:17:56.256,14.595,436.975,132.475,1.299056,0.5502199999999999,-3.598268,4
2024-06-14 09:17:56.260,25.97,431.725,133.35,1.51158,0.62952,-3.572892,4
2024-06-14 09:17:56.265,43.224999999999994,422.38,133.03500000000003,1.719712,0.711748,-3.500668,4
2024-06-14 09:17:56.270,66.99,408.24,132.37,1.9302839999999999,0.815692,-3.3252319999999997,4
2024-06-14 09:17:56.275,98.28,389.62,129.115,2.04594,1.0967799999999999,-2.9382479999999997,4
2024-06-14 09:17:56.280,135.17000000000002,369.215,115.32499999999999,2.153788,1.4759559999999998,-2.576396,4
2024-06-14 09:17:56.285,139.335,353.815,91.805,2.5302800000000003,1.9559039999999999,-2.53394,4
2024-06-14 09:17:56.289,110.35499999999999,330.82,48.825,3.0224279999999997,1.9412639999999999,-2.454884,4
2024-06-14 09:17:56.294,55.72,304.15,0.3850000000000007,3.1976199999999997,2.13012,-2.158424,4
2024-06-14 09:17:56.299,-27.509999999999998,279.65,-51.625,3.4704119999999996,2.0073879999999997,-1.754604,4
2024-06-14 09:17:56.304,-120.82,255.675,-103.11,3.69294,1.7128800000000002,-1.514508,4
2024-06-14 09:17:56.309,-203.07,226.73,-135.975,3.7744359999999997,1.3473680000000001,-1.5301239999999998,4
2024-06-14 09:17:56.314,-250.88,191.695,-176.715,4.17606,0.577792,-1.4945,4
2024-06-14 09:17:56.318,-262.745,153.72,-192.14999999999998,4.490088,0.047580000000000004,-1.463756,4
2024-06-14 09:17:56.323,-234.60500000000002,118.22999999999999,-193.58499999999998,4.802408,-0.405528,-1.362984,4
2024-06-14 09:17:56.328,-174.965,85.53999999999999,-183.12,5.0325,-0.7522519999999999,-1.209508,4
2024-06-14 09:17:56.333,-99.575,52.71,-164.675,5.035183999999999,-0.9755119999999999,-1.112152,4
2024-06-14 09:17:56.338,-26.32,15.645,-141.54000000000002,4.831932,-1.048468,-1.137772,4
2024-06-14 09:17:56.343,28.0,-26.18,-115.535,4.5257119999999995,-0.988444,-1.230248,4
2024-06-14 09:17:56.347,59.605,-68.705,-88.34,4.159468,-0.817888,-1.3322399999999999,4
2024-06-14 09:17:56.352,70.97999999999999,-106.82,-61.39,3.791028,-0.6246400000000001,-1.391532,4
2024-06-14 09:17:56.357,69.33500000000001,-136.01,-34.79,3.445524,-0.423584,-1.426424,4
2024-06-14 09:17:56.362,73.185,-139.335,-9.065,1.2797800000000001,-1.248792,-4.287324,4
2024-06-14 09:17:56.367,168.175,-487.83,81.025,-1.88856,-1.397144,-2.132804,4
