time,gyroscope_x,gyroscope_y,gyroscope_z,accelerometer_x,accelerometer_y,accelerometer_z,phase
2024-06-14 10:24:26.504,-301.315,-281.89,-48.894999999999996,3.067812,0.9237840000000002,-3.1881039999999996,1
2024-06-14 10:24:26.509,-394.345,-278.88,-27.125,-1.7150760000000003,-0.638304,0.7549359999999999,1
2024-06-14 10:24:26.514,-304.67499999999995,-267.47,-21.665,-0.66612,-0.210328,-1.6106440000000002,1
2024-06-14 10:24:26.518,-260.75,-255.57,-29.33,-0.39283999999999997,0.04269999999999999,-0.769088,1
2024-06-14 10:24:26.523,-196.76999999999998,-285.74,-64.96000000000001,-1.2761200000000001,0.0305,-1.1089799999999999,1
2024-06-14 10:24:26.528,-89.565,-325.01,-94.15,-0.18129199999999998,-0.051239999999999994,-1.220488,1
2024-06-14 10:24:26.533,-35.735,-361.76,-113.4,0.0488,0.330376,-1.792668,1
2024-06-14 10:24:26.538,-20.509999999999998,-372.645,-104.33500000000001,0.410408,0.7412719999999999,-1.98372,1
2024-06-14 10:24:26.543,-20.965000000000003,-373.59000000000003,-74.47999999999999,0.39259599999999995,0.7978799999999999,-2.5149079999999997,1
2024-06-14 10:24:26.548,-35.315,-364.28,-45.955,0.313784,0.542656,-3.137108,1
2024-06-14 10:24:26.552,-46.864999999999995,-299.145,-23.345,0.397964,0.194224,-3.314496,1
2024-06-14 10:24:26.557,-53.935,-235.095,-2.9050000000000002,0.28133199999999997,0.185196,-2.35826,1
2024-06-14 10:24:26.562,-29.505000000000003,-145.74,14.665,0.412848,0.108824,-1.82268,1
2024-06-14 10:24:26.567,-20.16,-87.605,12.6,0.292312,-0.11223999999999999,-1.445944,1
2024-06-14 10:24:26.572,-18.585,-43.855000000000004,-6.125,0.24326799999999998,-0.09516,-1.308084,1
2024-06-14 10:24:26.577,-11.97,-27.895,-17.29,0.050996,-0.016836,-1.1187399999999998,1
2024-06-14 10:24:26.581,-11.585,-20.79,-17.675,-0.016104,0.017811999999999998,-1.062376,1
2024-06-14 10:24:26.586,-9.905,-10.43,-14.315000000000001,-0.047091999999999995,0.061488,-1.024556,1
2024-06-14 10:24:26.591,-4.83,3.185,-6.895,-0.043432,0.080764,-1.0116239999999999,1
2024-06-14 10:24:26.596,-3.22,9.24,0.77,-0.002928,0.029036,-1.003328,2
2024-06-14 10:24:26.601,-0.42000000000000004,10.5,-0.3500000000000001,0.043676,-0.046604,-1.035536,2
2024-06-14 10:24:26.606,-1.855,11.095,-6.65,0.190564,-0.062708,-1.067256,2
2024-06-14 10:24:26.610,-3.535,2.0300000000000002,-5.145,0.098332,-0.00048799999999999885,-1.061156,2
2024-06-14 10:24:26.615,-1.785,-0.8749999999999999,-4.165,-0.032695999999999996,0.029524,-0.99796,2
2024-06-14 10:24:26.620,-2.5549999999999997,4.095000000000001,-1.54,-0.033916,-0.012199999999999999,-0.99064,2
2024-06-14 10:24:26.625,-3.29,6.58,-0.385,-0.005124,-0.028304,-1.0065,2
2024-06-14 10:24:26.630,-3.7800000000000002,3.43,-1.26,-0.00024400000000000002,-0.012444,-1.016016,2
2024-06-14 10:24:26.635,-3.3949999999999996,0.03500000000000003,-1.47,-0.015127999999999999,0.009516,-1.0152839999999999,2
2024-06-14 10:24:26.639,-2.38,-1.0150000000000001,-1.085,-0.018788,0.011467999999999999,-1.013576,2
2024-06-14 10:24:26.644,-1.435,-2.5199999999999996,-0.9450000000000001,-0.015616000000000001,0.0026839999999999998,-1.0133320000000001,2
2024-06-14 10:24:26.649,-0.735,-5.215,-1.0150000000000001,-0.01586,-0.00732,-1.009428,2
2024-06-14 10:24:26.656,-0.7,-7.35,-0.9099999999999999,-0.019276,-0.009272,-1.00894,2
2024-06-14 10:24:26.661,-0.77,-8.61,-0.735,-0.022935999999999998,-0.004392,-1.0043039999999999,2
2024-06-14 10:24:26.666,-0.245,-10.535,-0.8049999999999999,-0.020007999999999998,0.0,-1.011136,2
2024-06-14 10:24:26.670,0.245,-12.355,-0.77,-0.015371999999999999,-0.000244,-1.0121120000000001,2
2024-06-14 10:24:26.675,0.665,-14.21,-0.8400000000000001,-0.018788,0.0017079999999999999,-1.0121120000000001,2
2024-06-14 10:24:26.680,1.085,-16.1,-0.98,-0.020984,0.000488,-1.00772,2
2024-06-14 10:24:26.685,1.365,-17.29,-0.9450000000000001,-0.016835999999999997,-0.00488,-1.0055239999999999,2
2024-06-14 10:24:26.690,1.61,-18.235,-0.9450000000000001,-0.016348,-0.00488,-1.009916,2
2024-06-14 10:24:26.694,1.54,-18.200000000000003,-0.91,-0.013663999999999999,-0.00366,-1.00894,2
2024-06-14 10:24:26.699,1.75,-18.689999999999998,-0.84,-0.013176,-0.006343999999999999,-1.0065,2
2024-06-14 10:24:26.704,2.205,-18.83,-0.7,-0.011956,-0.0061,-1.007232,2
2024-06-14 10:24:26.709,2.2750000000000004,-18.935000000000002,-0.7,-0.010735999999999999,-0.006588,-1.008452,2
2024-06-14 10:24:26.714,2.275,-18.795,-0.56,-0.012931999999999999,-0.010248,-1.0057680000000002,2
2024-06-14 10:24:26.719,2.065,-18.41,-0.45499999999999996,-0.012931999999999999,-0.013908,-1.004304,2
2024-06-14 10:24:26.723,1.7149999999999999,-17.885,-0.385,-0.005124,-0.008052,-1.00284,2
2024-06-14 10:24:26.728,-3.045,-34.754999999999995,0.0,-0.004148,-0.011712,-0.9962519999999999,2
2024-06-14 10:24:26.733,0.98,-15.225,-0.06999999999999998,-0.00244,-0.0183,-1.006256,2
2024-06-14 10:24:26.738,0.8400000000000001,-15.155,-0.035,0.00024399999999999986,-0.013176,-0.9999119999999999,2
2024-06-14 10:24:26.743,-0.56,-14.945,0.10500000000000001,-0.006588,-0.009516,-1.004548,2
2024-06-14 10:24:26.747,-0.28,-14.595,0.42000000000000004,0.0019520000000000006,-0.014883999999999998,-1.0004,2
2024-06-14 10:24:26.752,-1.54,-16.064999999999998,0.56,0.002684,-0.013176,-1.002596,2
2024-06-14 10:24:26.757,-2.4850000000000003,-14.7,0.42000000000000004,0.007563999999999999,-0.014395999999999999,-1.0030839999999999,2
2024-06-14 10:24:26.762,-3.71,-16.205,0.28,0.0034159999999999998,-0.010248,-1.0006439999999999,2
2024-06-14 10:24:26.767,-3.99,-15.785,0.28,0.007076,-0.01098,-0.9974719999999999,2
2024-06-14 10:24:26.772,-2.765,-15.19,0.7000000000000001,0.01098,-0.01098,-0.99674,2
2024-06-14 10:24:26.776,-4.025,-15.295,0.875,0.014639999999999999,-0.009271999999999999,-1.001376,2
2024-06-14 10:24:26.781,-2.7649999999999997,-19.005000000000003,1.05,0.014395999999999999,-0.00488,-1.002108,2
2024-06-14 10:24:26.786,-3.29,-16.835,1.015,0.014883999999999998,-0.004392,-1.002596,2
2024-06-14 10:24:26.791,-3.255,-15.96,0.91,0.013663999999999999,-0.0060999999999999995,-1.002596,2
2024-06-14 10:24:26.796,-3.1500000000000004,-16.52,0.98,0.019032,-0.013176,-1.0047920000000001,2
2024-06-14 10:24:26.800,-3.92,-16.765,1.085,0.01464,-0.005856,-1.0035720000000001,2
2024-06-14 10:24:26.805,-3.675,-17.43,1.295,0.02074,-0.005612000000000001,-0.999424,2
2024-06-14 10:24:26.810,-4.0600000000000005,-16.905,1.435,0.0183,-0.01098,-1.002352,2
2024-06-14 10:24:26.815,-4.6899999999999995,-17.465,1.5750000000000002,0.025132,-0.002196,-0.9989359999999999,2
2024-06-14 10:24:26.820,-4.095000000000001,-16.835,1.505,0.026596,-0.0046359999999999995,-0.999424,2
2024-06-14 10:24:26.825,-4.199999999999999,-17.045,1.505,0.026352,-0.0031719999999999995,-1.0011320000000001,2
2024-06-14 10:24:26.829,-4.41,-17.955,1.7149999999999999,0.024155999999999997,-0.0024399999999999995,-0.9940559999999999,2
2024-06-14 10:24:26.834,-4.48,-17.64,1.645,0.026108,-0.001952,-1.006988,2
2024-06-14 10:24:26.839,-5.005000000000001,-18.130000000000003,1.785,0.032695999999999996,-0.005612,-1.0091839999999999,2
2024-06-14 10:24:26.844,-4.83,-18.97,1.96,0.029767999999999996,-0.00048800000000000015,-1.0182120000000001,2
2024-06-14 10:24:26.849,-5.5649999999999995,-19.285,1.9249999999999998,0.030011999999999997,-0.0046359999999999995,-1.0043039999999999,2
2024-06-14 10:24:26.854,-6.02,-19.705,2.1,0.035624,-0.007076,-1.0047920000000001,2
2024-06-14 10:24:26.858,-5.67,-20.37,2.45,0.033916,-0.0068319999999999995,-1.01138,2
2024-06-14 10:24:26.863,-6.300000000000001,-20.44,2.275,0.038552,0.00122,-1.010648,2
2024-06-14 10:24:26.868,-6.335000000000001,-21.91,2.31,0.036356,-0.000244,-1.013088,2
2024-06-14 10:24:26.873,-5.984999999999999,-24.36,2.45,0.037820000000000006,-0.00366,-1.0187,2
2024-06-14 10:24:26.878,-6.6850000000000005,-26.285,2.45,0.040260000000000004,-0.002196,-1.021872,2
2024-06-14 10:24:26.882,-6.51,-29.33,2.66,0.047091999999999995,0.00024399999999999997,-1.022116,2
2024-06-14 10:24:26.887,-6.51,-32.305,2.66,0.048556,0.00244,-1.030656,2
2024-06-14 10:24:26.892,-5.355,-38.605000000000004,2.2399999999999998,0.073932,-0.038552,-1.047736,2
2024-06-14 10:24:26.897,-5.5649999999999995,-48.72,3.045,0.07930000000000001,-0.022692,-0.9860039999999999,2
2024-06-14 10:24:26.902,-6.755,-41.335,2.415,0.05538799999999999,-0.004392,-1.058228,2
2024-06-14 10:24:26.907,-7.35,-44.135000000000005,2.6950000000000003,0.05734,-0.0061,-1.066768,2
2024-06-14 10:24:26.911,-10.71,-45.78,2.66,0.063196,-0.010004,-1.087996,2
2024-06-14 10:24:26.916,-9.309999999999999,-45.675,2.59,0.07075999999999999,-0.008296000000000001,-1.0899480000000001,2
2024-06-14 10:24:26.921,-2.0300000000000002,-43.855000000000004,4.654999999999999,0.06734399999999999,-0.027816,-1.12972,2
2024-06-14 10:24:26.926,-1.0150000000000001,-41.055,5.984999999999999,0.07588400000000001,-0.05734,-1.153876,2
2024-06-14 10:24:26.931,7.5600000000000005,-41.055,7.455,0.084912,0.040748,-1.27978,2
2024-06-14 10:24:26.935,14.455,-40.459999999999994,6.02,0.071736,0.060024,-1.283684,2
2024-06-14 10:24:26.940,18.515,-44.73,5.705,0.077836,0.022204,-1.232444,2
2024-06-14 10:24:26.945,22.119999999999997,-42.665,4.9350000000000005,0.079788,0.062952,-1.2866119999999999,2
2024-06-14 10:24:26.950,14.280000000000001,-51.17,3.15,0.07173600000000001,0.022691999999999997,-1.2795359999999998,2
2024-06-14 10:24:26.955,14.455,-58.345,3.045,0.072956,0.033428,-1.313696,2
2024-06-14 10:24:26.960,13.195,-60.900000000000006,2.66,0.07076,0.050996,-1.403,2
2024-06-14 10:24:26.964,14.035,-68.495,1.6800000000000002,0.0793,0.043188000000000004,-1.362984,2
2024-06-14 10:24:26.969,14.525,-76.965,0.9450000000000001,0.071492,0.040260000000000004,-1.327604,2
2024-06-14 10:24:26.974,19.005,-87.92,0.35,0.088816,0.030255999999999998,-1.40422,2
2024-06-14 10:24:26.979,20.335,-94.71,0.245,0.08296,0.014639999999999999,-1.3066200000000001,2
2024-06-14 10:24:26.984,23.73,-100.87,0.14,0.081008,0.028792,-1.322968,2
2024-06-14 10:24:26.988,25.165,-111.755,-0.42,0.080764,0.051727999999999996,-1.3656679999999999,2
2024-06-14 10:24:26.993,24.43,-123.9,-0.77,0.09272,0.030255999999999998,-1.347368,2
2024-06-14 10:24:26.998,25.445,-134.85500000000002,-0.14,0.093208,0.022204,-1.36884,2
2024-06-14 10:24:27.003,29.435,-142.625,-1.155,0.094672,0.03172,-1.37738,3
2024-06-14 10:24:27.008,30.52,-154.91,-1.7149999999999999,0.09345200000000001,0.009028,-1.403732,3
2024-06-14 10:24:27.013,29.61,-170.38,-1.9249999999999998,0.10150400000000001,0.007807999999999999,-1.45546,3
2024-06-14 10:24:27.017,29.155,-183.05,-1.645,0.097112,-0.01098,-1.450824,3
2024-06-14 10:24:27.022,26.985,-196.0,-1.33,0.101992,-0.02562,-1.5208519999999999,3
2024-06-14 10:24:27.027,24.814999999999998,-212.555,-0.91,0.097844,-0.01464,-1.6445599999999998,3
2024-06-14 10:24:27.032,24.15,-228.655,-0.9450000000000001,0.104188,-0.00244,-1.7453319999999999,3
2024-06-14 10:24:27.037,20.16,-246.995,-1.05,0.095892,-0.033184,-1.796084,3
2024-06-14 10:24:27.041,14.91,-267.12,-0.35,0.094672,-0.075884,-1.857572,3
2024-06-14 10:24:27.046,10.57,-283.04499999999996,1.26,0.101748,-0.101504,-2.011292,3
2024-06-14 10:24:27.051,7.385,-298.095,3.4299999999999997,0.125416,-0.19983599999999999,-1.974448,3
2024-06-14 10:24:27.056,3.15,-322.385,5.74,0.101016,-0.194468,-2.1513479999999996,3
2024-06-14 10:24:27.061,0.06999999999999999,-341.425,7.665000000000001,0.111264,-0.155184,-2.224304,3
2024-06-14 10:24:27.066,-2.8,-357.105,9.415,0.155428,-0.19276,-2.4004719999999997,3
2024-06-14 10:24:27.070,0.5599999999999999,-374.605,11.48,0.18178,-0.185196,-2.631296,3
2024-06-14 10:24:27.075,0.9450000000000001,-392.245,12.705,0.167872,-0.088816,-2.82796,3
2024-06-14 10:24:27.080,0.63,-410.375,11.445,0.132492,-0.097844,-2.936784,3
2024-06-14 10:24:27.085,2.38,-431.935,11.585,0.05246,-0.133224,-2.890424,3
2024-06-14 10:24:27.090,11.725,-450.94,11.094999999999999,0.145668,-0.181536,-3.098068,3
2024-06-14 10:24:27.094,17.045,-468.335,12.004999999999999,0.088816,-0.18446400000000002,-3.109048,3
2024-06-14 10:24:27.099,18.235,-486.99,14.77,0.05978,-0.151768,-3.01584,3
2024-06-14 10:24:27.104,18.865000000000002,-491.995,15.855,0.080764,-0.18788,-3.3074199999999996,3
2024-06-14 10:24:27.109,20.615000000000002,-494.48,18.515,0.097112,-0.25083199999999994,-3.3408480000000003,3
2024-06-14 10:24:27.114,18.095,-487.865,21.14,0.20862000000000003,-0.27132799999999996,-3.5009119999999996,3
2024-06-14 10:24:27.119,22.085,-482.93,25.515,-0.050263999999999996,-0.37795599999999996,-3.7163640000000004,3
2024-06-14 10:24:27.123,16.099999999999998,-479.46500000000003,31.71,-0.45408400000000004,-0.39527999999999996,-3.601196,3
2024-06-14 10:24:27.128,7.945,-469.875,36.89,-1.045052,-0.376248,-3.0256,3
2024-06-14 10:24:27.133,2.66,-453.53,42.245,-1.504016,-0.37088,-2.493436,3
2024-06-14 10:24:27.138,-5.529999999999999,-438.97,46.69,-1.956392,-0.36282800000000004,-1.894904,3
2024-06-14 10:24:27.143,-17.255,-427.595,51.379999999999995,-2.230404,-0.35184799999999994,-1.187304,3
2024-06-14 10:24:27.147,-42.455,-426.615,57.260000000000005,-2.412916,-0.403088,-0.937448,3
2024-06-14 10:24:27.152,-73.22,-458.43,68.07499999999999,-2.077172,-0.35038400000000003,-0.427976,3
2024-06-14 10:24:27.157,-77.41999999999999,-407.78499999999997,69.195,-1.694336,-0.39698799999999995,-0.450424,3
2024-06-14 10:24:27.162,-32.2,-286.23,61.985,-1.9581,-0.49385599999999996,-1.18096,3
2024-06-14 10:24:27.167,-3.22,-193.48000000000002,45.535,-1.87392,-0.36722,-1.44082,3
2024-06-14 10:24:27.172,5.32,-100.625,24.255,-1.85318,-0.259372,-1.152412,3
2024-06-14 10:24:27.176,-1.9949999999999999,-21.595,6.055000000000001,-1.92394,-0.090036,-1.131672,3
2024-06-14 10:24:27.181,-10.254999999999999,38.22,-6.965,-1.75192,0.026352,-1.11752,3
2024-06-14 10:24:27.186,-26.25,77.63,-18.865000000000002,-1.512312,0.010735999999999999,-1.05286,3
2024-06-14 10:24:27.191,-43.364999999999995,101.15,-28.21,-1.348588,-0.041724,-0.963312,3
2024-06-14 10:24:27.196,-52.255,114.31,-34.125,-1.210728,-0.110288,-0.815936,3
2024-06-14 10:24:27.198,-52.325,117.66999999999999,-35.28,-1.177056,-0.145424,-0.75518,4
2024-06-14 10:24:27.201,-46.655,121.065,-35.84,-1.078236,-0.21862399999999999,-0.6219560000000001,4
2024-06-14 10:24:27.206,-35.0,123.375,-34.405,-1.006988,-0.248392,-0.532896,4
2024-06-14 10:24:27.211,-19.740000000000002,127.82,-32.515,-0.958188,-0.24814799999999998,-0.468724,4
2024-06-14 10:24:27.216,-4.2,134.995,-30.555,-0.9286639999999999,-0.215452,-0.421388,4
2024-06-14 10:24:27.221,8.295,145.14499999999998,-28.84,-0.895236,-0.162016,-0.40333199999999997,4
2024-06-14 10:24:27.226,17.255,157.815,-27.545,-0.863272,-0.09516,-0.402356,4
2024-06-14 10:24:27.230,21.525,171.885,-26.810000000000002,-0.8264279999999999,-0.040260000000000004,-0.41602000000000006,4
2024-06-14 10:24:27.235,21.035,186.69,-26.18,-0.7900719999999999,0.005856,-0.44212799999999997,4
2024-06-14 10:24:27.240,17.045,201.74,-25.48,-0.743468,0.029767999999999996,-0.47506799999999993,4
2024-06-14 10:24:27.245,10.92,216.685,-24.71,-0.692716,0.042212,-0.5121560000000001,4
2024-06-14 10:24:27.250,3.605,230.93,-23.625,-0.6361079999999999,0.040015999999999996,-0.55754,4
2024-06-14 10:24:27.255,-4.375,244.195,-22.225,-0.575352,0.028059999999999998,-0.59902,4
2024-06-14 10:24:27.260,-12.004999999999999,256.06,-20.509999999999998,-0.52094,0.0053679999999999995,-0.644404,4
2024-06-14 10:24:27.264,-18.130000000000003,266.28,-18.34,-0.45774400000000004,-0.027083999999999997,-0.7012560000000001,4
2024-06-14 10:24:27.269,-22.89,274.82,-16.1,-0.3843,-0.061,-0.759816,4
2024-06-14 10:24:27.274,-26.11,282.1,-13.685,-0.32256799999999997,-0.089304,-0.816424,4
2024-06-14 10:24:27.279,-26.985,288.435,-11.655,-0.270108,-0.118584,-0.862052,4
2024-06-14 10:24:27.284,-25.725,294.595,-10.01,-0.221796,-0.135176,-0.91378,4
2024-06-14 10:24:27.289,-24.115000000000002,300.475,-9.100000000000001,-0.162748,-0.14322800000000002,-0.9720959999999998,4
2024-06-14 10:24:27.294,-23.03,306.25,-8.54,-0.110288,-0.157868,-1.038708,4
2024-06-14 10:24:27.298,-22.33,311.885,-8.715,-0.06222,-0.162748,-1.0933640000000002,4
2024-06-14 10:24:27.303,-21.77,317.695,-9.59,-0.023667999999999998,-0.171532,-1.15534,4
2024-06-14 10:24:27.308,-21.84,323.365,-10.885,0.025132,-0.18348799999999998,-1.2261,4
2024-06-14 10:24:27.313,-21.56,328.65,-12.215,0.075152,-0.208376,-1.290028,4
2024-06-14 10:24:27.318,-20.685000000000002,333.76,-13.58,0.14273999999999998,-0.221552,-1.3344360000000002,4
2024-06-14 10:24:27.323,-19.285,338.31,-15.120000000000001,0.194712,-0.24522,-1.3632279999999999,4
2024-06-14 10:24:27.328,-17.255000000000003,342.125,-16.415,0.24692799999999998,-0.269864,-1.400316,4
2024-06-14 10:24:27.332,-14.594999999999999,344.89,-17.22,0.30280399999999996,-0.29255600000000004,-1.43716,4
2024-06-14 10:24:27.337,-10.780000000000001,346.36,-17.465,0.36234,-0.32208,-1.47498,4
2024-06-14 10:24:27.342,-6.404999999999999,347.34000000000003,-17.29,0.41626399999999997,-0.33330399999999993,-1.5130439999999998,4
2024-06-14 10:24:27.347,-0.98,347.235,-16.939999999999998,0.447496,-0.354044,-1.553792,4
2024-06-14 10:24:27.352,5.18,346.255,-16.240000000000002,0.483852,-0.355264,-1.5716040000000002,4
2024-06-14 10:24:27.357,12.705,345.135,-15.33,0.5248440000000001,-0.36722,-1.6023479999999999,4
2024-06-14 10:24:27.362,20.79,343.07,-14.524999999999999,0.55998,-0.36478,-1.6238199999999998,4
2024-06-14 10:24:27.366,27.405,340.13,-13.79,0.58804,-0.341356,-1.647732,4
2024-06-14 10:24:27.371,33.285,337.12,-13.79,0.5936520000000001,-0.316712,-1.652612,4
2024-06-14 10:24:27.376,34.230000000000004,332.46500000000003,-13.510000000000002,0.5624199999999999,-0.30866000000000005,-1.722884,4
2024-06-14 10:24:27.381,33.6,326.305,-12.774999999999999,0.6099999999999999,-0.307196,-1.708,4
2024-06-14 10:24:27.386,31.395000000000003,319.76,-12.46,0.602192,-0.301584,-1.7489919999999999,4
2024-06-14 10:24:27.391,29.119999999999997,313.355,-11.899999999999999,0.599264,-0.295484,-1.758996,4
2024-06-14 10:24:27.396,27.545,307.44000000000005,-11.235,0.615856,-0.31012399999999996,-1.7870559999999998,4
2024-06-14 10:24:27.400,27.65,301.455,-10.325,0.6402559999999999,-0.336476,-1.836344,4
2024-06-14 10:24:27.405,30.134999999999998,295.995,-9.205,0.685396,-0.372588,-1.8673319999999998,4
2024-06-14 10:24:27.410,34.265,291.445,-7.664999999999999,0.7212639999999999,-0.39747599999999994,-1.8968559999999999,4
2024-06-14 10:24:27.415,40.144999999999996,288.155,-5.74,0.762256,-0.40894400000000003,-1.91906,4
2024-06-14 10:24:27.420,48.405,286.09000000000003,-3.3949999999999996,0.8052,-0.406748,-1.935896,4
2024-06-14 10:24:27.425,57.68,285.635,-1.12,0.857172,-0.389668,-1.958588,4
2024-06-14 10:24:27.430,65.38,286.055,1.26,0.887672,-0.357216,-1.9805480000000002,4
2024-06-14 10:24:27.434,71.295,287.175,3.71,0.924516,-0.321592,-1.996896,4
2024-06-14 10:24:27.439,75.355,288.4,6.125,0.9577,-0.27767200000000003,-2.010316,4
2024-06-14 10:24:27.444,77.0,290.08,8.54,1.057496,-0.22813999999999998,-2.0415479999999997,4
2024-06-14 10:24:27.449,77.10499999999999,291.095,10.29,1.148752,-0.197884,-2.0408160000000004,4
2024-06-14 10:24:27.454,77.66499999999999,292.32,11.969999999999999,1.247572,-0.144936,-2.0376440000000002,4
2024-06-14 10:24:27.459,79.555,292.74,12.915,1.3649360000000001,-0.100284,-2.01666,4
2024-06-14 10:24:27.464,82.98500000000001,292.005,13.754999999999999,1.475956,-0.071492,-2.00568,4
2024-06-14 10:24:27.468,87.255,289.905,14.594999999999999,1.610156,-0.038796,-1.9876239999999998,4
2024-06-14 10:24:27.473,90.30000000000001,285.81,15.715,1.7370359999999998,-0.011223999999999998,-1.961516,4
2024-06-14 10:24:27.478,91.455,279.93,17.22,1.869772,0.011956000000000001,-1.931992,4
2024-06-14 10:24:27.483,89.565,271.81,19.634999999999998,2.0059240000000003,0.010492,-1.878312,4
2024-06-14 10:24:27.488,81.83,260.75,23.345,2.210884,0.009272,-1.879044,4
2024-06-14 10:24:27.493,76.125,249.935,28.805,2.4029119999999997,-0.017324,-1.7494800000000001,4
2024-06-14 10:24:27.497,66.5,237.01999999999998,35.525000000000006,2.594696,-0.05660799999999999,-1.661152,4
2024-06-14 10:24:27.502,55.965,221.55,43.715,2.8030720000000002,-0.099796,-1.5655039999999998,4
2024-06-14 10:24:27.507,47.495000000000005,204.225,53.095,3.0236479999999997,-0.134444,-1.4622920000000001,4
2024-06-14 10:24:27.512,42.84,185.185,63.14,3.235684,-0.15250000000000002,-1.3639599999999998,4
2024-06-14 10:24:27.517,44.03,164.85,73.11500000000001,3.459676,-0.144692,-1.2841719999999999,4
2024-06-14 10:24:27.522,50.855000000000004,142.765,81.83000000000001,3.66488,-0.089304,-1.238788,4
2024-06-14 10:24:27.527,60.725,117.46000000000001,88.235,3.8132319999999997,0.009272,-1.228784,4
2024-06-14 10:24:27.531,69.545,89.25,90.86,3.897412,0.147864,-1.1977959999999999,4
2024-06-14 10:24:27.536,73.71000000000001,58.834999999999994,89.25,3.8886279999999998,0.30280399999999996,-1.163392,4
2024-06-14 10:24:27.541,70.525,27.125,84.13999999999999,3.809572,0.452132,-1.13216,4
2024-06-14 10:24:27.546,57.33,-6.475,75.46000000000001,3.6356,0.591456,-1.152412,4
2024-06-14 10:24:27.551,33.39,-40.144999999999996,63.665,3.4152679999999997,0.69418,-1.162172,4
2024-06-14 10:24:27.556,-145.845,-173.74,37.205,4.2785400000000005,2.734508,-4.502776,4
