time,gyroscope_x,gyroscope_y,gyroscope_z,accelerometer_x,accelerometer_y,accelerometer_z,phase
2024-06-14 11:16:28.276,-181.23000000000002,-315.105,45.394999999999996,3.9210799999999995,1.142652,-2.7542720000000003,1
2024-06-14 11:16:28.280,-246.68,-318.255,9.379999999999999,1.5171919999999999,0.305244,-0.1464,1
2024-06-14 11:16:28.285,-286.615,-330.57500000000005,-1.5400000000000003,0.264496,-0.27645200000000003,-1.215608,1
2024-06-14 11:16:28.290,-202.615,-296.065,-16.415,0.009028000000000008,-0.31378399999999995,-1.6057639999999997,1
2024-06-14 11:16:28.295,-110.635,-266.105,-42.805,-0.936228,-0.24302400000000002,-1.463512,1
2024-06-14 11:16:28.300,-28.630000000000003,-252.385,-78.33000000000001,-0.683444,-0.30011999999999994,-1.438136,1
2024-06-14 11:16:28.305,16.66,-258.15999999999997,-101.045,-0.379664,-0.219356,-1.4849839999999999,1
2024-06-14 11:16:28.309,36.995000000000005,-257.075,-111.545,0.03147599999999999,-0.036112000000000005,-1.6089360000000001,1
2024-06-14 11:16:28.314,46.655,-254.02999999999997,-111.475,0.187636,0.23204399999999997,-1.561112,1
2024-06-14 11:16:28.319,41.019999999999996,-258.405,-102.62,0.284504,0.41626399999999997,-1.61162,1
2024-06-14 11:16:28.324,42.489999999999995,-259.105,-84.42,0.147864,0.690276,-1.861232,1
2024-06-14 11:16:28.329,30.59,-261.765,-57.68000000000001,0.0793,0.8535119999999999,-2.351428,1
2024-06-14 11:16:28.334,21.700000000000003,-246.78499999999997,-22.575000000000003,0.089304,0.7917799999999999,-2.5663919999999996,1
2024-06-14 11:16:28.338,18.025,-197.47,10.045,0.148108,0.38186,-2.3868080000000003,1
2024-06-14 11:16:28.343,10.254999999999999,-140.49,24.57,0.132248,0.010736000000000002,-1.972008,1
2024-06-14 11:16:28.348,3.64,-85.575,19.634999999999998,0.077836,-0.22399200000000002,-1.630896,1
2024-06-14 11:16:28.353,2.59,-44.730000000000004,4.76,0.099552,-0.261568,-1.325408,1
2024-06-14 11:16:28.358,4.970000000000001,-25.41,-11.620000000000001,0.04660399999999999,-0.16738399999999998,-1.1970640000000001,1
2024-06-14 11:16:28.363,4.9,-15.575,-17.64,-0.028059999999999998,-0.001952,-1.1272799999999998,1
2024-06-14 11:16:28.367,2.38,-9.975,-11.934999999999999,-0.08125199999999999,0.07686000000000001,-1.071892,1
2024-06-14 11:16:28.372,-0.35,-3.395,-3.465,-0.052947999999999995,0.065636,-1.042612,1
2024-06-14 11:16:28.377,-0.595,-4.41,1.7850000000000001,-0.005123999999999999,0.011711999999999997,-1.0496879999999997,1
2024-06-14 11:16:28.382,-0.385,-4.725,0.7350000000000001,-0.008296000000000001,-0.032451999999999995,-1.053348,1
2024-06-14 11:16:28.387,-0.06999999999999999,-4.83,-3.43,-0.036112,-0.015372,-1.0448080000000002,1
2024-06-14 11:16:28.392,0.175,-4.445,-4.55,-0.049288000000000005,0.00244,-1.0187,2
2024-06-14 11:16:28.397,-0.595,-2.5549999999999997,-1.855,-0.09638,0.022203999999999998,-1.030168,2
2024-06-14 11:16:28.401,-1.505,-2.415,0.875,-0.06124399999999999,0.00048799999999999994,-1.045784,2
2024-06-14 11:16:28.406,-1.5750000000000002,-2.2750000000000004,0.35,-0.06978399999999998,-0.022203999999999998,-1.042856,2
2024-06-14 11:16:28.411,-1.365,-2.205,-0.525,-0.07905599999999999,-0.023668,-1.0365119999999999,2
2024-06-14 11:16:28.416,-1.61,-2.1,-0.31500000000000006,-0.08662,-0.0009759999999999994,-1.0316319999999999,2
2024-06-14 11:16:28.421,-0.98,-2.73,0.17500000000000002,-0.083204,0.010003999999999999,-1.026508,2
2024-06-14 11:16:28.426,0.034999999999999976,-4.025,0.245,-0.080764,0.0029279999999999996,-1.024556,2
2024-06-14 11:16:28.430,0.875,-6.055,-0.07,-0.08979200000000001,-0.005611999999999999,-1.019676,2
2024-06-14 11:16:28.435,1.33,-7.84,0.07,-0.09516,-0.00488,-1.022116,2
2024-06-14 11:16:28.440,1.47,-9.555,0.21,-0.088816,-0.007076,-1.018456,2
2024-06-14 11:16:28.445,1.6800000000000002,-10.64,0.315,-0.092476,-0.011467999999999999,-1.019188,2
2024-06-14 11:16:28.450,1.47,-11.34,0.245,-0.092476,-0.0068319999999999995,-1.018456,2
2024-06-14 11:16:28.455,1.47,-12.215,0.28,-0.089548,-0.0061,-1.0226039999999998,2
2024-06-14 11:16:28.459,1.645,-13.405000000000001,0.385,-0.093208,-0.000732,-1.0240679999999998,2
2024-06-14 11:16:28.464,1.6099999999999999,-14.84,0.385,-0.09028,-0.0053679999999999995,-1.0267519999999999,2
2024-06-14 11:16:28.469,1.6099999999999999,-15.645,0.45499999999999996,-0.090036,-0.003904,-1.02602,2
2024-06-14 11:16:28.474,1.68,-15.504999999999999,0.63,-0.084912,-0.007076000000000001,-1.014064,2
2024-06-14 11:16:28.479,1.61,-15.155000000000001,0.63,-0.08247199999999999,-0.005856,-1.0169920000000001,2
2024-06-14 11:16:28.484,1.645,-16.065,0.77,-0.087108,-0.011712,-1.020896,2
2024-06-14 11:16:28.488,1.47,-16.450000000000003,0.84,-0.08247199999999999,-0.00488,-1.0226039999999998,2
2024-06-14 11:16:28.493,0.245,-8.225,0.735,-0.08418,-0.0026839999999999998,-1.0240679999999998,2
2024-06-14 11:16:28.498,1.68,-17.919999999999998,0.84,-0.080276,-0.008296,-1.0213839999999998,2
2024-06-14 11:16:28.503,1.26,-18.725,0.735,-0.080032,-0.0034159999999999998,-1.019676,2
2024-06-14 11:16:28.508,1.89,-24.5,0.595,-0.062708,-0.002927999999999999,-1.018456,2
2024-06-14 11:16:28.513,1.085,-19.32,0.665,-0.072712,-0.008296,-1.0182120000000001,2
2024-06-14 11:16:28.517,1.4,-19.88,0.56,-0.055632,-0.023668,-1.014308,2
2024-06-14 11:16:28.522,0.63,-21.525,0.84,-0.067344,-0.006344,-1.0194320000000001,2
2024-06-14 11:16:28.527,-3.0450000000000004,-0.41999999999999993,0.28,-0.03294,-0.011224,-1.0108920000000001,2
2024-06-14 11:16:28.532,0.455,-22.015,0.875,-0.064416,-0.007807999999999999,-1.014308,2
2024-06-14 11:16:28.537,0.665,-24.009999999999998,0.9099999999999999,-0.07588400000000001,0.0021960000000000005,-1.01748,2
2024-06-14 11:16:28.542,0.14,-27.825,1.295,-0.079788,-0.009516,-1.01138,2
2024-06-14 11:16:28.546,-0.27999999999999997,-20.545,1.33,-0.020496,-0.018543999999999998,-1.00406,2
2024-06-14 11:16:28.551,-0.98,-19.11,1.54,-0.064416,-0.007808000000000001,-1.009916,2
2024-06-14 11:16:28.556,-0.7,-21.07,1.75,-0.039772,-0.014884,-1.005768,2
2024-06-14 11:16:28.561,-0.9099999999999999,-19.845,1.645,-0.038064,-0.024644,-1.0018639999999999,2
2024-06-14 11:16:28.566,-1.0150000000000001,-19.25,1.8900000000000001,-0.046116000000000004,-0.007808,-1.012356,2
2024-06-14 11:16:28.571,-0.98,-19.53,1.9249999999999998,-0.066856,-0.0019520000000000015,-1.011136,2
2024-06-14 11:16:28.575,-1.19,-18.725,2.1,-0.06758800000000001,-0.0031719999999999995,-1.010404,2
2024-06-14 11:16:28.580,-1.33,-17.605,2.17,-0.041968,-0.011712,-1.0084520000000001,2
2024-06-14 11:16:28.585,-1.505,-17.325,2.135,-0.056364,0.0017079999999999994,-1.0152839999999999,2
2024-06-14 11:16:28.590,-0.63,-17.815,2.1,-0.054656,-0.007076000000000001,-1.011136,2
2024-06-14 11:16:28.595,-11.41,-52.5,3.115,-0.036356,-0.005611999999999999,-1.0065,2
2024-06-14 11:16:28.600,1.085,-14.280000000000001,1.96,-0.04026,0.00122,-1.0043039999999999,2
2024-06-14 11:16:28.605,-1.995,-13.51,1.575,-0.050019999999999995,0.0053679999999999995,-1.008208,2
2024-06-14 11:16:28.609,0.31500000000000006,-13.684999999999999,1.6099999999999999,-0.040504,0.00024399999999999997,-1.0091839999999999,2
2024-06-14 11:16:28.614,0.0,-13.23,1.75,-0.032452,-0.003904,-1.0055239999999999,2
2024-06-14 11:16:28.619,-0.6300000000000001,-13.265,1.855,-0.034892,0.00048799999999999994,-1.008696,2
2024-06-14 11:16:28.624,0.91,-13.299999999999999,1.75,-0.036356,0.00048800000000000004,-1.0065,2
2024-06-14 11:16:28.629,0.03500000000000003,-14.0,1.54,-0.033428,-0.001952,-1.01382,2
2024-06-14 11:16:28.634,0.84,-15.120000000000001,1.295,-0.034159999999999996,0.005124,-1.0152839999999999,2
2024-06-14 11:16:28.638,1.155,-15.82,1.19,-0.029035999999999996,0.0,-1.0116239999999999,2
2024-06-14 11:16:28.643,0.875,-16.415,1.295,-0.029523999999999995,-0.00024400000000000002,-1.010648,2
2024-06-14 11:16:28.648,1.8900000000000001,-17.465,1.4,-0.027327999999999998,-0.003904,-1.013576,2
2024-06-14 11:16:28.653,1.4700000000000002,-17.395,1.54,-0.03172,-0.0075639999999999995,-1.0165039999999999,2
2024-06-14 11:16:28.658,1.295,-18.34,1.645,-0.027083999999999997,-0.009516,-1.014308,2
2024-06-14 11:16:28.663,0.98,-19.39,1.855,-0.02928,-0.016592000000000003,-1.013332,2
2024-06-14 11:16:28.667,0.315,-20.685000000000002,2.1,-0.032208,-0.014884,-1.013088,2
2024-06-14 11:16:28.672,-0.245,-22.47,2.52,-0.032940000000000004,-0.017812,-1.016748,2
2024-06-14 11:16:28.677,-1.3650000000000002,-25.585,2.765,-0.029524,-0.019520000000000003,-1.024068,2
2024-06-14 11:16:28.682,-3.99,-28.0,2.73,-0.0305,-0.011956,-1.03822,2
2024-06-14 11:16:28.687,-9.24,-30.38,2.03,-0.02928,-0.014395999999999999,-1.04066,2
2024-06-14 11:16:28.692,-11.76,-35.175,1.855,-0.025863999999999998,-0.015127999999999999,-1.042612,2
2024-06-14 11:16:28.696,-14.454999999999998,-41.055,1.505,-0.022936,-0.00732,-1.055544,2
2024-06-14 11:16:28.701,-14.07,-45.15,1.47,-0.017568,-0.003904,-1.0618880000000002,2
2024-06-14 11:16:28.706,-13.125,-47.004999999999995,1.435,-0.012444,0.008052,-1.0653039999999998,2
2024-06-14 11:16:28.711,-12.11,-49.035,0.735,-0.00854,-0.00048800000000000004,-1.067988,2
2024-06-14 11:16:28.716,-6.8950000000000005,-53.445,0.595,0.00366,0.005612,-1.071892,2
2024-06-14 11:16:28.721,-5.005,-57.96,0.49,-0.007075999999999999,0.005856,-1.0943399999999999,2
2024-06-14 11:16:28.725,-1.645,-59.885000000000005,0.10499999999999998,0.009271999999999999,0.017324,-1.090192,2
2024-06-14 11:16:28.730,4.515000000000001,-65.415,-0.245,0.011956,0.000732,-1.139968,2
2024-06-14 11:16:28.735,9.66,-71.89,-0.7,0.015371999999999999,0.017812,-1.165588,2
2024-06-14 11:16:28.740,8.54,-69.055,-0.735,0.017324,0.014883999999999998,-1.21024,2
2024-06-14 11:16:28.745,13.44,-68.53,-0.5599999999999999,0.014152000000000001,0.015128,-1.265384,2
2024-06-14 11:16:28.750,16.380000000000003,-69.755,-0.42,0.005612,0.044163999999999995,-1.3110119999999998,2
2024-06-14 11:16:28.754,20.825,-71.715,-0.35,0.01464,0.006344,-1.320284,2
2024-06-14 11:16:28.759,25.375,-73.28999999999999,-0.035,0.020739999999999998,0.005124,-1.3502960000000002,2
2024-06-14 11:16:28.764,30.17,-73.535,0.14,0.025376,0.024399999999999998,-1.353712,2
2024-06-14 11:16:28.769,32.235,-77.455,-0.21000000000000002,0.022204,0.01342,-1.38836,2
2024-06-14 11:16:28.774,35.525,-83.82499999999999,-0.385,0.017324,0.040015999999999996,-1.434964,2
2024-06-14 11:16:28.779,37.835,-90.65,-0.8400000000000001,0.020984,0.030255999999999998,-1.430084,2
2024-06-14 11:16:28.783,43.19,-102.41,-0.49,0.014884,0.046848,-1.417884,3
2024-06-14 11:16:28.788,47.18,-114.485,0.035,0.009271999999999999,0.037332000000000004,-1.5877080000000001,3
2024-06-14 11:16:28.793,43.68000000000001,-120.575,0.07,0.016592,-0.0039040000000000004,-1.53598,3
2024-06-14 11:16:28.798,43.995000000000005,-132.37,0.315,-0.0034159999999999993,-0.022448,-1.5664799999999999,3
2024-06-14 11:16:28.803,45.36,-144.06,-1.54,-0.0036600000000000005,0.028304,-1.612352,3
2024-06-14 11:16:28.808,45.5,-158.305,-1.33,-0.007076,-0.052704,-1.62016,3
2024-06-14 11:16:28.812,46.375,-173.425,-0.525,-0.010735999999999999,-0.022691999999999997,-1.6301639999999997,3
2024-06-14 11:16:28.817,45.115,-189.945,-0.525,-0.015616000000000001,-0.03538,-1.634556,3
2024-06-14 11:16:28.822,44.73,-207.48000000000002,0.385,-0.029036,-0.081252,-1.669692,3
2024-06-14 11:16:28.827,45.325,-225.85500000000002,1.505,-0.038796,-0.046604,-1.693116,3
2024-06-14 11:16:28.832,46.480000000000004,-244.93,2.1350000000000002,-0.049288,-0.051484,-1.7577760000000002,3
2024-06-14 11:16:28.837,48.405,-265.615,2.835,-0.05368,-0.016836,-1.8136519999999998,3
2024-06-14 11:16:28.842,49.91,-287.805,2.8,-0.067832,-0.011468,-1.885876,3
2024-06-14 11:16:28.846,52.92,-310.275,3.5,-0.07588400000000001,-0.075396,-1.95932,3
2024-06-14 11:16:28.851,52.92,-334.81,4.6899999999999995,-0.09345200000000001,-0.112728,-2.02398,3
2024-06-14 11:16:28.856,50.085,-361.095,6.09,-0.11565600000000001,-0.145912,-2.1171880000000005,3
2024-06-14 11:16:28.861,45.394999999999996,-387.41499999999996,8.225,-0.104432,-0.17885199999999998,-2.1813599999999997,3
2024-06-14 11:16:28.866,42.735,-412.19500000000005,10.605,-0.087352,-0.22155199999999997,-2.346304,3
2024-06-14 11:16:28.871,37.239999999999995,-435.75,13.055,-0.049532,-0.22814,-2.5163720000000005,3
2024-06-14 11:16:28.875,33.705,-456.61,14.524999999999999,0.064904,-0.205204,-2.7511,3
2024-06-14 11:16:28.880,35.035,-473.9,14.875,0.113216,-0.149816,-3.019744,3
2024-06-14 11:16:28.885,33.985,-490.0,14.0,0.14274000000000003,0.011223999999999998,-3.103192,3
2024-06-14 11:16:28.890,26.32,-507.325,10.219999999999999,0.15225599999999997,0.067344,-3.1690720000000003,3
2024-06-14 11:16:28.895,23.939999999999998,-517.615,3.3600000000000003,0.270352,-0.197152,-3.41966,3
2024-06-14 11:16:28.900,39.025,-520.135,4.9350000000000005,0.310368,-0.382592,-3.460896,3
2024-06-14 11:16:28.904,40.845,-528.745,10.045,0.21862399999999999,-0.223748,-3.328404,3
2024-06-14 11:16:28.909,32.515,-535.115,12.39,0.24595199999999998,-0.052216,-3.269112,3
2024-06-14 11:16:28.914,17.990000000000002,-539.4549999999999,11.445,0.2501,0.007808000000000001,-3.267892,3
2024-06-14 11:16:28.919,1.2250000000000005,-532.735,15.295,0.16469999999999999,-0.004392000000000001,-3.1146599999999998,3
2024-06-14 11:16:28.924,-25.619999999999997,-515.095,9.03,0.10467599999999999,0.038307999999999995,-3.163704,3
2024-06-14 11:16:28.929,-32.9,-488.46000000000004,4.06,-0.130296,-0.21838,-3.166388,3
2024-06-14 11:16:28.933,-34.23,-462.315,0.56,-0.674172,-0.406748,-3.0744,3
2024-06-14 11:16:28.938,-19.53,-430.18499999999995,2.135,-1.3234560000000002,-0.49654,-2.8335719999999998,3
2024-06-14 11:16:28.943,-7.49,-398.615,5.46,-2.0720479999999997,-0.575596,-2.3758280000000003,4
2024-06-14 11:16:28.948,7.49,-371.7,13.545,-2.667164,-0.676124,-1.98372,4
2024-06-14 11:16:28.953,24.5,-359.065,38.395,-2.447076,-0.7363919999999999,-1.629432,4
2024-06-14 11:16:28.958,29.049999999999997,-395.255,71.82,-1.746308,-0.8291120000000001,-0.8862079999999999,4
2024-06-14 11:16:28.962,22.259999999999998,-390.28499999999997,84.77,-1.2358600000000002,-0.7966599999999999,-0.657092,4
2024-06-14 11:16:28.967,51.415,-253.61,96.46000000000001,-1.9476079999999998,-0.590724,-0.9106080000000001,4
2024-06-14 11:16:28.972,89.35499999999999,-157.15,112.07,-2.222596,-0.428952,-1.300764,4
2024-06-14 11:16:28.977,93.205,-59.92,115.71000000000001,-1.9427279999999998,-0.10784799999999999,-1.083604,4
2024-06-14 11:16:28.982,70.14,22.61,105.63,-1.9212559999999999,0.169336,-1.1436279999999999,4
2024-06-14 11:16:28.987,38.045,82.705,92.225,-1.8665999999999998,0.29304399999999997,-1.196088,4
2024-06-14 11:16:28.991,3.22,121.13499999999999,77.805,-1.721908,0.318176,-1.122644,4
2024-06-14 11:16:28.996,-28.805,141.4,63.455,-1.5830719999999998,0.24107199999999998,-1.01992,4
2024-06-14 11:16:29.001,-50.61,150.07999999999998,51.905,-1.463268,0.137128,-0.898164,4
2024-06-14 11:16:29.006,-60.515,153.405,43.96,-1.364204,0.026352,-0.767868,4
2024-06-14 11:16:29.011,-61.495,155.505,38.325,-1.259284,-0.071004,-0.6466000000000001,4
2024-06-14 11:16:29.016,-54.705,160.475,34.58,-1.162416,-0.134688,-0.5611999999999999,4
2024-06-14 11:16:29.020,-41.965,169.225,32.445,-1.0955599999999999,-0.16250399999999998,-0.512644,4
2024-06-14 11:16:29.025,-26.810000000000002,181.125,31.255000000000003,-1.0511519999999999,-0.155916,-0.49995599999999996,4
2024-06-14 11:16:29.030,-12.845,194.53,29.96,-1.003816,-0.133468,-0.494832,4
2024-06-14 11:16:29.035,-2.9050000000000002,208.565,28.665,-0.9640439999999999,-0.07783599999999999,-0.5175239999999999,4
2024-06-14 11:16:29.040,2.555,222.18,26.740000000000002,-0.92476,-0.011956,-0.544364,4
2024-06-14 11:16:29.045,3.4299999999999997,234.815,24.395,-0.885232,0.04148,-0.579256,4
2024-06-14 11:16:29.050,0.56,246.26,21.77,-0.846436,0.076372,-0.6117079999999999,4
2024-06-14 11:16:29.054,-3.92,256.725,19.424999999999997,-0.814472,0.09467199999999999,-0.642452,4
2024-06-14 11:16:29.059,-8.434999999999999,266.49,17.71,-0.769332,0.097844,-0.6756359999999999,4
2024-06-14 11:16:29.064,-11.620000000000001,275.45,16.485,-0.7341960000000001,0.084912,-0.707112,4
2024-06-14 11:16:29.069,-12.985,283.675,16.17,-0.703208,0.065636,-0.737368,4
2024-06-14 11:16:29.074,-11.97,291.97,16.835,-0.672952,0.045872,-0.760792,4
2024-06-14 11:16:29.079,-9.065,299.95000000000005,18.270000000000003,-0.648064,0.023424,-0.793244,4
2024-06-14 11:16:29.083,-4.795,308.105,20.369999999999997,-0.625372,0.008784,-0.840824,4
2024-06-14 11:16:29.088,0.03500000000000003,315.875,23.1,-0.600728,0.00244,-0.9001159999999999,4
2024-06-14 11:16:29.093,4.655,323.715,26.215,-0.581696,0.014395999999999999,-0.935496,4
2024-06-14 11:16:29.098,8.015,332.01,29.015,-0.576328,0.04148,-0.962824,4
2024-06-14 11:16:29.103,10.15,340.935,31.64,-0.5614439999999999,0.06490399999999999,-1.007476,4
2024-06-14 11:16:29.108,10.955,349.545,33.635000000000005,-0.533628,0.083204,-1.085556,4
2024-06-14 11:16:29.112,10.99,357.49,35.07,-0.49288,0.102968,-1.157292,4
2024-06-14 11:16:29.117,10.71,365.365,35.525000000000006,-0.449936,0.122,-1.211216,4
2024-06-14 11:16:29.122,10.010000000000002,372.71500000000003,35.455,-0.423096,0.12468399999999999,-1.286856,4
2024-06-14 11:16:29.127,9.344999999999999,379.29499999999996,34.894999999999996,-0.391132,0.12566,-1.36518,4
2024-06-14 11:16:29.132,8.715,385.805,34.09,-0.36453599999999997,0.12078,-1.4457,4
2024-06-14 11:16:29.137,7.84,391.65,32.69,-0.32500799999999996,0.127856,-1.5118239999999998,4
2024-06-14 11:16:29.141,7.84,397.95000000000005,30.975,-0.29890000000000005,0.113948,-1.592832,4
2024-06-14 11:16:29.146,7.595,403.095,29.189999999999998,-0.268644,0.107604,-1.665788,4
2024-06-14 11:16:29.151,8.295,407.995,27.825000000000003,-0.23497200000000001,0.08662,-1.7380120000000001,4
2024-06-14 11:16:29.159,10.29,412.09000000000003,26.46,-0.193004,0.066856,-1.809748,4
2024-06-14 11:16:29.164,13.79,414.995,25.619999999999997,-0.14152,0.042699999999999995,-1.889536,4
2024-06-14 11:16:29.169,18.549999999999997,415.8,25.27,-0.084912,0.01952,-1.969812,4
2024-06-14 11:16:29.173,24.43,414.71500000000003,25.13,-0.011712,-0.003416,-2.0449640000000002,4
2024-06-14 11:16:29.178,31.465,410.9,25.13,0.061975999999999996,-0.02806,-2.1225560000000003,4
2024-06-14 11:16:29.183,39.375,404.565,25.025,0.150304,-0.03904,-2.1947799999999997,4
2024-06-14 11:16:29.188,48.265,395.28999999999996,23.695,0.24375599999999997,-0.051239999999999994,-2.280424,4
2024-06-14 11:16:29.193,57.504999999999995,383.6,20.229999999999997,0.34843199999999996,-0.041236,-2.3870519999999997,4
2024-06-14 11:16:29.197,65.59,370.51,13.86,0.446764,-0.011467999999999999,-2.507588,4
2024-06-14 11:16:29.202,71.925,358.12,4.76,0.51484,0.029768,-2.643008,4
2024-06-14 11:16:29.207,74.795,349.685,-6.965,0.559736,0.07466400000000001,-2.7525639999999996,4
2024-06-14 11:16:29.212,73.28999999999999,346.605,-20.86,0.6034120000000001,0.09955199999999999,-2.823324,4
2024-06-14 11:16:29.217,67.725,347.83,-36.400000000000006,0.669292,0.08710799999999999,-2.881396,4
2024-06-14 11:16:29.221,60.305,350.90999999999997,-52.849999999999994,0.760304,0.054167999999999994,-2.950692,4
2024-06-14 11:16:29.226,52.71,353.67499999999995,-68.94999999999999,0.864492,-0.008052,-2.998516,4
2024-06-14 11:16:29.231,47.075,355.775,-83.755,0.980148,-0.068808,-3.039264,4
2024-06-14 11:16:29.236,42.91,356.895,-96.845,1.10898,-0.146644,-3.0683,4
2024-06-14 11:16:29.241,39.585,357.90999999999997,-107.765,1.280756,-0.225212,-3.0736679999999996,4
2024-06-14 11:16:29.245,36.61,359.55499999999995,-116.445,1.4805920000000001,-0.31890799999999997,-3.043412,4
2024-06-14 11:16:29.250,33.32,361.515,-122.22,1.692872,-0.42334,-2.985096,4
2024-06-14 11:16:29.255,30.205,363.79,-124.95,1.9249159999999998,-0.538508,-2.880908,4
2024-06-14 11:16:29.260,26.88,365.26,-124.07499999999999,2.1525679999999996,-0.6536759999999999,-2.746708,4
2024-06-14 11:16:29.265,24.115000000000002,364.35,-119.38499999999999,2.382416,-0.760304,-2.587376,4
2024-06-14 11:16:29.270,23.065,359.94,-110.88,2.607872,-0.842532,-2.420724,4
2024-06-14 11:16:29.274,24.535,350.805,-99.26,2.829424,-0.891088,-2.248704,4
2024-06-14 11:16:29.279,29.155,336.56,-85.225,3.04878,-0.9003599999999999,-2.066924,4
2024-06-14 11:16:29.284,35.42,317.73,-69.545,3.3122999999999996,-0.90402,-1.87514,4
2024-06-14 11:16:29.289,44.275,295.33000000000004,-52.605,3.620228,-0.875472,-1.692384,4
2024-06-14 11:16:29.294,56.63,269.885,-35.665,3.9908639999999997,-0.802272,-1.5386639999999998,4
2024-06-14 11:16:29.298,73.04499999999999,241.07999999999998,-20.055,4.3919999999999995,-0.676612,-1.430816,4
2024-06-14 11:16:29.303,89.66999999999999,207.58499999999998,-6.895,4.762148,-0.5355800000000001,-1.326872,4
2024-06-14 11:16:29.308,99.015,166.845,3.43,5.000536,-0.38381200000000004,-1.256112,4
2024-06-14 11:16:29.313,95.935,118.3,11.515,5.029083999999999,-0.23912,-1.2126800000000002,4
2024-06-14 11:16:29.318,78.785,63.665000000000006,17.744999999999997,4.832419999999999,-0.11638799999999999,-1.162172,4
2024-06-14 11:16:29.322,50.400000000000006,7.98,22.82,4.483744,-0.045628,-1.102392,4
2024-06-14 11:16:29.327,-3.535,-24.955000000000002,22.33,4.955152,0.33964799999999995,-1.5950280000000001,4
