time,gyroscope_x,gyroscope_y,gyroscope_z,accelerometer_x,accelerometer_y,accelerometer_z,phase
2024-06-14 10:05:13.306,92.68,-70.45500000000001,50.26,0.5831599999999999,2.028372,-2.3214159999999993,1
2024-06-14 10:05:13.311,32.13,-317.87,35.595,-1.253428,-0.841556,-0.075152,1
2024-06-14 10:05:13.316,-81.865,-286.615,40.215,-0.7276079999999999,-0.40625999999999995,-1.505236,1
2024-06-14 10:05:13.320,-162.47000000000003,-333.13,41.650000000000006,-0.96014,-0.149572,-1.3012519999999999,1
2024-06-14 10:05:13.325,-172.165,-360.745,34.16,-0.181536,-0.41724,-1.753628,1
2024-06-14 10:05:13.330,-159.60000000000002,-373.65999999999997,14.735,0.213012,-0.46847999999999995,-1.9093,1
2024-06-14 10:05:13.335,-138.81,-361.725,-13.405000000000001,0.398208,-0.5499759999999999,-1.956148,1
2024-06-14 10:05:13.340,-90.825,-335.02,-43.925,0.36575599999999997,-0.400648,-1.9537079999999998,1
2024-06-14 10:05:13.345,-43.015,-294.0,-69.685,0.246196,-0.243512,-2.14354,1
2024-06-14 10:05:13.350,-6.3,-252.0,-85.29499999999999,0.214476,0.046604,-2.1752599999999997,1
2024-06-14 10:05:13.354,9.765,-221.025,-84.42,0.25424800000000003,0.445056,-2.154764,1
2024-06-14 10:05:13.359,12.67,-205.66,-64.61,0.14932800000000002,0.749568,-2.08986,2
2024-06-14 10:05:13.364,5.18,-191.66,-37.1,0.08979200000000001,0.7388319999999999,-1.9703000000000002,2
2024-06-14 10:05:13.369,1.9949999999999999,-176.295,-9.065000000000001,0.07588400000000001,0.61,-1.87758,2
2024-06-14 10:05:13.374,5.705,-151.935,9.73,0.148108,0.36722,-1.817068,2
2024-06-14 10:05:13.379,13.16,-128.87,14.42,0.132492,0.009028000000000001,-1.5737999999999999,2
2024-06-14 10:05:13.384,20.545,-108.00999999999999,7.28,0.062952,-0.194712,-1.4759559999999998,2
2024-06-14 10:05:13.388,27.369999999999997,-91.56,-5.67,0.009760000000000001,-0.243756,-1.362252,2
2024-06-14 10:05:13.393,30.765,-82.18,-18.235,-0.054168,-0.174948,-1.2258559999999998,2
2024-06-14 10:05:13.398,33.46,-76.37,-24.5,-0.029523999999999998,-0.0034160000000000024,-1.182912,2
2024-06-14 10:05:13.403,35.735,-71.33000000000001,-22.05,-0.000732,0.11516799999999999,-1.1321599999999998,2
2024-06-14 10:05:13.408,19.005,-47.355,-12.705,0.26352,0.10345599999999999,-1.562088,2
2024-06-14 10:05:13.413,12.215,-28.42,-11.165,0.06466,-0.14517999999999998,-1.209508,2
2024-06-14 10:05:13.418,6.44,-19.95,-9.1,0.204716,-0.059292,-1.378356,2
2024-06-14 10:05:13.422,8.26,-17.115000000000002,-9.765,0.022935999999999998,-0.005368,-1.201456,2
2024-06-14 10:05:13.427,9.555,-17.71,-9.344999999999999,-0.10126,0.038796,-1.05164,2
2024-06-14 10:05:13.432,9.205,-16.625,-6.195,-0.037576,0.031964,-1.047492,2
2024-06-14 10:05:13.437,11.655000000000001,-15.469999999999999,-4.48,0.008296,0.020496,-1.0811639999999998,2
2024-06-14 10:05:13.442,15.715,-15.82,-4.095000000000001,-0.005123999999999999,-0.008052000000000002,-1.075308,2
2024-06-14 10:05:13.447,17.43,-16.38,-3.6399999999999997,-0.03294,-0.019032,-1.065792,2
2024-06-14 10:05:13.452,18.375,-18.165,-2.625,-0.049044000000000004,-0.005856,-1.057252,2
2024-06-14 10:05:13.456,19.46,-19.285,-1.435,-0.047092,-0.0053679999999999995,-1.057984,2
2024-06-14 10:05:13.461,20.405,-20.16,-0.525,-0.035868,-0.008784,-1.0675,2
2024-06-14 10:05:13.466,20.72,-20.825,-0.245,-0.032695999999999996,-0.022936,-1.06506,2
2024-06-14 10:05:13.471,21.56,-22.61,-0.14,-0.034159999999999996,-0.00976,-1.070916,2
2024-06-14 10:05:13.476,22.68,-24.009999999999998,0.14,-0.038308,-0.012688000000000001,-1.069452,2
2024-06-14 10:05:13.481,23.869999999999997,-25.13,0.525,-0.04392,-0.018788,-1.078968,2
2024-06-14 10:05:13.486,24.325,-27.685000000000002,0.63,-0.035623999999999996,-0.022935999999999998,-1.086776,2
2024-06-14 10:05:13.490,24.71,-29.015,0.77,-0.030987999999999995,-0.029768000000000003,-1.0894599999999999,2
2024-06-14 10:05:13.495,24.185000000000002,-31.009999999999998,0.9450000000000001,-0.030988,-0.038307999999999995,-1.085312,2
2024-06-14 10:05:13.500,23.87,-32.129999999999995,1.225,-0.02196,-0.039772,-1.069452,2
2024-06-14 10:05:13.505,22.785,-33.144999999999996,1.225,-0.030012,-0.040748000000000006,-1.067744,2
2024-06-14 10:05:13.510,22.47,-33.705,1.33,-0.01952,-0.040748,-1.06994,2
2024-06-14 10:05:13.515,22.015,-34.79,1.47,-0.016836,-0.032940000000000004,-1.071892,2
2024-06-14 10:05:13.520,21.805,-34.825,1.435,-0.010004,-0.044896000000000005,-1.0667679999999997,2
2024-06-14 10:05:13.524,21.175,-35.525,1.26,-0.012931999999999999,-0.04026,-1.074332,2
2024-06-14 10:05:13.529,20.439999999999998,-36.224999999999994,1.19,-0.009516,-0.04636,-1.0614,2
2024-06-14 10:05:13.534,19.53,-36.855000000000004,0.98,-0.0060999999999999995,-0.055632,-1.065792,2
2024-06-14 10:05:13.539,17.92,-35.875,0.875,-0.008539999999999999,-0.06880799999999998,-1.066768,2
2024-06-14 10:05:13.544,15.645,-36.085,0.8049999999999999,-0.005855999999999999,-0.07198,-1.077504,2
2024-06-14 10:05:13.549,12.845,-33.53,0.77,-0.0039039999999999995,-0.071248,-1.063108,2
2024-06-14 10:05:13.553,10.745000000000001,-33.739999999999995,0.595,0.0017079999999999999,-0.065636,-1.054812,2
2024-06-14 10:05:13.558,7.595,-31.99,0.21,0.006588,-0.072468,-1.0462719999999999,2
2024-06-14 10:05:13.563,1.75,-31.43,0.13999999999999999,0.01464,-0.060756000000000004,-1.0553,2
2024-06-14 10:05:13.568,6.055,-39.34,-0.63,0.013908,-0.06953999999999999,-1.0492,2
2024-06-14 10:05:13.573,3.325,-39.795,-0.7,0.013663999999999999,-0.066856,-1.04432,2
2024-06-14 10:05:13.578,4.655,-40.775,-0.84,0.019275999999999998,-0.068076,-1.048712,2
2024-06-14 10:05:13.583,6.79,-40.565,-0.31499999999999995,0.016347999999999998,-0.06832,-1.053836,2
2024-06-14 10:05:13.587,1.6449999999999998,-42.21,0.03499999999999992,0.018056,-0.077348,-1.04798,2
2024-06-14 10:05:13.592,2.8,-42.910000000000004,-0.28,0.024399999999999998,-0.081008,-1.053836,2
2024-06-14 10:05:13.597,0.98,-41.300000000000004,-0.77,0.027327999999999998,-0.077104,-1.0653039999999998,2
2024-06-14 10:05:13.602,-1.6099999999999999,-38.36,-0.665,0.028304000000000003,-0.069296,-1.05896,2
2024-06-14 10:05:13.607,-0.14000000000000007,-36.4,-0.385,0.0366,-0.069784,-1.048712,2
2024-06-14 10:05:13.612,-2.1,-33.775,-0.07,0.032208,-0.07320000000000002,-1.0482239999999998,2
2024-06-14 10:05:13.617,-2.7649999999999997,-32.62,-0.17500000000000004,0.037087999999999996,-0.0793,-1.034316,2
2024-06-14 10:05:13.621,-3.64,-30.765,-0.525,0.039284,-0.083936,-1.02602,2
2024-06-14 10:05:13.626,-5.145,-30.835,-0.315,0.044896000000000005,-0.07442,-1.036024,2
2024-06-14 10:05:13.631,-5.075,-29.715000000000003,0.7,0.046604,-0.08125199999999999,-1.038708,2
2024-06-14 10:05:13.636,-6.055,-28.385,1.435,0.052704,-0.06880800000000001,-1.0431,2
2024-06-14 10:05:13.641,-6.475,-28.875,1.435,0.054655999999999996,-0.055875999999999995,-1.053348,2
2024-06-14 10:05:13.646,-5.6,-29.4,1.295,0.056852,-0.045628,-1.0543239999999998,2
2024-06-14 10:05:13.651,-4.41,-27.965,1.085,0.063928,-0.041968000000000005,-1.0499319999999999,2
2024-06-14 10:05:13.655,-2.765,-26.705,0.945,0.069784,-0.039528,-1.053104,2
2024-06-14 10:05:13.660,-0.9450000000000001,-25.41,0.945,0.072468,-0.04026,-1.0543239999999998,2
2024-06-14 10:05:13.665,0.875,-25.865000000000002,0.875,0.072468,-0.035624,-1.058472,2
2024-06-14 10:05:13.670,2.9050000000000002,-24.43,0.7350000000000001,0.073932,-0.038307999999999995,-1.06262,2
2024-06-14 10:05:13.675,4.6899999999999995,-23.59,0.63,0.06978399999999998,-0.03782,-1.070916,2
2024-06-14 10:05:13.680,6.79,-23.205,0.525,0.07466400000000001,-0.04148,-1.0738439999999998,2
2024-06-14 10:05:13.685,8.434999999999999,-23.17,0.42000000000000004,0.073688,-0.046604,-1.0716480000000002,2
2024-06-14 10:05:13.689,10.045,-22.61,0.595,0.07564000000000001,-0.045871999999999996,-1.0735999999999999,2
2024-06-14 10:05:13.694,11.024999999999999,-23.17,0.595,0.077348,-0.054655999999999996,-1.064572,2
2024-06-14 10:05:13.699,11.2,-23.310000000000002,0.35,0.073932,-0.057095999999999994,-1.073356,2
2024-06-14 10:05:13.704,11.06,-22.47,0.35,0.074908,-0.06368399999999999,-1.088972,2
2024-06-14 10:05:13.709,10.01,-22.54,0.42,0.06905199999999999,-0.066612,-1.090192,2
2024-06-14 10:05:13.714,8.33,-22.575,0.56,0.073932,-0.081496,-1.0728680000000002,2
2024-06-14 10:05:13.719,4.654999999999999,-22.75,0.56,0.08052,-0.080276,-1.075308,2
2024-06-14 10:05:13.723,2.8,-22.295,1.05,0.08125199999999999,-0.08296,-1.074088,2
2024-06-14 10:05:13.728,1.6800000000000002,-21.91,1.47,0.087108,-0.08588799999999999,-1.06872,2
2024-06-14 10:05:13.733,0.77,-20.58,1.855,0.088572,-0.081008,-1.06384,2
2024-06-14 10:05:13.738,-0.034999999999999976,-18.515,2.59,0.082472,-0.08662,-1.049444,2
2024-06-14 10:05:13.743,0.24500000000000002,-17.15,3.885,0.08979200000000001,-0.099796,-1.067988,2
2024-06-14 10:05:13.748,4.6899999999999995,-16.8,6.6850000000000005,0.07808,-0.162992,-1.0413919999999999,2
2024-06-14 10:05:13.753,8.715,-19.39,15.47,0.0183,0.03172,-1.051152,2
2024-06-14 10:05:13.757,9.205,-24.115000000000002,34.09,0.41236,-0.8837679999999999,-1.13582,2
2024-06-14 10:05:13.762,4.62,-21.665,12.425,0.097112,-0.156892,-1.082872,2
2024-06-14 10:05:13.767,6.23,-22.435000000000002,12.705,0.090036,-0.09028,-1.090924,2
2024-06-14 10:05:13.772,6.09,-22.189999999999998,12.81,0.094428,-0.066368,-1.0796999999999999,2
2024-06-14 10:05:13.777,5.95,-24.955,12.88,0.095404,-0.074908,-1.095072,2
2024-06-14 10:05:13.782,7.91,-25.41,13.475,0.09345200000000001,-0.063196,-1.109468,2
2024-06-14 10:05:13.787,9.415,-28.384999999999998,13.3,0.094428,-0.043188000000000004,-1.138504,2
2024-06-14 10:05:13.791,9.66,-31.36,12.6,0.10028399999999998,-0.043188,-1.16144,2
2024-06-14 10:05:13.796,0.20999999999999996,-36.47,10.15,0.08954799999999999,0.042944,-1.2822200000000001,2
2024-06-14 10:05:13.801,-8.295,-43.925,6.6850000000000005,0.081252,-0.09052400000000001,-1.2502559999999998,2
2024-06-14 10:05:13.806,-5.775,-47.215,8.295,0.076128,-0.126636,-1.26026,2
2024-06-14 10:05:13.811,-7.84,-53.69,8.925,0.08247199999999999,-0.11955999999999999,-1.277828,2
2024-06-14 10:05:13.816,-7.175000000000001,-59.85,10.254999999999999,0.081984,-0.155184,-1.29686,2
2024-06-14 10:05:13.824,-5.74,-65.52,11.9,0.093696,-0.1464,-1.300764,3
2024-06-14 10:05:13.828,-3.8499999999999996,-70.945,13.23,0.10589599999999999,-0.152744,-1.326384,3
2024-06-14 10:05:13.833,0.06999999999999995,-74.83,15.26,0.107604,-0.15494,-1.336388,3
2024-06-14 10:05:13.838,4.48,-78.995,17.15,0.10589599999999999,-0.107116,-1.336144,3
2024-06-14 10:05:13.843,6.37,-82.39,17.465,0.101016,-0.055144,-1.323944,3
2024-06-14 10:05:13.848,9.344999999999999,-85.4,17.22,0.12077999999999998,-0.013908,-1.311988,3
2024-06-14 10:05:13.852,10.184999999999999,-89.495,15.365,0.13102799999999998,0.043676,-1.331508,3
2024-06-14 10:05:13.857,12.775,-93.52000000000001,12.95,0.121756,0.080764,-1.354932,3
2024-06-14 10:05:13.862,14.07,-98.66499999999999,9.975,0.133956,0.090524,-1.347124,3
2024-06-14 10:05:13.867,15.295,-104.055,7.245,0.125172,0.070516,-1.3620079999999999,3
2024-06-14 10:05:13.872,17.115000000000002,-111.37,5.109999999999999,0.125172,0.03294,-1.39446,3
2024-06-14 10:05:13.877,18.97,-117.53,3.64,0.113216,0.02074,-1.3969,3
2024-06-14 10:05:13.881,17.744999999999997,-126.455,1.54,0.11443599999999998,0.026352,-1.4152,3
2024-06-14 10:05:13.886,18.305,-136.71,0.455,0.115412,-0.07539599999999999,-1.436184,3
2024-06-14 10:05:13.891,23.869999999999997,-147.525,1.6099999999999999,0.11541199999999999,-0.104432,-1.5154839999999998,3
2024-06-14 10:05:13.896,30.1,-158.79500000000002,2.4850000000000003,0.105408,-0.057095999999999994,-1.596736,3
2024-06-14 10:05:13.901,35.0,-169.54,2.59,0.093208,-0.051728,-1.666032,3
2024-06-14 10:05:13.906,41.615,-180.45999999999998,2.9050000000000002,0.087352,-0.066612,-1.7167839999999999,3
2024-06-14 10:05:13.910,41.335,-194.04,3.675,0.088328,-0.135908,-1.710684,3
2024-06-14 10:05:13.915,41.3,-211.435,5.425,0.085644,-0.139812,-1.801696,3
2024-06-14 10:05:13.920,44.275000000000006,-228.13,7.3149999999999995,0.097844,-0.15372,-1.7794919999999999,3
2024-06-14 10:05:13.925,47.985,-248.465,10.15,0.08784,-0.221308,-1.8561079999999999,3
2024-06-14 10:05:13.930,52.85,-268.38,13.3,0.08052,-0.211548,-1.92394,3
2024-06-14 10:05:13.935,54.04,-286.15999999999997,15.645,0.027572,-0.195444,-2.020076,3
2024-06-14 10:05:13.939,54.075,-305.20000000000005,17.5,-0.006588,-0.205936,-2.047892,3
2024-06-14 10:05:13.944,54.879999999999995,-323.155,19.424999999999997,-0.020495999999999997,-0.203252,-2.202588,3
2024-06-14 10:05:13.949,56.21,-347.06,20.825,-0.029524,-0.101992,-2.169892,3
2024-06-14 10:05:13.954,52.64,-384.54499999999996,19.215,0.027815999999999997,-0.0009759999999999999,-2.4663519999999997,3
2024-06-14 10:05:13.959,51.03,-390.21500000000003,16.939999999999998,0.06124399999999999,0.06222,-2.540772,3
2024-06-14 10:05:13.964,41.965,-404.355,13.825,0.1647,0.22692,-2.820152,3
2024-06-14 10:05:13.968,28.595,-417.69,5.6,0.226676,0.346724,-2.906772,3
2024-06-14 10:05:13.973,20.93,-428.08500000000004,-2.065,0.16958,0.204472,-2.976556,3
2024-06-14 10:05:13.978,23.134999999999998,-434.875,-6.965,0.16909200000000002,0.047824,-3.080256,3
2024-06-14 10:05:13.983,21.21,-440.51,-7.805,0.264984,0.10638399999999999,-3.1634599999999997,3
2024-06-14 10:05:13.988,8.995,-446.11,-13.65,0.040504000000000005,0.12688,-3.085136,3
2024-06-14 10:05:13.992,3.29,-445.62,-16.345,-0.177876,-0.028547999999999997,-3.215676,3
2024-06-14 10:05:13.997,-17.814999999999998,-444.43,-20.545,-0.24424400000000002,0.079056,-3.25374,3
2024-06-14 10:05:14.002,-31.43,-453.355,-26.67,-0.531188,-0.066612,-2.981436,3
2024-06-14 10:05:14.007,-34.825,-457.485,-26.810000000000002,-0.770796,-0.236192,-3.129544,3
2024-06-14 10:05:14.012,-31.955,-455.105,-25.515,-0.9335439999999999,-0.27303599999999995,-3.2390999999999996,3
2024-06-14 10:05:14.017,-33.040000000000006,-456.575,-26.39,-1.1494839999999997,-0.328424,-3.050732,3
2024-06-14 10:05:14.021,-35.735,-451.99,-24.009999999999998,-1.4984039999999998,-0.383568,-2.602748,3
2024-06-14 10:05:14.026,-38.78,-421.05,-21.07,-1.814628,-0.436516,-2.033496,3
2024-06-14 10:05:14.031,-52.325,-377.86,-15.540000000000001,-2.1157239999999997,-0.396256,-1.116544,4
2024-06-14 10:05:14.036,-64.925,-352.41499999999996,2.4499999999999997,-1.4752239999999999,-0.344528,-0.564616,4
2024-06-14 10:05:14.041,-82.6,-362.355,1.9249999999999998,-1.136308,-0.425292,-0.118584,4
2024-06-14 10:05:14.046,-88.655,-268.555,3.22,-1.7199559999999998,-0.238144,-4.12238,4
2024-06-14 10:05:14.050,-115.745,-176.22500000000002,-3.1149999999999998,-1.70068,0.162992,-1.343952,4
2024-06-14 10:05:14.055,-115.71000000000001,-83.92999999999999,14.21,-1.780468,-0.216916,-1.9073479999999998,4
2024-06-14 10:05:14.060,-112.17500000000001,-40.53,20.79,-1.7502119999999999,-0.232044,-1.0482239999999998,4
2024-06-14 10:05:14.065,-108.85,16.310000000000002,34.825,-1.590636,-0.282308,-1.92394,4
2024-06-14 10:05:14.070,-92.435,55.44,49.805,-1.3656679999999999,-0.39381599999999994,-1.170468,4
2024-06-14 10:05:14.075,-73.60499999999999,84.84,62.09,-1.229272,-0.378444,-1.386652,4
2024-06-14 10:05:14.079,-59.01,101.535,72.905,-1.1141040000000002,-0.284748,-0.8940159999999999,4
2024-06-14 10:05:14.084,-47.599999999999994,111.475,82.67,-1.004792,-0.192272,-1.027972,4
2024-06-14 10:05:14.089,-43.33,121.31,89.18,-0.8988959999999999,-0.104432,-0.780312,4
2024-06-14 10:05:14.094,-46.30500000000001,124.18,92.365,-0.832284,-0.031232,-0.7937319999999999,4
2024-06-14 10:05:14.099,-54.67,129.255,92.785,-0.7844599999999999,0.016592,-0.666364,4
2024-06-14 10:05:14.104,-65.24,131.32,90.965,-0.7420040000000001,0.05245999999999999,-0.646112,4
2024-06-14 10:05:14.108,-76.22999999999999,135.765,87.39500000000001,-0.701012,0.06758800000000001,-0.614392,4
2024-06-14 10:05:14.113,-86.17,141.08499999999998,82.42500000000001,-0.671244,0.06344,-0.605608,4
2024-06-14 10:05:14.118,-94.675,146.86,76.50999999999999,-0.656604,0.046848,-0.594872,4
2024-06-14 10:05:14.123,-99.85499999999999,155.575,70.245,-0.641964,0.016104,-0.593164,4
2024-06-14 10:05:14.128,-102.47999999999999,165.06,63.665000000000006,-0.637572,-0.025132,-0.6082919999999999,4
2024-06-14 10:05:14.133,-102.62,177.10000000000002,57.26,-0.6307400000000001,-0.060511999999999996,-0.6243960000000001,4
2024-06-14 10:05:14.137,-100.80000000000001,189.665,50.785,-0.6329359999999999,-0.08906,-0.635864,4
2024-06-14 10:05:14.142,-98.035,202.965,44.135000000000005,-0.630008,-0.113948,-0.652456,4
2024-06-14 10:05:14.147,-94.32499999999999,216.965,37.695,-0.62098,-0.141764,-0.675148,4
2024-06-14 10:05:14.152,-89.775,230.57999999999998,31.5,-0.599752,-0.166408,-0.706624,4
2024-06-14 10:05:14.157,-84.66499999999999,242.865,25.585,-0.5746199999999999,-0.19202799999999998,-0.73932,4
2024-06-14 10:05:14.161,-79.065,254.065,19.810000000000002,-0.5382640000000001,-0.20984,-0.7686,4
2024-06-14 10:05:14.166,-73.36,264.775,14.105,-0.49898,-0.220576,-0.7990999999999999,4
2024-06-14 10:05:14.171,-68.005,274.08500000000004,8.715,-0.46067199999999997,-0.22447999999999999,-0.8320399999999999,4
2024-06-14 10:05:14.176,-63.595,281.47,3.1149999999999998,-0.417484,-0.227652,-0.857416,4
2024-06-14 10:05:14.181,-59.989999999999995,287.98,-2.275,-0.38405599999999995,-0.227408,-0.8857200000000001,4
2024-06-14 10:05:14.186,-56.385,293.405,-7.49,-0.357948,-0.23204399999999997,-0.9189039999999999,4
2024-06-14 10:05:14.190,-52.64,298.795,-12.25,-0.34038,-0.23546,-0.953552,4
2024-06-14 10:05:14.195,-48.405,304.92,-16.38,-0.32744799999999996,-0.24058400000000002,-0.997716,4
2024-06-14 10:05:14.200,-44.065,311.605,-19.95,-0.331596,-0.246196,-1.0396839999999998,4
2024-06-14 10:05:14.205,-39.865,320.39,-22.89,-0.34208799999999995,-0.241072,-1.0918999999999999,4
2024-06-14 10:05:14.210,-35.84,330.26,-25.235,-0.34282,-0.24034,-1.140944,4
2024-06-14 10:05:14.215,-32.515,341.53,-27.09,-0.35136,-0.244,-1.2016999999999998,4
2024-06-14 10:05:14.219,-29.89,352.16999999999996,-28.175,-0.34306400000000004,-0.24766,-1.27246,4
2024-06-14 10:05:14.224,-27.685000000000002,362.985,-28.63,-0.33354799999999996,-0.252784,-1.34566,4
2024-06-14 10:05:14.229,-25.445,372.75,-28.63,-0.325496,-0.264252,-1.408368,4
2024-06-14 10:05:14.234,-22.645,382.095,-27.755000000000003,-0.303292,-0.280356,-1.4666839999999999,4
2024-06-14 10:05:14.239,-19.810000000000002,389.375,-26.46,-0.27425599999999994,-0.288652,-1.531588,4
2024-06-14 10:05:14.244,-17.15,395.815,-24.674999999999997,-0.249124,-0.294508,-1.5994199999999998,4
2024-06-14 10:05:14.248,-14.385,398.51,-22.785,-0.2135,-0.30256000000000005,-1.6557840000000001,4
2024-06-14 10:05:14.253,-11.445,400.505,-20.509999999999998,-0.177632,-0.316956,-1.718004,4
2024-06-14 10:05:14.258,-7.455,400.155,-17.675,-0.139324,-0.33672,-1.79218,4
2024-06-14 10:05:14.263,-1.75,398.58000000000004,-14.21,-0.10150400000000001,-0.362828,-1.858304,4
2024-06-14 10:05:14.268,6.16,396.27,-9.73,-0.056608,-0.395524,-1.924184,4
2024-06-14 10:05:14.273,16.66,392.80499999999995,-4.13,0.0039039999999999995,-0.44042000000000003,-1.989576,4
2024-06-14 10:05:14.277,30.939999999999998,387.38,3.08,0.073932,-0.509228,-2.079612,4
2024-06-14 10:05:14.282,48.58,379.78499999999997,11.27,0.14932800000000002,-0.558028,-2.195512,4
2024-06-14 10:05:14.287,68.18,370.545,19.845,0.23570399999999997,-0.5795,-2.32898,4
2024-06-14 10:05:14.292,87.28999999999999,361.305,27.825,0.329644,-0.5699839999999999,-2.457324,4
2024-06-14 10:05:14.297,101.745,350.28,34.09,0.40992,-0.49995599999999996,-2.575908,4
2024-06-14 10:05:14.301,109.095,341.07500000000005,38.045,0.48068,-0.407236,-2.6647239999999996,4
2024-06-14 10:05:14.306,110.63499999999999,332.395,39.795,0.563396,-0.306708,-2.6449599999999998,4
2024-06-14 10:05:14.311,110.18,325.71,40.705,0.6329359999999999,-0.2715719999999999,-2.729628,4
2024-06-14 10:05:14.316,113.225,322.175,43.61,0.732244,-0.27937999999999996,-2.9602079999999997,4
2024-06-14 10:05:14.321,115.465,321.195,48.65,0.869616,-0.23912,-3.0617119999999995,4
2024-06-14 10:05:14.326,115.745,323.96000000000004,54.53,0.965996,-0.19397999999999999,-3.072204,4
2024-06-14 10:05:14.330,113.505,329.84,60.445,1.092632,-0.1464,-3.0700079999999996,4
2024-06-14 10:05:14.335,108.255,337.225,65.275,1.2402520000000001,-0.08296,-3.078548,4
2024-06-14 10:05:14.340,99.75,342.58000000000004,68.145,1.397876,-0.00366,-3.06952,4
2024-06-14 10:05:14.345,87.64,346.5,69.16,1.547448,0.07686,-3.003884,4
2024-06-14 10:05:14.350,72.275,346.99,67.47999999999999,1.686772,0.151768,-2.899452,4
2024-06-14 10:05:14.355,55.230000000000004,344.89,63.28,1.821948,0.189344,-2.7703759999999997,4
2024-06-14 10:05:14.359,39.724999999999994,340.27,57.54,1.95688,0.195932,-2.649596,4
2024-06-14 10:05:14.364,28.875,331.45000000000005,51.03,2.101328,0.160796,-2.5376000000000003,4
2024-06-14 10:05:14.369,24.744999999999997,320.95,44.730000000000004,2.2396760000000002,0.13883600000000001,-2.415112,4
2024-06-14 10:05:14.374,26.075,307.3,38.5,2.36802,0.126392,-2.298968,4
2024-06-14 10:05:14.379,28.875,291.095,31.815,2.477332,0.14713199999999999,-2.1789199999999997,4
2024-06-14 10:05:14.384,28.42,273.66499999999996,24.675,2.5854239999999997,0.187636,-2.075952,4
2024-06-14 10:05:14.388,24.22,254.695,17.395,2.70352,0.210816,-2.002752,4
2024-06-14 10:05:14.393,19.880000000000003,235.13,11.165,2.869684,0.19763999999999998,-1.951756,4
2024-06-14 10:05:14.398,20.195,216.33499999999998,7.875,3.080744,0.172752,-1.893684,4
2024-06-14 10:05:14.403,24.009999999999998,198.87,7.595,3.334748,0.15128000000000003,-1.77998,4
2024-06-14 10:05:14.408,28.035,179.33999999999997,9.975000000000001,3.60998,0.16104,-1.6509040000000001,4
2024-06-14 10:05:14.413,30.415,157.36,14.105,3.875452,0.196908,-1.5269519999999999,4
2024-06-14 10:05:14.417,31.36,130.06,19.494999999999997,4.0899280000000005,0.25376,-1.405196,4
2024-06-14 10:05:14.422,30.765,98.035,25.025,4.22486,0.362096,-1.3100359999999998,4
2024-06-14 10:05:14.427,26.95,61.95,28.77,4.242915999999999,0.5270400000000001,-1.2380559999999998,4
2024-06-14 10:05:14.432,18.34,22.785,28.490000000000002,4.1204279999999995,0.6739280000000001,-1.2392759999999998,4
2024-06-14 10:05:14.437,4.2700000000000005,-14.979999999999999,23.939999999999998,3.88326,0.7546919999999999,-1.2319559999999998,4
2024-06-14 10:05:14.442,-13.685,-48.405,16.310000000000002,3.5760639999999997,0.778116,-1.259528,4
2024-06-14 10:05:14.446,-33.6,-73.955,6.335000000000001,3.237392,0.703452,-1.281488,4
2024-06-14 10:05:14.451,-53.375,-91.595,-4.095,2.9253159999999996,0.5929199999999999,-1.3283359999999997,4
2024-06-14 10:05:14.456,-70.98,-104.055,-13.79,2.6456919999999995,0.44212799999999997,-1.366888,4
2024-06-14 10:05:14.461,-82.35499999999999,-110.775,-20.090000000000003,2.010072,-0.23228799999999997,-1.7480159999999998,4
2024-06-14 10:05:14.466,33.285,-225.435,12.635,1.1807159999999999,0.15689200000000014,-7.15042,0
