time,gyroscope_x,gyroscope_y,gyroscope_z,accelerometer_x,accelerometer_y,accelerometer_z,phase
2024-06-14 08:33:22.864,170.135,-162.155,37.94,3.9781760000000004,-1.1411879999999999,-3.1158799999999998,1
2024-06-14 08:33:22.869,194.495,-166.35500000000002,31.22,2.88164,-0.6922280000000001,-0.673684,1
2024-06-14 08:33:22.873,248.885,-229.04,19.075,2.298724,0.512644,0.06831999999999999,1
2024-06-14 08:33:22.878,271.88,-259.42,4.234999999999999,1.338096,-0.265228,-1.887584,1
2024-06-14 08:33:22.883,252.35000000000002,-232.04999999999998,11.83,-0.08296,-0.017324,-1.4644880000000002,1
2024-06-14 08:33:22.888,195.615,-219.73000000000002,23.765,-0.820816,-0.22399200000000002,-1.242204,1
2024-06-14 08:33:22.893,128.485,-213.92000000000002,37.555,-0.9708760000000001,0.11736400000000001,-1.607716,1
2024-06-14 08:33:22.897,87.57,-204.78500000000003,47.775,-0.622688,-0.049288,-1.6921399999999998,1
2024-06-14 08:33:22.902,84.38499999999999,-222.635,53.620000000000005,-0.22423600000000002,-0.14274,-1.791448,1
2024-06-14 08:33:22.907,66.92,-234.60500000000002,54.565,0.12688,-0.313296,-1.8800199999999998,1
2024-06-14 08:33:22.912,37.275,-236.14499999999998,54.915000000000006,0.151036,-0.48653599999999997,-1.826828,1
2024-06-14 08:33:22.917,8.995000000000001,-229.215,51.519999999999996,0.03904,-0.654164,-1.9524879999999998,1
2024-06-14 08:33:22.922,0.3500000000000001,-206.78,38.64,0.026840000000000003,-0.647332,-2.05326,1
2024-06-14 08:33:22.926,6.93,-170.94,13.790000000000001,0.06734399999999999,-0.655628,-2.119384,1
2024-06-14 08:33:22.931,3.92,-135.555,-11.62,0.036844,-0.389912,-1.9949439999999998,1
2024-06-14 08:33:22.936,0.56,-105.56,-23.695,0.015372,-0.22448,-1.73118,1
2024-06-14 08:33:22.941,-7.49,-97.58,-22.085,-0.010735999999999999,-0.027328,-1.64578,1
2024-06-14 08:33:22.946,-10.64,-86.1,-12.005,0.029768,0.138592,-1.508652,1
2024-06-14 08:33:22.950,-15.365000000000002,-73.78,-2.5549999999999997,0.018788,0.144448,-1.546228,1
2024-06-14 08:33:22.955,-10.850000000000001,-51.17,2.5549999999999997,0.005856,0.159088,-1.348344,2
2024-06-14 08:33:22.960,-4.550000000000001,-46.795,6.16,-0.018788,0.17055599999999999,-1.21512,2
2024-06-14 08:33:22.965,1.96,-39.025,5.18,0.016104,0.036844,-1.1819359999999999,2
2024-06-14 08:33:22.970,6.055,-33.985,3.815,-0.011224,0.033184000000000005,-1.0762839999999998,2
2024-06-14 08:33:22.975,9.205,-29.365000000000002,3.2199999999999998,-0.046116000000000004,0.030255999999999998,-1.02236,2
2024-06-14 08:33:22.979,10.675,-20.37,3.325,-0.040992,0.031964,-1.037488,2
2024-06-14 08:33:22.984,13.02,-13.44,3.71,-0.022935999999999998,0.054168,-1.019432,2
2024-06-14 08:33:22.989,15.365000000000002,-7.875,3.465,-0.011467999999999999,0.028791999999999998,-1.0431,2
2024-06-14 08:33:22.994,19.215,-5.74,2.31,-0.042943999999999996,-0.0017079999999999994,-1.0553,2
2024-06-14 08:33:22.999,21.805,-3.3600000000000003,1.085,-0.045384,-0.016104,-1.06262,2
2024-06-14 08:33:23.003,21.560000000000002,-5.25,0.98,-0.069784,-0.027327999999999998,-1.0604239999999998,2
2024-06-14 08:33:23.008,20.020000000000003,-7.42,1.7850000000000001,-0.09394,-0.018788,-1.066036,2
2024-06-14 08:33:23.013,18.725,-9.239999999999998,2.0300000000000002,-0.104676,-0.015128,-1.068476,2
2024-06-14 08:33:23.018,17.85,-10.535,1.435,-0.106384,-0.025376000000000003,-1.0723799999999999,2
2024-06-14 08:33:23.023,16.59,-12.355,0.5599999999999999,-0.103212,-0.039040000000000005,-1.0726239999999998,2
2024-06-14 08:33:23.028,14.525,-13.895,-0.06999999999999999,-0.11175199999999999,-0.035868,-1.057252,2
2024-06-14 08:33:23.032,12.32,-16.66,-0.35,-0.11712,-0.028791999999999998,-1.047492,2
2024-06-14 08:33:23.037,10.325,-21.7,-0.665,-0.13200399999999998,-0.032208,-1.0433439999999998,2
2024-06-14 08:33:23.042,8.365,-25.83,-1.05,-0.142984,-0.030744,-1.0431,2
2024-06-14 08:33:23.047,6.859999999999999,-30.380000000000003,-1.68,-0.14273999999999998,-0.038796,-1.042124,2
2024-06-14 08:33:23.052,5.25,-33.215,-2.205,-0.12712400000000001,-0.042212,-1.042124,2
2024-06-14 08:33:23.056,3.325,-35.525,-2.3449999999999998,-0.111508,-0.054412,-1.046272,2
2024-06-14 08:33:23.061,0.98,-37.275,-2.205,-0.101016,-0.055875999999999995,-1.040172,2
2024-06-14 08:33:23.066,-1.33,-38.08,-1.8199999999999998,-0.101504,-0.05368,-1.037976,2
2024-06-14 08:33:23.071,-3.3949999999999996,-38.43,-1.855,-0.102236,-0.045383999999999994,-1.0323639999999998,2
2024-06-14 08:33:23.076,-5.075,-38.394999999999996,-1.9249999999999998,-0.10272400000000001,-0.03782,-1.0252879999999998,2
2024-06-14 08:33:23.081,-6.3,-38.36,-1.8900000000000001,-0.09394,-0.027084,-1.020652,2
2024-06-14 08:33:23.085,-7.07,-38.325,-1.7149999999999999,-0.08759600000000001,-0.030743999999999997,-1.0130879999999998,2
2024-06-14 08:33:23.090,-7.42,-37.94,-1.4,-0.077348,-0.035379999999999995,-1.00894,2
2024-06-14 08:33:23.095,-5.32,-34.754999999999995,-0.77,-0.078568,-0.026595999999999998,-1.0096720000000001,2
2024-06-14 08:33:23.100,-4.6899999999999995,-32.69,-0.455,-0.0793,-0.023424,-0.999668,2
2024-06-14 08:33:23.105,-4.795,-33.74,-0.315,-0.08247199999999999,-0.008052,-0.994056,2
2024-06-14 08:33:23.109,-4.27,-33.565,-0.21,-0.07905599999999999,-0.00122,-0.9952759999999999,2
2024-06-14 08:33:23.114,-3.045,-34.474999999999994,-0.07,-0.078812,0.0034159999999999998,-0.99918,2
2024-06-14 08:33:23.119,-1.645,-35.0,-0.21000000000000002,-0.07588400000000001,0.01098,-0.99796,2
2024-06-14 08:33:23.124,-0.10499999999999998,-35.14,-0.56,-0.076128,0.020984000000000003,-0.9950319999999999,2
2024-06-14 08:33:23.129,1.505,-35.489999999999995,-1.0150000000000001,-0.071248,0.025132,-0.992348,2
2024-06-14 08:33:23.134,3.465,-35.455,-1.505,-0.058804,0.030743999999999997,-0.9828319999999999,2
2024-06-14 08:33:23.138,5.46,-35.28,-2.135,-0.06661199999999999,0.029036,-0.9811239999999999,2
2024-06-14 08:33:23.143,6.93,-35.035,-2.66,-0.064416,0.025132,-0.976,2
2024-06-14 08:33:23.148,8.085,-34.3,-3.15,-0.060024,0.008784,-0.982344,2
2024-06-14 08:33:23.153,6.789999999999999,-32.34,-3.4299999999999997,-0.053436,-0.012444,-0.98332,2
2024-06-14 08:33:23.158,7.735,-33.32,-3.255,-0.041724,-0.029767999999999996,-0.9943,2
2024-06-14 08:33:23.163,6.195,-34.16,-3.01,-0.036599999999999994,-0.038552,-0.995276,3
2024-06-14 08:33:23.167,5.075,-34.474999999999994,-2.59,-0.033672,-0.041724,-1.0047920000000001,3
2024-06-14 08:33:23.172,3.465,-34.125,-2.0999999999999996,-0.03782,-0.039527999999999994,-1.0004,3
2024-06-14 08:33:23.177,2.835,-35.805,-1.82,-0.040260000000000004,-0.030499999999999996,-1.002596,3
2024-06-14 08:33:23.182,3.3949999999999996,-42.91,-1.435,-0.039284,-0.023424,-1.011624,3
2024-06-14 08:33:23.187,0.105,-34.614999999999995,-1.96,-0.034648,-0.0122,-1.003816,3
2024-06-14 08:33:23.191,-0.035,-34.86,-2.3099999999999996,-0.02684,-0.00048799999999999994,-1.006012,3
2024-06-14 08:33:23.196,1.47,-33.004999999999995,-2.87,-0.020983999999999996,0.011224,-1.0035720000000001,3
2024-06-14 08:33:23.201,1.75,-31.71,-3.325,-0.012444,0.01586,-0.9957639999999999,3
2024-06-14 08:33:23.206,3.185,-31.814999999999998,-3.745,-0.003904,0.021716,-0.992348,3
2024-06-14 08:33:23.211,4.34,-28.28,-4.165,0.000732,0.015615999999999998,-0.989908,3
2024-06-14 08:33:23.216,5.495,-26.845,-4.445,0.0014640000000000002,0.008052,-0.9794160000000001,3
2024-06-14 08:33:23.220,6.755000000000001,-26.18,-4.654999999999999,0.0,0.011956000000000001,-0.9830760000000001,3
2024-06-14 08:33:23.225,8.504999999999999,-25.97,-4.9350000000000005,-0.0024400000000000003,0.010003999999999999,-0.9860039999999999,3
2024-06-14 08:33:23.230,11.129999999999999,-26.39,-4.76,-0.005124,-0.00024400000000000008,-0.994788,3
2024-06-14 08:33:23.235,12.530000000000001,-26.46,-4.62,-0.0009760000000000001,-0.01098,-1.0004,3
2024-06-14 08:33:23.240,13.440000000000001,-26.18,-4.62,0.004392,-0.017324,-1.007476,3
2024-06-14 08:33:23.244,15.015,-19.88,-4.550000000000001,0.007319999999999999,-0.033672,-1.0108920000000001,3
2024-06-14 08:33:23.249,14.455,-28.28,-3.745,0.0075639999999999995,-0.035868,-1.012844,3
2024-06-14 08:33:23.254,14.280000000000001,-28.455,-3.4299999999999997,0.0046359999999999995,-0.037576,-1.015528,3
2024-06-14 08:33:23.259,13.79,-30.240000000000002,-3.01,0.004148,-0.038064,-1.02358,3
2024-06-14 08:33:23.264,13.405,-31.674999999999997,-2.835,0.004636,-0.036844,-1.030412,3
2024-06-14 08:33:23.269,12.915,-33.705,-2.555,0.007076,-0.033671999999999994,-1.03578,3
2024-06-14 08:33:23.273,11.27,-36.47,-2.45,0.009028,-0.022692,-1.046272,3
2024-06-14 08:33:23.278,11.899999999999999,-38.22,-2.415,0.011467999999999999,-0.020252,-1.0509079999999997,3
2024-06-14 08:33:23.283,12.355,-44.94,-2.2750000000000004,0.018056,-0.021228,-1.0460280000000002,3
2024-06-14 08:33:23.288,14.665,-42.35,-2.17,0.018543999999999998,-0.02196,-1.0445639999999998,3
2024-06-14 08:33:23.293,14.84,-45.29,-2.205,0.02196,-0.032452,-1.0457839999999998,3
2024-06-14 08:33:23.297,14.875,-46.83,-2.1,0.033671999999999994,-0.047336,-1.042856,3
2024-06-14 08:33:23.302,15.015,-49.28,-1.7850000000000001,0.03489199999999999,-0.052216,-1.051152,3
2024-06-14 08:33:23.307,15.33,-51.94,-0.98,0.042212,-0.061488,-1.0555439999999998,3
2024-06-14 08:33:23.310,14.91,-55.825,0.035,0.04196799999999999,-0.076128,-1.070672,3
2024-06-14 08:33:23.315,10.85,-58.275000000000006,0.91,0.043676000000000006,-0.060756,-1.1131280000000001,3
2024-06-14 08:33:23.320,4.55,-59.99,0.665,0.042212,-0.08295999999999999,-1.1080039999999998,3
2024-06-14 08:33:23.324,-0.84,-59.01,0.665,0.04026,-0.06709999999999999,-1.1065399999999999,3
2024-06-14 08:33:23.329,-3.325,-58.870000000000005,1.0150000000000001,0.039772,-0.081984,-1.124352,3
2024-06-14 08:33:23.334,-7.875,-62.685,1.05,0.0427,-0.067588,-1.121668,3
2024-06-14 08:33:23.339,-9.94,-66.5,0.98,0.041968000000000005,-0.074664,-1.1238640000000002,3
2024-06-14 08:33:23.344,-11.165,-70.595,1.085,0.060023999999999994,-0.082228,-1.142896,3
2024-06-14 08:33:23.349,-12.32,-74.2,2.065,0.06222,-0.0793,-1.174128,3
2024-06-14 08:33:23.353,-14.385,-77.595,2.52,0.056364,-0.055144,-1.19072,3
2024-06-14 08:33:23.358,-17.43,-80.64,2.2750000000000004,0.067588,-0.054655999999999996,-1.16266,3
2024-06-14 08:33:23.363,-17.78,-84.525,2.94,0.072956,-0.070516,-1.173152,3
2024-06-14 08:33:23.368,-18.409999999999997,-89.03999999999999,3.535,0.08271600000000001,-0.057583999999999996,-1.1836440000000001,3
2024-06-14 08:33:23.373,-19.494999999999997,-92.89,3.6399999999999997,0.083204,-0.034648,-1.1977959999999999,3
2024-06-14 08:33:23.378,-19.915,-96.88,3.6399999999999997,0.095648,-0.024888,-1.206336,3
2024-06-14 08:33:23.382,-19.005000000000003,-102.27,3.745,0.100772,-0.021471999999999998,-1.2139,3
2024-06-14 08:33:23.387,-18.305,-108.115,3.3600000000000003,0.09930800000000001,0.01464,-1.2409839999999999,3
2024-06-14 08:33:23.392,-17.29,-113.995,2.4850000000000003,0.101504,0.022936,-1.2553800000000002,3
2024-06-14 08:33:23.397,-15.855,-120.82,1.785,0.11419199999999999,0.022691999999999997,-1.270264,3
2024-06-14 08:33:23.402,-16.17,-127.855,0.42,0.112728,0.035624,-1.296616,3
2024-06-14 08:33:23.407,-16.17,-134.82,-0.42,0.111508,-0.024888,-1.307596,3
2024-06-14 08:33:23.411,-14.91,-142.065,-0.315,0.11345999999999999,-0.015615999999999998,-1.337364,3
2024-06-14 08:33:23.416,-16.24,-150.04500000000002,-0.9450000000000001,0.114924,-0.027572,-1.34688,3
2024-06-14 08:33:23.421,-15.925,-157.675,-0.8049999999999999,0.115656,-0.035136,-1.3705479999999999,3
2024-06-14 08:33:23.426,-16.52,-166.32,-1.19,0.120292,-0.006588,-1.390312,3
2024-06-14 08:33:23.431,-17.465,-174.93,-2.0300000000000002,0.13468799999999997,-0.010003999999999999,-1.41642,3
2024-06-14 08:33:23.436,-18.130000000000003,-183.68,-3.08,0.136884,0.017324,-1.43838,3
2024-06-14 08:33:23.441,-19.425,-192.675,-4.654999999999999,0.132004,0.040992,-1.4400879999999998,3
2024-06-14 08:33:23.445,-19.880000000000003,-202.09,-6.4399999999999995,0.134444,0.037087999999999996,-1.47742,3
2024-06-14 08:33:23.450,-19.11,-211.785,-8.225,0.13102799999999998,0.069052,-1.47132,3
2024-06-14 08:33:23.455,-19.740000000000002,-222.25,-10.64,0.126636,0.09272,-1.472296,3
2024-06-14 08:33:23.460,-19.705,-233.625,-13.440000000000001,0.138592,0.08003199999999999,-1.495964,3
2024-06-14 08:33:23.465,-18.375,-244.51,-15.575,0.136152,0.076616,-1.538908,3
2024-06-14 08:33:23.470,-20.825,-254.59,-18.165,0.127368,0.081008,-1.584292,3
2024-06-14 08:33:23.474,-23.45,-267.19,-20.79,0.13761600000000002,0.061731999999999995,-1.583316,3
2024-06-14 08:33:23.479,-24.535,-282.065,-23.064999999999998,0.137128,0.071004,-1.627236,3
2024-06-14 08:33:23.484,-20.965,-293.475,-25.060000000000002,0.153476,0.088572,-1.673108,3
2024-06-14 08:33:23.489,-18.025,-306.80999999999995,-27.475,0.166164,0.07661599999999999,-1.701412,3
2024-06-14 08:33:23.494,-13.895,-320.775,-29.189999999999998,0.152012,0.10931199999999999,-1.735328,3
2024-06-14 08:33:23.499,-11.97,-334.74,-32.129999999999995,0.14810800000000002,0.141764,-1.774368,3
2024-06-14 08:33:23.503,-8.785,-348.145,-34.754999999999995,0.185196,0.12858799999999998,-1.819264,3
2024-06-14 08:33:23.508,-10.045,-362.635,-36.89,0.23643599999999998,0.11882799999999999,-2.051552,3
2024-06-14 08:33:23.513,13.719999999999999,-378.56,-37.239999999999995,0.32110399999999995,-0.06856400000000001,-2.1591560000000003,3
2024-06-14 08:33:23.518,9.870000000000001,-385.175,-35.28,0.333792,0.076128,-2.132804,3
2024-06-14 08:33:23.523,14.455,-396.375,-34.195,0.409432,0.164456,-2.384124,3
2024-06-14 08:33:23.528,14.245000000000001,-400.89,-34.44,0.47214,0.207156,-2.42658,3
2024-06-14 08:33:23.532,19.285,-406.77,-34.72,0.52704,0.246928,-2.488556,3
2024-06-14 08:33:23.537,27.58,-410.515,-34.58,0.45408399999999993,0.429196,-2.5439439999999998,3
2024-06-14 08:33:23.542,11.305,-410.13,-38.885000000000005,0.31622399999999995,0.526796,-2.584448,3
2024-06-14 08:33:23.547,9.94,-409.85,-46.025,0.1769,0.5770599999999999,-2.615436,3
2024-06-14 08:33:23.552,10.605,-411.95,-51.135000000000005,0.165676,0.620248,-2.667896,3
2024-06-14 08:33:23.557,8.855,-417.06,-63.980000000000004,0.12932,0.649772,-2.5293039999999998,4
2024-06-14 08:33:23.561,25.83,-425.6,-78.785,0.19446799999999997,0.646112,-2.292136,4
2024-06-14 08:33:23.566,47.215,-430.22,-88.48,0.34111199999999997,0.714676,-2.1872160000000003,4
2024-06-14 08:33:23.571,54.81,-441.385,-93.52,0.44822799999999996,0.939888,-2.00202,4
2024-06-14 08:33:23.576,35.735,-451.95500000000004,-101.43,0.24278,1.2173159999999998,-1.960296,4
2024-06-14 08:33:23.581,-11.969999999999999,-454.755,-111.265,0.0031719999999999977,1.439844,-1.898564,4
2024-06-14 08:33:23.586,-79.485,-448.735,-124.6,-0.147376,1.526708,-2.0366679999999997,4
2024-06-14 08:33:23.590,-143.64,-430.045,-140.805,-0.317688,1.448628,-2.059604,4
2024-06-14 08:33:23.595,-192.675,-401.765,-159.39,-0.593164,1.335168,-1.93004,4
2024-06-14 08:33:23.600,-220.5,-367.99,-179.305,-0.989176,1.076772,-1.692872,4
2024-06-14 08:33:23.605,-230.195,-324.83500000000004,-201.88,-1.0025959999999998,0.754448,-1.361032,4
2024-06-14 08:33:23.610,-213.60500000000002,-282.45,-205.66,-1.391288,0.454816,-1.054324,4
2024-06-14 08:33:23.615,-176.365,-234.36,-173.845,-0.6222,0.2135,-0.616344,4
2024-06-14 08:33:23.619,-138.95,-166.04,-139.51,-0.85644,-0.151768,-1.1895,4
2024-06-14 08:33:23.624,-95.69,-51.8,-94.43,-1.6640799999999998,-0.57462,-0.9542839999999999,4
2024-06-14 08:33:23.629,-40.879999999999995,29.96,-34.265,-1.792668,-0.643184,-0.48678,4
2024-06-14 08:33:23.634,12.775,91.66499999999999,20.545,-1.432036,-0.31354,-0.568032,4
2024-06-14 08:33:23.639,57.225,142.625,54.355,-1.093852,-0.031232000000000003,-0.8296,4
2024-06-14 08:33:23.644,85.4,182.45499999999998,73.675,-0.9806360000000001,0.119316,-0.950868,4
2024-06-14 08:33:23.649,93.765,209.93,83.44,-0.934276,0.33354799999999996,-0.965508,4
2024-06-14 08:33:23.653,87.28999999999999,227.39499999999998,83.54499999999999,-0.819596,0.548024,-0.94428,4
2024-06-14 08:33:23.658,70.07,238.20999999999998,75.215,-0.6993039999999999,0.684176,-0.9408639999999999,4
2024-06-14 08:33:23.663,46.305,245.52499999999998,61.599999999999994,-0.614392,0.7085760000000001,-0.9298839999999999,4
2024-06-14 08:33:23.668,20.685,251.3,46.305,-0.5765720000000001,0.6707559999999999,-0.883524,4
2024-06-14 08:33:23.673,-2.0999999999999996,255.955,31.08,-0.558028,0.599264,-0.820816,4
2024-06-14 08:33:23.678,-18.76,260.19,17.01,-0.549488,0.485316,-0.76982,4
2024-06-14 08:33:23.682,-28.0,263.69,4.9,-0.525088,0.35868,-0.744688,4
2024-06-14 08:33:23.687,-30.485,266.245,-4.62,-0.480436,0.25132,-0.750544,4
2024-06-14 08:33:23.692,-28.595,267.575,-11.795,-0.437736,0.183732,-0.772016,4
2024-06-14 08:33:23.697,-23.765,268.52,-16.87,-0.408212,0.12736799999999998,-0.781044,4
2024-06-14 08:33:23.702,-17.64,269.885,-20.195,-0.396012,0.08588799999999999,-0.771528,4
2024-06-14 08:33:23.707,-10.745000000000001,272.405,-22.189999999999998,-0.39747599999999994,0.071492,-0.76372,4
2024-06-14 08:33:23.711,-4.41,276.29,-23.134999999999998,-0.397232,0.07319999999999999,-0.7664040000000001,4
2024-06-14 08:33:23.716,0.14,281.75,-23.345,-0.395524,0.08735200000000001,-0.795928,4
2024-06-14 08:33:23.721,2.0300000000000002,288.47,-22.96,-0.392352,0.107848,-0.828624,4
2024-06-14 08:33:23.726,1.05,296.87,-22.085,-0.396988,0.128832,-0.8601,4
2024-06-14 08:33:23.731,-1.8900000000000001,305.76,-20.615000000000002,-0.405284,0.13468799999999997,-0.8845,4
2024-06-14 08:33:23.736,-6.369999999999999,314.545,-18.445,-0.408944,0.124684,-0.912316,4
2024-06-14 08:33:23.740,-11.165,322.105,-15.260000000000002,-0.407968,0.108824,-0.9411080000000001,4
2024-06-14 08:33:23.745,-15.75,328.23,-11.34,-0.39015599999999995,0.087596,-0.971364,4
2024-06-14 08:33:23.750,-19.740000000000002,333.44500000000005,-6.51,-0.36575599999999997,0.06222,-1.004548,4
2024-06-14 08:33:23.755,-23.275,337.155,-0.77,-0.35184800000000005,0.0427,-1.040172,4
2024-06-14 08:33:23.760,-26.88,340.095,5.285,-0.3355,0.040748,-1.083848,4
2024-06-14 08:33:23.765,-30.59,341.91499999999996,11.445,-0.305244,0.040992,-1.1314279999999999,4
2024-06-14 08:33:23.769,-34.79,342.895,17.535,-0.2806,0.042943999999999996,-1.18218,4
2024-06-14 08:33:23.774,-38.989999999999995,343.385,23.695,-0.255956,0.040992,-1.232688,4
2024-06-14 08:33:23.779,-42.875,342.65,29.575000000000003,-0.222528,0.044652,-1.2927119999999999,4
2024-06-14 08:33:23.784,-46.515,340.655,34.510000000000005,-0.18544,0.054412,-1.3561519999999998,4
2024-06-14 08:33:23.789,-50.33,337.19,38.5,-0.15006000000000003,0.06953999999999999,-1.408856,4
2024-06-14 08:33:23.794,-54.53,332.67499999999995,41.510000000000005,-0.11882799999999999,0.081008,-1.451068,4
2024-06-14 08:33:23.798,-59.36,328.09,43.575,-0.09930800000000001,0.08369199999999999,-1.484496,4
2024-06-14 08:33:23.803,-64.995,323.4,44.835,-0.08418,0.08759600000000001,-1.5240239999999998,4
2024-06-14 08:33:23.808,-70.35,319.515,45.85,-0.060023999999999994,0.07417599999999999,-1.57868,4
2024-06-14 08:33:23.813,-74.75999999999999,316.4,47.144999999999996,-0.032695999999999996,0.040015999999999996,-1.627236,4
2024-06-14 08:33:23.818,-77.0,314.405,49.42,-0.004148000000000001,-0.005367999999999999,-1.670912,4
2024-06-14 08:33:23.823,-76.965,313.495,52.815,0.017812,-0.048556,-1.702632,4
2024-06-14 08:33:23.827,-75.705,313.425,57.47,0.038064,-0.071492,-1.7482600000000001,4
2024-06-14 08:33:23.832,-74.41,314.51,62.790000000000006,0.054412,-0.08003199999999999,-1.796328,4
2024-06-14 08:33:23.837,-73.22,316.05,69.33500000000001,0.07783599999999999,-0.079056,-1.836344,4
2024-06-14 08:33:23.842,-71.645,317.94,76.72,0.101992,-0.072468,-1.873432,4
2024-06-14 08:33:23.847,-69.755,320.075,84.35,0.12322,-0.050264,-1.90808,4
2024-06-14 08:33:23.852,-69.055,321.825,90.72,0.137128,-0.013176,-1.93736,4
2024-06-14 08:33:23.860,-70.525,323.26,94.745,0.151036,0.031232,-1.979572,4
2024-06-14 08:33:23.864,-73.08,324.79999999999995,96.32,0.17665599999999998,0.054655999999999996,-2.0181240000000003,4
2024-06-14 08:33:23.869,-74.47999999999999,325.885,95.655,0.207888,0.0549,-2.0474040000000002,4
2024-06-14 08:33:23.874,-73.32499999999999,326.305,93.31,0.24278,0.050019999999999995,-2.0793679999999997,4
2024-06-14 08:33:23.879,-69.755,326.375,89.35499999999999,0.279136,0.057583999999999996,-2.1084039999999997,4
2024-06-14 08:33:23.884,-65.13499999999999,326.83000000000004,84.17500000000001,0.32598399999999994,0.086864,-2.130852,4
2024-06-14 08:33:23.888,-60.269999999999996,327.32,78.505,0.37917599999999996,0.12102399999999999,-2.1520799999999998,4
2024-06-14 08:33:23.893,-56.315,327.705,72.345,0.439932,0.151524,-2.172088,4
2024-06-14 08:33:23.898,-53.69,327.95,66.22,0.513864,0.184708,-2.1847760000000003,4
2024-06-14 08:33:23.903,-52.254999999999995,327.005,60.375,0.597312,0.215208,-2.2018560000000003,4
2024-06-14 08:33:23.908,-52.01,324.8,55.16,0.6871039999999999,0.24522,-2.216252,4
2024-06-14 08:33:23.912,-52.605000000000004,320.81,50.435,0.777628,0.2691319999999999,-2.2203999999999997,4
2024-06-14 08:33:23.917,-53.69,315.55999999999995,46.305,0.865224,0.295728,-2.2240599999999997,4
2024-06-14 08:33:23.922,-55.825,309.19,42.489999999999995,0.936228,0.32500799999999996,-2.222108,4
2024-06-14 08:33:23.927,-59.185,302.12,38.955,1.0025959999999998,0.35184800000000005,-2.213324,4
2024-06-14 08:33:23.932,-64.085,294.35,35.56,1.08458,0.37942,-2.211372,4
2024-06-14 08:33:23.936,-70.875,286.615,31.85,1.1897440000000001,0.393572,-2.206004,4
2024-06-14 08:33:23.941,-78.715,278.39,27.72,1.30418,0.37795599999999996,-2.1684279999999996,4
2024-06-14 08:33:23.946,-86.45,269.5,23.975,1.427644,0.332816,-2.1228,4
2024-06-14 08:33:23.951,-93.59,259.245,20.615000000000002,1.576728,0.27083999999999997,-2.0842479999999997,4
2024-06-14 08:33:23.956,-98.97999999999999,247.66000000000003,18.305,1.7458200000000001,0.194224,-2.034472,4
2024-06-14 08:33:23.961,-102.9,234.04500000000002,16.869999999999997,1.927844,0.11101999999999998,-1.9764,4
2024-06-14 08:33:23.965,-106.505,219.135,16.555,2.121092,0.021471999999999998,-1.909544,4
2024-06-14 08:33:23.970,-109.9,202.86,17.604999999999997,2.31922,-0.06953999999999999,-1.830244,4
2024-06-14 08:33:23.975,-113.89,185.01,19.845,2.531744,-0.17934,-1.752164,4
2024-06-14 08:33:23.980,-118.44,166.845,23.134999999999998,2.769888,-0.32086,-1.676768,4
2024-06-14 08:33:23.985,-122.36,147.805,27.93,3.02316,-0.50264,-1.606496,4
2024-06-14 08:33:23.989,-123.41,127.855,33.775,3.2818,-0.721508,-1.544276,4
2024-06-14 08:33:23.994,-119.21000000000001,106.53999999999999,39.83,3.4992039999999998,-0.962092,-1.4988920000000001,4
2024-06-14 08:33:23.999,-107.03,83.58,47.495000000000005,3.639748,-1.193648,-1.464976,4
2024-06-14 08:33:24.004,-84.945,58.1,54.95,3.677324,-1.3595679999999999,-1.403244,4
2024-06-14 08:33:24.009,-54.425,31.465,61.25,3.593632,-1.421056,-1.352736,4
2024-06-14 08:33:24.013,-20.02,6.02,64.645,3.406728,-1.33956,-1.3017400000000001,4
2024-06-14 08:33:24.018,12.74,-15.645,64.295,3.138328,-1.154364,-1.257088,4
2024-06-14 08:33:24.023,38.92,-32.48,61.040000000000006,2.8347919999999998,-0.907192,-1.216828,4
2024-06-14 08:33:24.028,76.825,-67.235,59.185,3.2996119999999998,-0.615612,-1.429352,4
