time,gyroscope_x,gyroscope_y,gyroscope_z,accelerometer_x,accelerometer_y,accelerometer_z,phase
2024-06-14 11:23:24.947,-205.66,-390.145,-18.795,4.17972,2.198196,-2.20698,1
2024-06-14 11:23:24.957,-209.26500000000001,-303.73,-91.07,0.38991200000000004,-0.196176,-1.023336,1
2024-06-14 11:23:24.967,8.259999999999998,-309.19,-130.13,-0.7044279999999999,0.140056,-1.795108,1
2024-06-14 11:23:24.976,121.38,-313.66999999999996,-159.04000000000002,-0.20862,0.32232399999999994,-1.915644,1
2024-06-14 11:23:24.986,87.045,-303.45,-121.16999999999999,0.7090639999999999,0.81374,-2.342156,1
2024-06-14 11:23:24.996,48.230000000000004,-308.70000000000005,-41.195,0.280112,0.948428,-3.026576,1
2024-06-14 11:23:25.006,22.505000000000003,-195.89499999999998,21.525,0.125416,0.08296,-2.0915679999999996,1
2024-06-14 11:23:25.015,8.715,-81.935,0.6999999999999993,0.04636,-0.36185199999999995,-1.42496,1
2024-06-14 11:23:25.025,10.535,-34.195,-29.505,-0.040504,-0.010980000000000004,-1.123132,1
2024-06-14 11:23:25.035,3.885,-10.5,-13.335,-0.053436,0.081496,-1.0592039999999998,1
2024-06-14 11:23:25.044,0.56,-8.68,0.45500000000000007,0.028548,-0.09272,-1.06628,1
2024-06-14 11:23:25.054,-1.295,-7.665000000000001,-4.41,-0.024399999999999998,-0.018055999999999996,-1.05652,2
2024-06-14 11:23:25.064,-4.165,-3.71,1.19,-0.087596,-0.001464,-1.048468,2
2024-06-14 11:23:25.073,-3.885,-3.29,0.63,-0.074908,-0.013664,-1.046272,2
2024-06-14 11:23:25.083,-2.135,-4.515000000000001,0.42,-0.08784,-0.0012200000000000002,-1.019676,2
2024-06-14 11:23:25.093,-1.12,-6.09,0.385,-0.08393599999999998,-0.021716,-1.0218720000000001,2
2024-06-14 11:23:25.102,-0.9450000000000001,-7.279999999999999,0.42,-0.093452,-0.016836,-1.022604,2
2024-06-14 11:23:25.112,-0.42000000000000004,-10.43,0.56,-0.09516,-0.010003999999999999,-1.03212,2
2024-06-14 11:23:25.122,0.45499999999999996,-13.16,0.8400000000000001,-0.09516,-0.010248,-1.0250439999999998,2
2024-06-14 11:23:25.131,1.0150000000000001,-14.56,1.085,-0.09296399999999999,-0.012931999999999999,-1.0228479999999998,2
2024-06-14 11:23:25.141,1.365,-16.310000000000002,1.295,-0.09101200000000001,-0.01342,-1.0267519999999999,2
2024-06-14 11:23:25.151,1.6099999999999999,-18.095,1.295,-0.08515600000000001,-0.011712,-1.020896,2
2024-06-14 11:23:25.160,1.855,-19.95,1.26,-0.0854,-0.011224000000000001,-1.0255319999999999,2
2024-06-14 11:23:25.170,0.63,-28.595,1.4,-0.088572,-0.01342,-1.018456,2
2024-06-14 11:23:25.180,0.945,-24.5,0.875,-0.07076,-0.036356,-1.01382,2
2024-06-14 11:23:25.189,-1.82,-23.1,0.9099999999999999,-0.066856,-0.0122,-1.01504,2
2024-06-14 11:23:25.199,-1.085,-30.660000000000004,1.12,-0.050752,-0.022447999999999996,-1.010648,2
2024-06-14 11:23:25.209,-1.7850000000000001,-27.93,1.295,-0.05002,-0.035624,-1.0079639999999999,2
2024-06-14 11:23:25.218,-2.24,-26.25,1.995,-0.04636,-0.020007999999999998,-1.010404,2
2024-06-14 11:23:25.228,-2.87,-25.865,2.45,-0.06905199999999999,-0.015615999999999998,-1.01748,2
2024-06-14 11:23:25.238,-3.1849999999999996,-26.145,2.59,-0.06368399999999999,-0.025376,-1.019188,2
2024-06-14 11:23:25.247,-2.0300000000000002,-19.005000000000003,3.4299999999999997,-0.048556,-0.028304000000000003,-1.0108920000000001,2
2024-06-14 11:23:25.257,-4.165,-23.45,2.275,-0.027327999999999998,-0.011956000000000001,-1.005036,2
2024-06-14 11:23:25.267,-3.15,-24.15,1.7149999999999999,-0.032208,-0.002927999999999999,-1.016016,2
2024-06-14 11:23:25.276,-3.15,-29.54,2.4850000000000003,-0.04636,-0.01708,-1.0250439999999998,2
2024-06-14 11:23:25.286,-7.42,-31.08,0.6299999999999999,-0.018788,0.008296,-1.02236,2
2024-06-14 11:23:25.296,-10.184999999999999,-34.614999999999995,-0.49,-0.026352,-0.013908,-1.026508,2
2024-06-14 11:23:25.305,-9.379999999999999,-36.785,-0.06999999999999999,-0.009516,0.005124,-1.0189439999999998,2
2024-06-14 11:23:25.315,-7.385,-37.975,-0.56,-0.009028,-0.016592,-1.031632,2
2024-06-14 11:23:25.325,-5.39,-33.879999999999995,-0.385,-0.003904,-0.022691999999999997,-1.034316,2
2024-06-14 11:23:25.334,-3.745,-37.834999999999994,0.45499999999999996,0.0,-0.009028,-1.045296,2
2024-06-14 11:23:25.344,1.75,-44.94,0.525,0.009516,-0.006588,-1.0616439999999998,2
2024-06-14 11:23:25.354,4.655,-49.84,0.35,0.008296000000000001,-0.007319999999999999,-1.084092,2
2024-06-14 11:23:25.363,14.56,-42.14,2.065,0.015372,0.008296000000000001,-1.138504,2
2024-06-14 11:23:25.373,12.95,-45.605000000000004,1.12,0.013908,-0.018056,-1.168028,2
2024-06-14 11:23:25.383,14.455,-50.33,0.9099999999999999,0.021716,-0.0004880000000000006,-1.2075559999999999,2
2024-06-14 11:23:25.392,18.48,-57.96,1.0150000000000001,0.028791999999999998,-0.0034159999999999998,-1.24318,2
2024-06-14 11:23:25.402,21.875,-65.73,1.19,0.028304,-0.008052,-1.27978,2
2024-06-14 11:23:25.412,24.465,-75.075,1.4,0.0305,-0.025376,-1.302716,2
2024-06-14 11:23:25.421,24.465,-85.19,1.33,0.038308,-0.009271999999999999,-1.2980800000000001,2
2024-06-14 11:23:25.431,24.64,-97.51,1.085,0.045871999999999996,0.0183,-1.33468,2
2024-06-14 11:23:25.441,27.23,-111.685,0.0,0.041968,0.00048800000000000004,-1.408856,2
2024-06-14 11:23:25.451,32.27,-130.55,-0.9450000000000001,0.037332,-0.008052,-1.47376,2
2024-06-14 11:23:25.460,35.28,-154.63,-1.12,0.030012,-0.024644,-1.5128,2
2024-06-14 11:23:25.470,38.255,-182.0,-0.595,0.030744,-0.043188000000000004,-1.527196,2
2024-06-14 11:23:25.480,41.09,-211.785,0.455,0.025376,-0.044163999999999995,-1.5633080000000001,3
2024-06-14 11:23:25.489,45.08,-242.79500000000002,1.7149999999999999,0.00488,-0.039772,-1.611864,3
2024-06-14 11:23:25.499,50.89,-276.745,1.68,0.027328,0.010248,-1.6777440000000001,3
2024-06-14 11:23:25.509,58.03,-315.0,-0.385,-0.0122,0.046848,-1.816336,3
2024-06-14 11:23:25.518,63.7,-357.735,-3.185,-0.05367999999999999,0.007320000000000002,-2.0391079999999997,3
2024-06-14 11:23:25.528,65.66,-399.525,-4.025,0.124196,-0.10003999999999999,-2.3575280000000003,3
2024-06-14 11:23:25.538,64.4,-436.69500000000005,-3.1500000000000004,0.183732,-0.202032,-2.827472,3
2024-06-14 11:23:25.547,63.0,-471.45,0.10500000000000001,0.247904,-0.11907199999999998,-2.970944,3
2024-06-14 11:23:25.557,63.525,-493.99,-4.0600000000000005,0.400892,-0.129076,-3.2935119999999998,3
2024-06-14 11:23:25.567,56.735,-515.305,1.2249999999999999,0.213256,-0.137616,-3.1461360000000003,3
2024-06-14 11:23:25.576,35.0,-529.865,4.48,0.353068,-0.023424,-3.057076,3
2024-06-14 11:23:25.586,0.20999999999999996,-514.5,-1.1199999999999999,0.170556,0.039284,-3.061224,3
2024-06-14 11:23:25.596,-10.29,-467.005,-7.525,-0.417728,-0.338428,-2.9043319999999997,3
2024-06-14 11:23:25.605,-1.9600000000000002,-411.635,-3.955,-1.491816,-0.47165199999999996,-2.5866439999999997,3
2024-06-14 11:23:25.615,18.515,-351.61,20.335,-2.433412,-0.5636399999999999,-1.279536,3
2024-06-14 11:23:25.625,27.23,-342.72,91.28,-1.228296,-0.9713639999999999,-0.543632,3
2024-06-14 11:23:25.634,102.025,-173.635,130.69,-1.579168,-0.6539200000000001,-1.622844,3
2024-06-14 11:23:25.644,135.66,-10.045,153.615,-1.647488,0.07807999999999998,-1.2356159999999998,3
2024-06-14 11:23:25.654,58.94,96.74000000000001,132.475,-1.450824,0.4636,-1.2417159999999998,3
2024-06-14 11:23:25.663,-21.77,136.325,96.775,-1.247328,0.34599199999999997,-1.05408,3
2024-06-14 11:23:25.673,-63.665000000000006,149.625,69.33500000000001,-1.108736,0.10614,-0.785436,3
2024-06-14 11:23:25.683,-70.66499999999999,160.685,50.855000000000004,-0.9725839999999999,-0.068808,-0.607804,3
2024-06-14 11:23:25.692,-55.93,178.815,38.010000000000005,-0.882792,-0.13322399999999998,-0.52826,3
2024-06-14 11:23:25.702,-37.835,202.54500000000002,27.79,-0.831796,-0.11687600000000001,-0.523868,3
2024-06-14 11:23:25.712,-24.955,227.185,18.515,-0.772504,-0.072468,-0.570472,3
2024-06-14 11:23:25.721,-20.79,250.14499999999998,9.73,-0.72102,-0.023667999999999998,-0.6287879999999999,4
2024-06-14 11:23:25.731,-21.42,271.705,1.75,-0.682712,-0.00122,-0.6954,4
2024-06-14 11:23:25.741,-21.174999999999997,293.895,-3.71,-0.6573359999999999,-0.011956,-0.776408,4
2024-06-14 11:23:25.750,-18.27,316.365,-6.02,-0.620004,-0.009516,-0.863028,4
2024-06-14 11:23:25.760,-15.75,340.58500000000004,-5.88,-0.58316,-0.010004,-0.961848,4
2024-06-14 11:23:25.770,-12.46,362.635,-2.59,-0.546072,-0.007076,-1.072868,4
2024-06-14 11:23:25.779,-8.19,382.865,2.38,-0.49776000000000004,0.0122,-1.152656,4
2024-06-14 11:23:25.789,-3.1149999999999998,399.105,7.91,-0.428708,0.0060999999999999995,-1.286124,4
2024-06-14 11:23:25.799,4.83,410.48,14.77,-0.33916,-0.00024399999999999943,-1.427888,4
2024-06-14 11:23:25.808,13.65,419.055,23.134999999999998,-0.260104,-0.008296,-1.571848,4
2024-06-14 11:23:25.818,21.035,425.03999999999996,31.71,-0.159088,-0.002684,-1.7004359999999998,4
2024-06-14 11:23:25.828,29.61,423.745,40.04,-0.005856,-0.002928,-1.8136519999999998,4
2024-06-14 11:23:25.837,44.485,411.04,47.11,0.21764799999999998,-0.0046359999999999995,-1.955172,4
2024-06-14 11:23:25.847,61.46,386.995,47.915,0.435784,0.040260000000000004,-2.112552,4
2024-06-14 11:23:25.857,69.33500000000001,356.405,39.305,0.57828,0.115412,-2.268224,4
2024-06-14 11:23:25.869,61.18,330.08500000000004,21.875,0.6019479999999999,0.233264,-2.463668,4
2024-06-14 11:23:25.878,42.945,327.775,-2.87,0.5533919999999999,0.23009200000000002,-2.602504,4
2024-06-14 11:23:25.888,28.770000000000003,345.8,-30.625,0.616344,0.12029200000000001,-2.7232840000000005,4
2024-06-14 11:23:25.897,21.630000000000003,362.705,-57.19,0.803492,-0.020739999999999998,-2.8487,4
2024-06-14 11:23:25.907,14.98,374.78,-78.75,1.093364,-0.156404,-2.9038440000000003,4
2024-06-14 11:23:25.917,8.61,384.755,-92.33,1.4579,-0.290604,-2.861876,4
2024-06-14 11:23:25.926,2.065,381.885,-97.755,1.823168,-0.426512,-2.709132,4
2024-06-14 11:23:25.936,-3.29,360.29,-93.66,2.100108,-0.5863320000000001,-2.451224,4
2024-06-14 11:23:25.946,-0.28,325.08000000000004,-77.175,2.329224,-0.747616,-2.1933160000000003,4
2024-06-14 11:23:25.955,14.84,284.9,-52.08,2.6012839999999997,-0.76494,-1.9246719999999997,4
2024-06-14 11:23:25.965,37.45,243.91500000000002,-26.495,3.01584,-0.538996,-1.686772,4
2024-06-14 11:23:25.975,70.595,205.31,-9.065,3.7163639999999996,-0.019276,-1.42862,4
2024-06-14 11:23:25.984,62.58,153.405,-5.390000000000001,4.340272,0.45505999999999996,-1.251964,4
2024-06-14 11:23:25.994,-14.07,64.015,-9.03,4.272196,0.43505199999999994,-1.1482640000000002,4
2024-06-14 11:23:26.004,-78.505,-38.78,-0.6300000000000001,3.525068,-0.11882800000000002,-1.127524,4
2024-06-14 11:23:26.013,-75.285,-108.95500000000001,25.865,2.646912,-0.675392,-1.157048,4
2024-06-14 11:23:26.023,-41.825,-263.165,34.09,3.3874519999999997,0.17324,-1.031876,4
