time,gyroscope_x,gyroscope_y,gyroscope_z,accelerometer_x,accelerometer_y,accelerometer_z,phase
2024-06-14 10:53:55.760,-83.44,-256.9,-63.385000000000005,2.87554,0.181292,-1.515972,1
2024-06-14 10:53:55.765,-80.605,-252.63,-49.875,0.4758,0.37332,-2.119384,1
2024-06-14 10:53:55.770,-77.455,-255.15,-33.985,-0.053435999999999984,0.636108,-2.185508,1
2024-06-14 10:53:55.775,-53.025,-230.44,-20.58,-0.378688,0.36234,-1.7614359999999998,1
2024-06-14 10:53:55.780,-53.235,-255.815,-13.23,-0.518256,0.009028000000000001,-1.67628,1
2024-06-14 10:53:55.784,-51.45,-260.855,-15.68,-0.327692,-0.170068,-1.666276,1
2024-06-14 10:53:55.789,-50.295,-257.145,-21.7,-0.0019520000000000023,-0.069296,-1.716784,1
2024-06-14 10:53:55.794,-39.095,-241.535,-20.615000000000002,0.183,0.322812,-1.841956,1
2024-06-14 10:53:55.799,-29.645,-221.445,-13.055,0.276452,0.325984,-1.613328,1
2024-06-14 10:53:55.804,-23.695,-203.945,-6.58,0.275964,0.19495600000000002,-1.521096,1
2024-06-14 10:53:55.809,-11.865,-183.75,-6.265,0.153476,0.03904,-1.4742479999999998,1
2024-06-14 10:53:55.813,-7.175,-165.79500000000002,-8.82,0.021959999999999997,-0.012931999999999999,-1.49206,1
2024-06-14 10:53:55.818,-11.76,-151.41,-8.434999999999999,-0.0366,0.038307999999999995,-1.190964,1
2024-06-14 10:53:55.823,-18.41,-140.245,-6.545,0.027327999999999998,0.002196,-1.462048,1
2024-06-14 10:53:55.828,-22.225,-118.65,-7.49,0.080764,0.033915999999999995,-1.319308,1
2024-06-14 10:53:55.833,-17.85,-104.78999999999999,-8.995000000000001,0.117608,-0.032208,-1.2636760000000002,1
2024-06-14 10:53:55.838,-27.195,-81.235,-12.704999999999998,0.173484,-0.003172000000000008,-1.3717679999999999,1
2024-06-14 10:53:55.842,-23.345,-58.1,-13.475,0.145668,0.055632,-1.3954360000000001,1
2024-06-14 10:53:55.847,-16.135,-23.765,-7.5600000000000005,0.25083199999999994,0.222528,-1.187792,1
2024-06-14 10:53:55.852,-28.77,-17.395,-0.42,0.08735199999999999,-0.058804,-1.162904,1
2024-06-14 10:53:55.857,-35.175,-13.965,-3.71,0.11712,-0.044407999999999996,-1.15656,1
2024-06-14 10:53:55.862,-11.865,0.2450000000000001,-1.7149999999999999,-0.021716,0.011712,-1.1394799999999998,1
2024-06-14 10:53:55.866,-14.49,-1.435,0.7,0.016104,0.031232,-1.179252,1
2024-06-14 10:53:55.871,-14.105,-3.5,1.7850000000000001,0.024888,0.060267999999999995,-1.1982840000000001,1
2024-06-14 10:53:55.876,-7.525,-5.145,0.875,0.011224,0.023912,-1.164368,1
2024-06-14 10:53:55.881,-3.64,-10.045,-0.49,0.033916,-0.00854,-1.203652,1
2024-06-14 10:53:55.886,-1.0499999999999998,-11.795,-1.61,0.020984,0.007808,-1.21878,1
2024-06-14 10:53:55.891,0.63,-14.175,-1.7850000000000001,-0.0046359999999999995,0.003903999999999999,-1.1809599999999998,1
2024-06-14 10:53:55.895,1.505,-16.45,-1.365,-0.024888,0.005124,-1.1089799999999999,1
2024-06-14 10:53:55.900,1.365,-18.865000000000002,-0.665,-0.02684,0.017079999999999998,-1.066036,2
2024-06-14 10:53:55.905,1.89,-21.42,-0.10500000000000001,-0.025863999999999998,0.022204,-1.052616,2
2024-06-14 10:53:55.910,2.5549999999999997,-21.35,-0.175,0.005856,-0.01952,-1.02968,2
2024-06-14 10:53:55.915,2.5549999999999997,-23.1,0.14,0.010003999999999999,-0.002684,-1.0313879999999997,2
2024-06-14 10:53:55.920,2.24,-23.45,0.10500000000000001,-0.011712,-0.012199999999999999,-1.019676,2
2024-06-14 10:53:55.924,1.5750000000000002,-25.2,0.42,0.00488,0.001464,-1.028216,2
2024-06-14 10:53:55.929,0.9099999999999999,-25.865000000000002,0.45499999999999996,-0.008052,0.009271999999999999,-1.0311439999999998,2
2024-06-14 10:53:55.934,0.45499999999999996,-25.97,0.525,0.014884,-0.027572,-1.014796,2
2024-06-14 10:53:55.939,0.385,-26.005000000000003,0.49,0.0068319999999999995,0.017812,-1.0274839999999998,2
2024-06-14 10:53:55.944,0.9099999999999999,-26.215,0.245,0.009516,-0.029524,-1.04066,2
2024-06-14 10:53:55.949,0.84,-26.46,0.385,0.01464,-0.003172000000000001,-1.048956,2
2024-06-14 10:53:55.953,0.77,-26.18,0.03499999999999999,0.018056,-0.028791999999999995,-1.051396,2
2024-06-14 10:53:55.958,1.12,-26.18,0.07,0.0029279999999999996,0.019032,-1.04432,2
2024-06-14 10:53:55.963,0.14,-26.495,-0.27999999999999997,0.02196,-0.038064,-1.04554,2
2024-06-14 10:53:55.968,0.14,-26.18,-0.14,0.01586,-0.019520000000000003,-1.037488,2
2024-06-14 10:53:55.973,-0.175,-26.11,-0.175,0.014152,0.00732,-1.0411479999999997,2
2024-06-14 10:53:55.978,-0.875,-26.11,0.14,0.020984,-0.009760000000000001,-1.035292,2
2024-06-14 10:53:55.982,-2.205,-26.67,0.49,0.012932,-0.007075999999999999,-1.039196,2
2024-06-14 10:53:55.987,-3.185,-26.634999999999998,0.7,0.016348,0.00732,-1.03822,2
2024-06-14 10:53:55.992,-3.325,-25.83,0.735,0.026108,0.008784,-1.02968,2
2024-06-14 10:53:55.997,-3.325,-27.09,0.8049999999999999,0.040016,0.016104,-1.0240680000000002,2
2024-06-14 10:53:56.002,-3.08,-27.02,0.98,0.036844,0.011467999999999999,-1.0128439999999999,2
2024-06-14 10:53:56.007,-2.66,-26.95,0.98,0.0305,0.010492,-1.012356,2
2024-06-14 10:53:56.011,-3.325,-26.32,1.05,0.035379999999999995,0.010248,-1.0128439999999999,2
2024-06-14 10:53:56.016,-3.2199999999999998,-26.18,1.015,0.036356,0.013908,-1.011868,2
2024-06-14 10:53:56.021,-13.58,-46.095,1.155,0.04026,0.009271999999999999,-1.006256,2
2024-06-14 10:53:56.026,-2.6599999999999997,-24.955,1.155,0.046604,0.01586,-1.0006439999999999,2
2024-06-14 10:53:56.031,-1.8900000000000001,-24.43,1.47,0.04026,0.021228,-0.999424,2
2024-06-14 10:53:56.035,-3.2199999999999998,-23.8,1.645,0.048799999999999996,0.023424,-0.9945439999999999,2
2024-06-14 10:53:56.040,-0.42000000000000004,-23.555,1.505,0.048068,0.022204,-0.9882,2
2024-06-14 10:53:56.045,-1.435,-23.87,1.3650000000000002,0.050508,0.020007999999999998,-0.9943,2
2024-06-14 10:53:56.050,-1.0150000000000001,-24.15,1.26,0.05367999999999999,0.025376,-0.991128,2
2024-06-14 10:53:56.055,0.07000000000000003,-24.990000000000002,1.365,0.05124,0.025863999999999998,-0.994544,2
2024-06-14 10:53:56.060,-0.7,-25.445,1.54,0.06368399999999999,0.021227999999999997,-0.9891759999999999,2
2024-06-14 10:53:56.064,-0.035,-25.305,1.8199999999999998,0.055388,0.016836,-0.9938119999999999,2
2024-06-14 10:53:56.069,-1.225,-25.235,1.9249999999999998,0.05831599999999999,0.003903999999999999,-0.990884,2
2024-06-14 10:53:56.074,-1.505,-25.619999999999997,1.575,0.049288,0.00366,-1.006256,2
2024-06-14 10:53:56.079,-2.7649999999999997,-26.634999999999998,1.435,0.047335999999999996,0.006588,-0.99308,2
2024-06-14 10:53:56.084,-5.425,-26.6,1.3650000000000002,0.09418399999999999,-0.00244,-0.988444,2
2024-06-14 10:53:56.089,-6.720000000000001,-24.465,1.155,0.06222,0.014151999999999998,-1.038952,2
2024-06-14 10:53:56.093,-5.775,-15.75,1.6099999999999999,-0.011467999999999999,0.050996,-0.972096,2
2024-06-14 10:53:56.098,-4.9,-19.04,1.54,0.076128,0.018788,-0.985028,2
2024-06-14 10:53:56.103,-3.885,-18.865,1.435,-0.05343600000000001,0.130296,-0.837896,2
2024-06-14 10:53:56.108,-4.165,-22.96,1.505,0.0915,0.027572,-1.024556,2
2024-06-14 10:53:56.113,-3.6399999999999997,-22.994999999999997,1.715,0.020739999999999998,0.031476,-1.0948280000000001,2
2024-06-14 10:53:56.118,-4.9,-23.8,1.4,-0.01098,0.03294,-0.97112,2
2024-06-14 10:53:56.122,-4.55,-25.165,1.505,0.025619999999999997,0.072468,-1.003328,2
2024-06-14 10:53:56.127,-3.955,-24.115000000000002,1.505,0.171044,0.022692,-0.9577,2
2024-06-14 10:53:56.132,-3.955,-26.564999999999998,1.7149999999999999,0.201544,-0.09638,-1.145092,3
2024-06-14 10:53:56.137,-4.34,-28.665,2.4850000000000003,0.018788,0.00854,-1.110444,3
2024-06-14 10:53:56.142,-7.315,-31.045,3.465,0.18544,-0.11467999999999999,-1.0506639999999998,3
2024-06-14 10:53:56.147,-8.26,-30.275,3.115,0.06222,0.017568000000000004,-1.0582280000000002,3
2024-06-14 10:53:56.151,-7.105,-40.879999999999995,3.29,0.10955599999999999,0.0060999999999999995,-1.077992,3
2024-06-14 10:53:56.156,-5.215000000000001,-45.78,3.395,0.057096,0.083204,-0.9501359999999999,3
2024-06-14 10:53:56.161,0.03499999999999992,-48.055,4.62,0.061488,0.033915999999999995,-1.0316319999999999,3
2024-06-14 10:53:56.166,-1.715,-46.129999999999995,7.84,0.104188,0.029036,-1.088972,3
2024-06-14 10:53:56.171,-17.884999999999998,-40.74,9.8,0.08906,0.042456,-1.120692,3
2024-06-14 10:53:56.175,-12.600000000000001,-52.605000000000004,9.065,0.154208,-0.142252,-0.949404,3
2024-06-14 10:53:56.180,-13.615,-53.865,4.865,0.136884,-0.015616,-1.055788,3
2024-06-14 10:53:56.185,-11.690000000000001,-52.745000000000005,4.165,0.09881999999999999,0.015860000000000003,-1.068476,3
2024-06-14 10:53:56.190,-2.1,-51.485,5.18,0.12712400000000001,0.052216,-1.03212,3
2024-06-14 10:53:56.195,-2.135,-52.29,4.27,0.127368,0.076128,-1.0450519999999999,3
2024-06-14 10:53:56.200,0.945,-54.04,3.955,0.125904,0.033672,-1.079212,3
2024-06-14 10:53:56.204,5.215,-55.754999999999995,4.025,0.12468399999999999,0.06222,-1.101172,3
2024-06-14 10:53:56.209,8.084999999999999,-58.345,3.745,0.12224399999999999,0.05831599999999999,-1.149972,3
2024-06-14 10:53:56.214,11.899999999999999,-60.62,3.4299999999999997,0.12614799999999998,0.05856,-1.184132,3
2024-06-14 10:53:56.219,15.645,-64.4,2.8,0.127124,0.049532,-1.1880359999999999,3
2024-06-14 10:53:56.224,18.935,-71.68,2.0999999999999996,0.13395599999999996,0.048312,-1.226344,3
2024-06-14 10:53:56.229,22.645,-77.56,1.7149999999999999,0.12468399999999999,0.06636800000000001,-1.258308,3
2024-06-14 10:53:56.233,26.075,-82.39,0.945,0.12224399999999999,0.062464,-1.28832,3
2024-06-14 10:53:56.238,29.54,-88.235,0.42,0.125904,0.050996,-1.303448,3
2024-06-14 10:53:56.243,32.165000000000006,-96.005,0.03499999999999999,0.126392,0.045383999999999994,-1.3476119999999998,3
2024-06-14 10:53:56.249,30.975,-104.195,-0.735,0.144692,0.070272,-1.31638,3
2024-06-14 10:53:56.254,32.795,-111.44,-0.9450000000000001,0.13663999999999998,0.060756000000000004,-1.33346,3
2024-06-14 10:53:56.259,29.225,-125.195,-0.21,0.12639199999999998,0.017812,-1.4132479999999998,3
2024-06-14 10:53:56.263,35.349999999999994,-127.68,-0.5249999999999999,0.12053599999999999,0.01952,-1.3197960000000002,3
2024-06-14 10:53:56.268,39.935,-138.39,-0.245,0.13054,0.008784,-1.3998279999999999,3
2024-06-14 10:53:56.273,38.745,-149.38,-0.14,0.141032,-0.011712,-1.4644879999999998,3
2024-06-14 10:53:56.278,37.695,-161.245,0.595,0.141276,-0.031232,-1.448384,3
2024-06-14 10:53:56.283,36.715,-174.265,1.575,0.14444800000000002,-0.05734,-1.5520839999999998,3
2024-06-14 10:53:56.287,35.735,-190.995,3.395,0.131516,-0.076616,-1.605764,3
2024-06-14 10:53:56.292,36.575,-206.85000000000002,6.16,0.130052,-0.13176,-1.5520839999999998,3
2024-06-14 10:53:56.297,33.285,-227.255,8.82,0.122976,-0.12395199999999999,-1.5811199999999999,3
2024-06-14 10:53:56.302,27.685,-244.54500000000002,12.285,0.142984,-0.18178,-1.675792,3
2024-06-14 10:53:56.307,24.57,-258.51,16.975,0.134444,-0.229848,-1.719468,3
2024-06-14 10:53:56.312,21.560000000000002,-277.97,22.575000000000003,0.1586,-0.24375599999999997,-1.814628,3
2024-06-14 10:53:56.316,15.434999999999999,-297.57,28.595,0.12517199999999998,-0.291336,-1.911252,3
2024-06-14 10:53:56.321,8.995000000000001,-324.905,35.735,0.136884,-0.346236,-1.9527320000000001,3
2024-06-14 10:53:56.326,0.34999999999999987,-345.975,44.065,0.127612,-0.418948,-2.12036,3
2024-06-14 10:53:56.331,-11.795,-370.125,52.78,0.08906,-0.47628800000000004,-2.08254,3
2024-06-14 10:53:56.336,-19.564999999999998,-398.965,62.614999999999995,0.08247199999999999,-0.5302119999999999,-2.1794080000000005,3
2024-06-14 10:53:56.340,-28.35,-429.38,72.24000000000001,0.069052,-0.49898,-2.184288,3
2024-06-14 10:53:56.345,-37.345,-460.145,78.785,0.20300800000000002,-0.452376,-2.377536,3
2024-06-14 10:53:56.350,-42.42,-485.87,81.235,0.31524800000000003,-0.392108,-2.6713120000000004,3
2024-06-14 10:53:56.355,-44.065,-505.54,80.67500000000001,0.526308,-0.325252,-2.887984,3
2024-06-14 10:53:56.360,-39.795,-512.855,78.68,0.6043879999999999,-0.196908,-3.4062399999999995,3
2024-06-14 10:53:56.365,-57.435,-520.6949999999999,73.605,0.6202479999999999,-0.10003999999999999,-3.280092,3
2024-06-14 10:53:56.369,-50.715,-517.79,62.965,0.672952,-0.04148,-3.3977000000000004,3
2024-06-14 10:53:56.374,-16.625,-498.96,51.834999999999994,0.76128,-0.077348,-3.4796839999999998,3
2024-06-14 10:53:56.379,10.535,-489.685,45.08,0.610732,-0.221308,-3.639016,3
2024-06-14 10:53:56.384,25.165,-479.255,45.36,0.610976,-0.179096,-3.6997720000000003,3
2024-06-14 10:53:56.389,21.14,-456.505,51.66,0.672952,-0.38259200000000004,-3.88692,3
2024-06-14 10:53:56.393,-0.77,-415.905,53.025,0.401624,-0.463844,-3.60876,3
2024-06-14 10:53:56.398,-10.29,-381.605,60.269999999999996,0.157868,-0.630008,-3.087576,4
2024-06-14 10:53:56.403,-25.305,-343.7,69.405,-0.36844000000000005,-0.8805959999999999,-2.46196,4
2024-06-14 10:53:56.408,-28.770000000000003,-321.335,81.97,-1.2019440000000001,-1.0787239999999998,-1.801452,4
2024-06-14 10:53:56.413,-25.025,-287.385,100.485,-2.1228,-1.2951519999999999,-1.4564359999999998,4
2024-06-14 10:53:56.418,-23.73,-246.435,115.60499999999999,-2.096936,-1.3066200000000001,-1.51646,4
2024-06-14 10:53:56.422,-30.94,-192.535,121.17,-1.63602,-0.978196,-1.959076,4
2024-06-14 10:53:56.427,-39.69,-149.83499999999998,119.105,-1.482788,-0.7005239999999999,-1.9315039999999999,4
2024-06-14 10:53:56.432,-48.474999999999994,-133.52499999999998,111.72,-1.379576,-0.553636,-1.563796,4
2024-06-14 10:53:56.437,-69.755,-137.025,97.545,-1.5718480000000001,-0.670268,-0.590236,4
2024-06-14 10:53:56.442,-71.57499999999999,-85.225,85.92500000000001,-2.1310959999999994,-0.919148,-1.746552,4
2024-06-14 10:53:56.447,-64.61,-10.57,78.29499999999999,-2.1554960000000003,-0.83814,-1.097756,4
2024-06-14 10:53:56.451,-85.36500000000001,29.12,62.230000000000004,-2.0281279999999997,-0.6380600000000001,-1.094828,4
2024-06-14 10:53:56.456,-99.57499999999999,60.30500000000001,47.215,-1.88002,-0.674172,-0.8879159999999999,4
2024-06-14 10:53:56.461,-107.45,77.035,38.15,-1.7482600000000001,-0.767624,-0.57218,4
2024-06-14 10:53:56.466,-105.805,86.73,34.09,-1.6799399999999998,-0.7795799999999999,-0.556808,4
2024-06-14 10:53:56.471,-92.82,101.22,33.81,-1.650172,-0.80764,-0.5924320000000001,4
2024-06-14 10:53:56.475,-75.88,118.125,34.51,-1.589172,-0.826916,-0.47018799999999994,4
2024-06-14 10:53:56.480,-53.2,130.655,35.665,-1.504016,-0.862296,-0.403088,4
2024-06-14 10:53:56.485,-27.3,139.685,37.415,-1.41398,-0.890112,-0.334036,4
2024-06-14 10:53:56.490,-1.6449999999999996,151.13,38.85,-1.35054,-0.83814,-0.359656,4
2024-06-14 10:53:56.495,24.36,163.59,39.025000000000006,-1.2895400000000001,-0.752008,-0.42212,4
2024-06-14 10:53:56.500,47.81,177.555,37.379999999999995,-1.214388,-0.660508,-0.44212799999999997,4
2024-06-14 10:53:56.504,66.99000000000001,190.82,33.39,-1.136308,-0.56242,-0.4758,4
2024-06-14 10:53:56.509,81.025,203.945,26.880000000000003,-1.065304,-0.444568,-0.523136,4
2024-06-14 10:53:56.514,90.78999999999999,217.42000000000002,18.095,-0.996008,-0.33306,-0.58194,4
2024-06-14 10:53:56.519,96.285,231.035,7.77,-0.93086,-0.250588,-0.6405,4
2024-06-14 10:53:56.524,97.89500000000001,244.93,-3.43,-0.8649800000000001,-0.18275599999999997,-0.697596,4
2024-06-14 10:53:56.528,97.44,258.37,-14.98,-0.7832399999999999,-0.127612,-0.742248,4
2024-06-14 10:53:56.533,96.705,270.83,-26.32,-0.69906,-0.09272,-0.7908040000000001,4
2024-06-14 10:53:56.538,96.705,282.59000000000003,-36.855,-0.622932,-0.079788,-0.8442400000000001,4
2024-06-14 10:53:56.543,97.965,293.44,-46.06,-0.559004,-0.07344400000000001,-0.894992,4
2024-06-14 10:53:56.548,100.59,303.485,-53.48,-0.49824799999999997,-0.06831999999999999,-0.9374480000000001,4
2024-06-14 10:53:56.553,103.88,312.34000000000003,-59.5,-0.437736,-0.054168,-0.9921039999999999,4
2024-06-14 10:53:56.557,106.96000000000001,320.32,-63.665,-0.378444,-0.027572,-1.0592039999999998,4
2024-06-14 10:53:56.562,108.535,327.18,-66.28999999999999,-0.32574,0.004392,-1.107516,4
2024-06-14 10:53:56.567,107.87,333.655,-66.955,-0.27205999999999997,0.035624,-1.1650999999999998,4
2024-06-14 10:53:56.572,105.28,339.395,-65.87,-0.225456,0.061976,-1.231712,4
2024-06-14 10:53:56.577,102.095,344.995,-62.825,-0.18348799999999998,0.06709999999999999,-1.2914919999999999,4
2024-06-14 10:53:56.581,99.015,350.14,-57.54,-0.137372,0.067832,-1.3595679999999999,4
2024-06-14 10:53:56.586,97.58,355.11,-49.769999999999996,-0.099064,0.061244,-1.42252,4
2024-06-14 10:53:56.591,99.25999999999999,360.395,-40.11,-0.06880800000000001,0.046116000000000004,-1.4905959999999998,4
2024-06-14 10:53:56.596,103.53,365.785,-29.015,-0.036356,0.05368,-1.561112,4
2024-06-14 10:53:56.601,110.25,371.41999999999996,-17.605,-0.004636,0.08515600000000001,-1.642608,4
2024-06-14 10:53:56.606,117.565,377.195,-7.245,0.030744,0.13542,-1.717028,4
2024-06-14 10:53:56.610,122.885,382.06,0.665,0.056119999999999996,0.209108,-1.784128,4
2024-06-14 10:53:56.615,125.37,385.385,5.880000000000001,0.086132,0.288408,-1.8524479999999999,4
2024-06-14 10:53:56.620,124.88,386.855,7.9799999999999995,0.11882799999999999,0.36478,-1.9102759999999999,4
2024-06-14 10:53:56.625,122.04499999999999,386.925,7.175,0.145668,0.430172,-1.9642,4
2024-06-14 10:53:56.630,117.6,385.735,4.2,0.17177599999999998,0.480436,-2.016416,4
2024-06-14 10:53:56.634,112.245,383.53,-0.17500000000000004,0.19690800000000003,0.519476,-2.062532,4
2024-06-14 10:53:56.639,106.82,380.79999999999995,-5.25,0.223748,0.545584,-2.10694,4
2024-06-14 10:53:56.644,101.955,378.0,-10.325,0.24619600000000003,0.5504640000000001,-2.1642799999999998,4
2024-06-14 10:53:56.649,98.21000000000001,375.2,-15.155,0.27889200000000003,0.5526599999999999,-2.212104,4
2024-06-14 10:53:56.654,95.58500000000001,372.855,-19.845,0.315248,0.560712,-2.27042,4
2024-06-14 10:53:56.659,94.01,370.78999999999996,-24.22,0.355996,0.5660799999999999,-2.334348,4
2024-06-14 10:53:56.663,92.85499999999999,368.97,-28.979999999999997,0.407968,0.5777920000000001,-2.393152,4
2024-06-14 10:53:56.668,91.69999999999999,367.43,-34.965,0.467016,0.6041439999999999,-2.4648879999999997,4
2024-06-14 10:53:56.673,89.18,365.505,-42.7,0.538996,0.6161,-2.551264,4
2024-06-14 10:53:56.678,83.58,363.86,-52.255,0.619028,0.617076,-2.640812,4
2024-06-14 10:53:56.683,73.955,362.145,-62.894999999999996,0.70272,0.593896,-2.743292,4
2024-06-14 10:53:56.687,60.585,361.025,-73.88499999999999,0.815204,0.536068,-2.849676,4
2024-06-14 10:53:56.692,45.43,361.06,-84.245,0.9652639999999999,0.433588,-2.9506919999999996,4
2024-06-14 10:53:56.697,30.17,362.32000000000005,-93.345,1.1458240000000002,0.291092,-3.021696,4
2024-06-14 10:53:56.702,17.045,363.72,-100.38,1.3488319999999998,0.13298,-3.031456,4
2024-06-14 10:53:56.707,7.42,363.755,-104.65,1.5581839999999998,-0.035868000000000004,-2.984852,4
2024-06-14 10:53:56.712,1.8900000000000001,361.54999999999995,-105.56,1.781444,-0.194468,-2.9077479999999998,4
2024-06-14 10:53:56.716,-0.03499999999999999,356.405,-103.07499999999999,2.01544,-0.33818400000000004,-2.797704,4
2024-06-14 10:53:56.721,0.805,346.325,-98.315,2.203564,-0.432368,-2.656672,4
2024-06-14 10:53:56.726,3.5,331.1,-92.785,2.3648480000000003,-0.543144,-2.5493119999999996,4
2024-06-14 10:53:56.731,8.47,313.425,-86.59,2.5707839999999997,-0.619516,-2.4051080000000002,4
2024-06-14 10:53:56.736,18.130000000000003,293.09000000000003,-80.745,2.778672,-0.6331800000000001,-2.258464,4
2024-06-14 10:53:56.740,34.58,271.21500000000003,-76.475,2.9587440000000003,-0.574376,-2.080588,4
2024-06-14 10:53:56.745,56.769999999999996,248.29,-74.305,3.086356,-0.424072,-1.875384,4
2024-06-14 10:53:56.750,79.975,223.405,-75.03999999999999,3.1749280000000004,-0.20935199999999998,-1.650172,4
2024-06-14 10:53:56.755,98.945,197.68,-77.84,3.285216,0.040748,-1.4837639999999999,4
2024-06-14 10:53:56.760,109.9,171.36,-81.41,3.431372,0.26839999999999997,-1.403244,4
2024-06-14 10:53:56.765,107.485,143.745,-84.455,3.61364,0.46872400000000003,-1.33346,4
2024-06-14 10:53:56.769,90.65,114.485,-86.555,3.7900519999999998,0.609512,-1.25172,4
2024-06-14 10:53:56.774,64.19,84.66499999999999,-86.345,3.9164440000000003,0.6512359999999999,-1.1467999999999998,4
2024-06-14 10:53:56.779,36.82,54.879999999999995,-82.005,3.963536,0.584624,-1.068476,4
2024-06-14 10:53:56.784,-12.915000000000001,11.69,-74.305,4.518879999999999,0.367952,-1.7721719999999999,4
2024-06-14 10:53:56.789,-80.745,-87.92,-70.38499999999999,5.235996,0.976732,-2.2996999999999996,4
2024-06-14 10:53:56.793,-118.475,-114.905,-68.985,4.3127,0.719556,-0.580964,4
2024-06-14 10:53:56.797,-152.495,-166.355,-52.22,4.394928,0.08954799999999999,-0.744688,4
2024-06-14 10:53:56.802,-204.365,-255.22000000000003,-29.225,5.013956,0.012443999999999997,-1.387384,4
