time,gyroscope_x,gyroscope_y,gyroscope_z,accelerometer_x,accelerometer_y,accelerometer_z,phase
2024-06-14 11:22:19.371,252.10500000000002,-370.78999999999996,113.75,2.515152,-0.9354960000000001,-1.696776,1
2024-06-14 11:22:19.381,174.47500000000002,-350.77,106.715,-0.39991600000000005,0.2257,-0.937448,1
2024-06-14 11:22:19.391,37.8,-270.9,147.805,-0.810812,-0.24278,-1.5618439999999998,1
2024-06-14 11:22:19.400,-59.184999999999995,-307.54499999999996,163.8,0.06441599999999999,-0.37795599999999996,-1.773148,1
2024-06-14 11:22:19.410,-63.035000000000004,-310.31,139.79000000000002,0.3721,-0.75884,-1.8761160000000001,1
2024-06-14 11:22:19.420,-47.459999999999994,-289.625,73.57,0.319396,-1.049932,-2.605432,1
2024-06-14 11:22:19.429,-15.82,-211.785,-7.945,0.2379,-0.565836,-2.4094999999999995,1
2024-06-14 11:22:19.439,-4.2700000000000005,-118.54500000000002,-30.555,0.05002,0.192028,-1.629432,1
2024-06-14 11:22:19.449,-16.73,-46.2,2.87,0.031476,0.251076,-1.2734359999999998,1
2024-06-14 11:22:19.458,-17.5,-17.815,14.14,-0.04514,-0.031964000000000006,-1.091656,1
2024-06-14 11:22:19.468,-9.065,-11.235,1.75,-0.040748,-0.073444,-1.045296,1
2024-06-14 11:22:19.478,-6.895,-10.465,-4.165,0.01098,0.057828,-1.0604239999999998,2
2024-06-14 11:22:19.487,-3.08,-6.79,3.325,-0.035136,0.030011999999999997,-1.030168,2
2024-06-14 11:22:19.497,0.0,-3.6049999999999995,-1.995,-0.07075999999999999,-0.013908,-1.0226039999999998,2
2024-06-14 11:22:19.506,1.8199999999999998,-3.71,-4.27,-0.034648,-0.016835999999999997,-1.057008,2
2024-06-14 11:22:19.516,0.45499999999999996,-4.9350000000000005,-2.625,-0.088084,-0.0012199999999999993,-1.017236,2
2024-06-14 11:22:19.526,-0.10500000000000001,-7.105,-3.3600000000000003,-0.07198,-0.009516,-1.013576,2
2024-06-14 11:22:19.535,-0.245,-8.54,-3.115,-0.075396,-0.0026839999999999998,-1.01626,2
2024-06-14 11:22:19.545,-1.0150000000000001,-12.565,-3.22,-0.07808,-0.007808,-1.023336,2
2024-06-14 11:22:19.555,-1.8199999999999998,-16.87,-3.465,-0.082716,-0.007807999999999999,-1.02968,2
2024-06-14 11:22:19.564,-2.135,-20.65,-3.7800000000000002,-0.072712,-0.006344,-1.027972,2
2024-06-14 11:22:19.574,-2.065,-23.975,-3.7800000000000002,-0.061488,-0.009272,-1.023336,2
2024-06-14 11:22:19.584,-2.52,-25.025,-3.605,-0.066368,-0.010004,-1.0274839999999998,2
2024-06-14 11:22:19.593,-2.8,-27.369999999999997,-2.9050000000000002,-0.058316,-0.0024400000000000003,-1.02846,2
2024-06-14 11:22:19.603,0.105,-29.645,-2.52,-0.051972000000000004,-0.00488,-1.0216279999999998,2
2024-06-14 11:22:19.613,0.35,-28.805,-2.03,-0.045384,-0.005612,-1.0187,2
2024-06-14 11:22:19.622,0.7,-31.5,-2.205,-0.042943999999999996,0.000732,-1.022116,2
2024-06-14 11:22:19.632,1.5750000000000002,-34.125,-1.9249999999999998,-0.0366,0.0060999999999999995,-1.0189439999999998,2
2024-06-14 11:22:19.642,3.01,-34.614999999999995,-2.135,-0.03172,0.002684,-1.01992,2
2024-06-14 11:22:19.651,2.765,-39.55,-2.6950000000000003,-0.016836,-0.001464,-1.01626,2
2024-06-14 11:22:19.661,3.395,-33.95,-1.995,-0.020739999999999998,-0.0019519999999999997,-1.0084520000000001,2
2024-06-14 11:22:19.671,-3.8850000000000002,-39.864999999999995,-1.575,-0.012932,0.004880000000000001,-1.008696,2
2024-06-14 11:22:19.680,1.155,-40.32,-2.66,-0.011467999999999999,-0.009271999999999999,-1.020896,2
2024-06-14 11:22:19.690,2.765,-33.075,-2.1,-0.006588,-0.004148000000000001,-1.0201639999999998,2
2024-06-14 11:22:19.700,1.96,-32.375,-1.7850000000000001,0.00048799999999999994,-0.000732,-1.02358,2
2024-06-14 11:22:19.709,2.415,-32.83,-1.96,0.002928,-0.006344,-1.02602,2
2024-06-14 11:22:19.719,2.765,-20.825000000000003,-1.505,0.010492,-0.001708,-1.02114,2
2024-06-14 11:22:19.729,2.03,-33.635,-0.455,0.014395999999999999,-0.0019520000000000002,-1.025044,2
2024-06-14 11:22:19.738,2.17,-35.805,-0.91,0.025376,-0.000732,-1.043832,2
2024-06-14 11:22:19.748,18.41,-30.555,0.805,0.028304,-0.004148,-1.050908,2
2024-06-14 11:22:19.758,7.21,-37.099999999999994,0.0,0.030255999999999998,-0.005124,-1.045052,2
2024-06-14 11:22:19.767,2.065,-31.814999999999998,-0.385,0.034648,0.0046359999999999995,-1.0848239999999998,2
2024-06-14 11:22:19.777,-0.9450000000000001,-28.0,-0.525,0.041235999999999995,-0.015127999999999999,-1.01992,2
2024-06-14 11:22:19.787,-2.8,-29.75,-1.225,0.039527999999999994,-0.011956,-1.070672,2
2024-06-14 11:22:19.796,-5.390000000000001,-28.14,-1.05,0.042212,-0.020739999999999998,-1.043344,2
2024-06-14 11:22:19.806,-8.855,-30.485,-0.49,0.047824,-0.016836,-1.082628,2
2024-06-14 11:22:19.815,-13.86,-35.805,0.0,0.051727999999999996,-0.027327999999999998,-1.1699799999999998,2
2024-06-14 11:22:19.825,-19.634999999999998,-43.61,0.175,0.043188000000000004,-0.030987999999999998,-1.261724,2
2024-06-14 11:22:19.835,-23.905,-55.265,0.49,0.045384,-0.020008,-1.314184,2
2024-06-14 11:22:19.844,-28.174999999999997,-68.145,0.385,0.050264,-0.023424,-1.3176,2
2024-06-14 11:22:19.854,-33.18,-81.69,1.19,0.054655999999999996,-0.054167999999999994,-1.3561519999999998,2
2024-06-14 11:22:19.864,-39.06,-95.97,2.9050000000000002,0.050508,-0.061731999999999995,-1.428864,2
2024-06-14 11:22:19.873,-45.71,-117.005,4.0600000000000005,0.042456,-0.031964,-1.472296,2
2024-06-14 11:22:19.883,-51.17,-140.98000000000002,3.745,0.025132,0.010735999999999999,-1.541104,3
2024-06-14 11:22:19.893,-53.06,-171.57,2.4850000000000003,0.015128,0.034404,-1.623088,3
2024-06-14 11:22:19.902,-53.34,-207.33999999999997,1.0150000000000001,-0.015128,0.065392,-1.747284,3
2024-06-14 11:22:19.912,-50.575,-249.025,-3.08,-0.049288,0.153964,-1.879776,3
2024-06-14 11:22:19.922,-43.715,-294.21000000000004,-9.415,-0.074664,0.22228399999999998,-2.016416,3
2024-06-14 11:22:19.931,-38.815,-343.455,-17.465,-0.10613999999999998,0.22692,-2.197464,3
2024-06-14 11:22:19.941,-34.195,-400.435,-24.64,-0.18202400000000002,0.180072,-2.272616,3
2024-06-14 11:22:19.951,-37.555,-458.53499999999997,-27.825000000000003,-0.14396,0.12517199999999998,-2.534428,3
2024-06-14 11:22:19.960,-50.75,-509.46000000000004,-24.605,-0.0004880000000000006,-0.0019520000000000023,-2.9172640000000003,3
2024-06-14 11:22:19.970,-84.245,-551.7049999999999,-18.130000000000003,0.23277599999999998,-0.030987999999999998,-3.452112,3
2024-06-14 11:22:19.980,-112.0,-567.7,-14.14,0.29524,0.012444,-3.741008,3
2024-06-14 11:22:19.989,-86.59,-577.15,-22.225,0.10613999999999998,-0.012931999999999999,-3.236416,3
2024-06-14 11:22:19.999,-46.83,-575.6099999999999,-30.205,0.026596,0.19178399999999998,-2.78404,3
2024-06-14 11:22:20.009,-20.685000000000002,-543.095,-28.314999999999998,-0.317932,0.37136800000000003,-2.749148,3
2024-06-14 11:22:20.018,-40.39,-520.625,-35.56,-1.143872,0.585356,-2.749392,3
2024-06-14 11:22:20.028,-106.75,-461.51,-58.17,-2.275544,0.771528,-2.827472,3
2024-06-14 11:22:20.038,-190.015,-415.16999999999996,-117.565,-2.873588,0.574376,-1.9610279999999998,4
2024-06-14 11:22:20.047,-153.72,-382.2,-175.0,-1.73606,0.630984,0.817644,4
2024-06-14 11:22:20.057,-92.575,-88.515,-189.945,-2.236504,0.266936,-0.240584,4
2024-06-14 11:22:20.067,-65.905,151.165,-167.93,-2.0273959999999995,-0.397476,-1.092632,4
2024-06-14 11:22:20.076,15.260000000000002,277.935,-118.78999999999999,-1.770708,-0.36892800000000003,-1.757288,4
2024-06-14 11:22:20.086,69.685,319.44500000000005,-84.42,-1.35298,-0.179828,-1.246108,4
2024-06-14 11:22:20.096,74.19999999999999,317.1,-68.63499999999999,-1.09434,0.059292,-0.900848,4
2024-06-14 11:22:20.105,48.79,305.025,-61.39,-0.819596,0.182512,-0.7795799999999999,4
2024-06-14 11:22:20.115,8.504999999999999,305.865,-53.445,-0.661972,0.12956399999999998,-0.765672,4
2024-06-14 11:22:20.126,-19.915,319.445,-42.84,-0.608292,-0.013908,-0.7868999999999999,4
2024-06-14 11:22:20.135,-18.935,338.41499999999996,-30.03,-0.587552,-0.15298799999999999,-0.85644,4
2024-06-14 11:22:20.145,0.9100000000000001,356.615,-16.310000000000002,-0.5790120000000001,-0.232532,-0.960628,4
2024-06-14 11:22:20.154,20.055,372.995,-5.145,-0.578524,-0.183976,-1.03944,4
2024-06-14 11:22:20.164,25.165,390.495,-0.21000000000000002,-0.5673,-0.072224,-1.1187399999999998,4
2024-06-14 11:22:20.174,14.175,407.89,-2.205,-0.5570519999999999,0.02928,-1.1880359999999999,4
2024-06-14 11:22:20.183,-5.74,425.32,-7.49,-0.531432,0.026108,-1.202188,4
2024-06-14 11:22:20.193,-22.189999999999998,435.89,-11.9,-0.437004,0.011467999999999999,-1.3588360000000002,4
2024-06-14 11:22:20.203,-31.185000000000002,431.83,-14.665,-0.284992,-0.026840000000000003,-1.503284,4
2024-06-14 11:22:20.212,-34.545,418.6,-14.84,-0.138348,-0.01464,-1.581364,4
2024-06-14 11:22:20.222,-44.485,402.325,-14.945,0.043188000000000004,0.042212,-1.707512,4
2024-06-14 11:22:20.232,-62.614999999999995,388.115,-10.64,0.206668,0.039528,-1.834148,4
2024-06-14 11:22:20.241,-77.07,375.865,0.9449999999999998,0.300608,-0.012444,-1.968592,4
2024-06-14 11:22:20.251,-79.83500000000001,356.265,16.03,0.34306400000000004,0.002927999999999999,-2.17648,4
2024-06-14 11:22:20.261,-79.765,333.54999999999995,30.17,0.36282800000000004,0.05538800000000001,-2.41438,4
2024-06-14 11:22:20.270,-77.77,337.61,44.555,0.357216,0.0854,-2.6220239999999997,4
2024-06-14 11:22:20.280,-68.46000000000001,365.75,63.7,0.453352,0.090524,-2.7957520000000002,4
2024-06-14 11:22:20.290,-60.235,390.70500000000004,85.015,0.662704,0.10491999999999999,-2.9150679999999998,4
2024-06-14 11:22:20.299,-55.894999999999996,408.94,106.995,0.917928,0.099552,-2.901648,4
2024-06-14 11:22:20.309,-54.95,417.935,128.625,1.2902719999999999,0.10614,-2.941176,4
2024-06-14 11:22:20.318,-54.67,412.44000000000005,145.95,1.843908,0.012443999999999998,-2.975824,4
2024-06-14 11:22:20.328,-30.939999999999998,384.545,155.78500000000003,2.486848,0.131516,-3.077816,4
2024-06-14 11:22:20.338,-2.9399999999999995,360.395,153.09,2.735728,0.164456,-1.810236,4
2024-06-14 11:22:20.347,38.010000000000005,312.725,126.63,3.316448,0.8479,-2.469036,4
2024-06-14 11:22:20.357,36.96,258.37,77.385,4.049424,1.3671319999999998,-1.8856319999999998,4
2024-06-14 11:22:20.367,-25.865000000000002,204.575,17.36,4.905863999999999,1.34688,-1.6365079999999999,4
2024-06-14 11:22:20.376,-101.36,121.345,-24.92,5.198907999999999,0.5570520000000001,-1.420324,4
2024-06-14 11:22:20.386,-106.995,10.185000000000002,-29.82,4.718959999999999,-0.34843199999999996,-1.2846600000000001,4
2024-06-14 11:22:20.396,4.305,-246.715,17.080000000000002,4.758488,-1.424716,-3.1912760000000002,4
2024-06-14 11:22:20.405,138.70499999999998,-354.445,51.59,4.596228,-0.526064,-0.46603999999999995,0
