time,gyroscope_x,gyroscope_y,gyroscope_z,accelerometer_x,accelerometer_y,accelerometer_z,phase
2024-06-14 11:22:51.262,140.28,-454.055,6.614999999999998,-0.36453599999999997,-1.538664,-6.854692,1
2024-06-14 11:22:51.271,196.10500000000002,-275.695,61.775000000000006,-1.206336,0.04172399999999999,0.3215920000000001,1
2024-06-14 11:22:51.281,-22.82,-317.03,109.13,-0.294752,0.06344,-1.617232,1
2024-06-14 11:22:51.291,-69.33500000000001,-352.975,117.565,0.32500799999999996,-0.44895999999999997,-1.9515120000000001,1
2024-06-14 11:22:51.300,-51.555,-349.265,87.08,0.276208,-0.7388319999999999,-2.425848,1
2024-06-14 11:22:51.310,-43.155,-304.605,13.895,0.23326399999999997,-0.800564,-2.88164,1
2024-06-14 11:22:51.320,-5.25,-195.755,-27.615000000000002,0.15908799999999998,-0.016836000000000004,-2.0159279999999997,1
2024-06-14 11:22:51.329,-13.615,-91.10499999999999,-6.930000000000001,0.015616,0.333792,-1.3942159999999997,1
2024-06-14 11:22:51.339,-19.145,-37.24,18.34,0.013175999999999997,0.04514000000000001,-1.2016999999999998,1
2024-06-14 11:22:51.349,-10.709999999999999,-19.25,5.11,-0.058316,-0.078324,-1.071648,1
2024-06-14 11:22:51.358,-7.21,-15.925,-4.654999999999999,-0.040016,0.024156,-1.047492,1
2024-06-14 11:22:51.368,-5.5649999999999995,-10.254999999999999,1.05,-0.0026839999999999998,0.084668,-1.0384639999999998,1
2024-06-14 11:22:51.378,-1.155,-5.32,1.4,-0.055631999999999994,0.011224000000000001,-1.027484,2
2024-06-14 11:22:51.387,0.7350000000000001,-4.199999999999999,-2.415,-0.060023999999999994,0.004392,-1.037732,2
2024-06-14 11:22:51.397,1.33,-4.655,-3.045,-0.050264,-0.00244,-1.037488,2
2024-06-14 11:22:51.407,0.805,-4.865,-2.835,-0.08174000000000001,0.013663999999999999,-1.0201639999999998,2
2024-06-14 11:22:51.416,0.84,-5.949999999999999,-3.22,-0.07686,0.017324,-1.0145520000000001,2
2024-06-14 11:22:51.426,0.28,-6.65,-2.7649999999999997,-0.083204,0.008296,-1.0230920000000001,2
2024-06-14 11:22:51.436,-0.735,-11.024999999999999,-3.675,-0.092476,0.011224,-1.02602,2
2024-06-14 11:22:51.445,-1.785,-15.61,-3.885,-0.085644,0.0053679999999999995,-1.029192,2
2024-06-14 11:22:51.455,-2.52,-20.23,-4.199999999999999,-0.077592,0.008539999999999999,-1.022848,2
2024-06-14 11:22:51.465,-2.94,-23.240000000000002,-3.745,-0.078324,0.0075639999999999995,-1.024312,2
2024-06-14 11:22:51.474,-3.115,-26.494999999999997,-3.6399999999999997,-0.077348,0.007319999999999999,-1.022116,2
2024-06-14 11:22:51.484,-0.49,-28.490000000000002,-3.01,-0.070272,0.009516,-1.0201639999999998,2
2024-06-14 11:22:51.494,-0.735,-27.195,-2.73,-0.06612399999999999,0.012687999999999998,-1.017724,2
2024-06-14 11:22:51.503,-0.10499999999999998,-30.695,-2.52,-0.055632,0.019032,-1.009428,2
2024-06-14 11:22:51.513,0.21,-32.13,-2.6950000000000003,-0.048556,0.024399999999999998,-1.01016,2
2024-06-14 11:22:51.523,1.7850000000000001,-26.075,-2.8,-0.042943999999999996,0.024887999999999997,-1.0108920000000001,2
2024-06-14 11:22:51.532,2.24,-21.84,-3.01,-0.038796,0.025376,-1.01138,2
2024-06-14 11:22:51.542,2.9050000000000002,-19.075,-2.17,-0.030255999999999998,0.020007999999999998,-1.00772,2
2024-06-14 11:22:51.552,4.6899999999999995,-7.455,-3.2199999999999998,-0.025619999999999997,0.01708,-1.00528,2
2024-06-14 11:22:51.561,3.115,-15.995000000000001,-2.3449999999999998,-0.021228,0.012444,-1.006988,2
2024-06-14 11:22:51.571,2.87,-16.275,-2.415,-0.017812,0.008052,-1.011624,2
2024-06-14 11:22:51.581,7.664999999999999,2.344999999999999,-2.135,-0.020252,0.012199999999999999,-1.0145520000000001,2
2024-06-14 11:22:51.590,0.07000000000000006,-14.629999999999999,-1.12,-0.017812,0.015127999999999999,-1.02358,2
2024-06-14 11:22:51.600,1.4700000000000002,-22.19,-2.5549999999999997,-0.006344,0.002196,-1.0182120000000001,2
2024-06-14 11:22:51.610,0.77,-29.575,-2.52,-0.005124,0.020983999999999996,-1.025532,2
2024-06-14 11:22:51.619,0.9800000000000001,-35.245,-2.415,-0.002196,0.017568,-1.030412,2
2024-06-14 11:22:51.629,1.785,-33.6,-3.43,-0.003172,0.023911999999999996,-1.0372439999999998,2
2024-06-14 11:22:51.639,3.99,-38.22,-2.625,0.0031719999999999995,0.019276,-1.0409039999999998,2
2024-06-14 11:22:51.648,6.055,-41.370000000000005,-3.535,0.00854,0.020007999999999998,-1.041392,2
2024-06-14 11:22:51.658,7.49,-44.205,-2.38,0.028304,0.008296,-1.05164,2
2024-06-14 11:22:51.668,3.29,-43.75,-2.38,0.036112,0.008539999999999999,-1.0767719999999998,2
2024-06-14 11:22:51.677,6.3,-40.425,0.35,0.043432,-0.00048800000000000004,-1.1192280000000001,2
2024-06-14 11:22:51.687,-0.6649999999999998,-46.27,1.155,0.03782,-0.0053679999999999995,-1.1885240000000001,2
2024-06-14 11:22:51.697,-11.83,-40.67,0.665,0.035868,-0.0183,-1.196576,2
2024-06-14 11:22:51.706,-17.325,-45.29,0.8400000000000001,0.035379999999999995,0.002684,-1.286124,2
2024-06-14 11:22:51.716,-25.060000000000002,-55.195,0.665,0.038064,-0.030011999999999997,-1.365424,2
2024-06-14 11:22:51.726,-34.58,-69.685,0.98,0.041235999999999995,-0.03416,-1.4110520000000002,2
2024-06-14 11:22:51.735,-43.81999999999999,-86.38,1.8900000000000001,0.040260000000000004,-0.049288,-1.42862,2
2024-06-14 11:22:51.745,-50.68,-104.16,3.255,0.027327999999999998,-0.040015999999999996,-1.399096,2
2024-06-14 11:22:51.755,-56.035,-131.18,3.8150000000000004,0.010735999999999999,-0.0026839999999999998,-1.63846,2
2024-06-14 11:22:51.764,-57.995000000000005,-161.21,3.78,-0.006344,0.038552,-1.6252840000000002,2
2024-06-14 11:22:51.774,-61.18,-195.08999999999997,1.8900000000000001,-0.027327999999999998,0.05660799999999999,-1.693604,3
2024-06-14 11:22:51.784,-64.505,-235.445,-0.77,-0.04636,0.06417199999999999,-1.818288,3
2024-06-14 11:22:51.793,-68.005,-281.29499999999996,-3.3249999999999997,-0.09076799999999999,0.09686800000000001,-2.011048,3
2024-06-14 11:22:51.803,-68.35499999999999,-332.53499999999997,-8.469999999999999,-0.144692,0.219356,-2.1630599999999998,3
2024-06-14 11:22:51.813,-62.65,-391.37,-17.535,-0.218136,0.313296,-2.2972599999999996,3
2024-06-14 11:22:51.822,-63.7,-457.345,-25.27,-0.206424,0.21984399999999998,-2.606896,3
2024-06-14 11:22:51.832,-79.73,-513.94,-24.009999999999998,-0.036112000000000005,0.047091999999999995,-3.083916,3
2024-06-14 11:22:51.842,-119.91,-557.095,-19.11,0.12614799999999998,-0.04489599999999999,-3.438692,3
2024-06-14 11:22:51.851,-157.92000000000002,-576.485,-14.105,0.24644,0.004880000000000002,-3.858616,3
2024-06-14 11:22:51.861,-143.395,-586.215,-21.98,0.084424,-0.09223200000000001,-3.41722,3
2024-06-14 11:22:51.871,-100.8,-588.385,-28.945,0.005124,0.140788,-2.897744,3
2024-06-14 11:22:51.880,-92.995,-558.3199999999999,-28.91,-0.31256399999999995,0.45017999999999997,-2.84138,3
2024-06-14 11:22:51.890,-124.705,-515.165,-43.504999999999995,-1.1546079999999999,0.705892,-3.45626,3
2024-06-14 11:22:51.900,-198.765,-475.96500000000003,-80.57,-2.5354039999999998,0.740784,-3.527752,3
2024-06-14 11:22:51.909,-263.13,-399.56,-140.595,-3.288144,0.401624,-1.847324,4
2024-06-14 11:22:51.919,-205.66000000000003,-372.89,-202.72,-1.88246,0.387472,0.596824,4
2024-06-14 11:22:51.929,-110.63499999999999,-107.345,-202.265,-2.268224,0.12468399999999999,-0.504348,4
2024-06-14 11:22:51.938,-48.230000000000004,122.99,-169.33,-2.066924,-0.429196,-0.7842159999999999,4
2024-06-14 11:22:51.948,43.995000000000005,250.355,-113.82,-1.8126760000000002,-0.399428,-1.5762399999999999,4
2024-06-14 11:22:51.958,116.935,296.065,-74.13,-1.40422,-0.186416,-1.323944,4
2024-06-14 11:22:51.967,139.51,305.865,-56.489999999999995,-1.121424,0.027816,-0.9903959999999999,4
2024-06-14 11:22:51.977,122.95500000000001,304.605,-50.925,-0.8449720000000001,0.20788800000000002,-0.8320399999999999,4
2024-06-14 11:22:51.987,85.4,306.53,-49.629999999999995,-0.6666080000000001,0.23155599999999998,-0.795196,4
2024-06-14 11:22:51.996,49.42,316.4,-46.83,-0.5814520000000001,0.154208,-0.781776,4
2024-06-14 11:22:52.006,33.11,333.025,-42.245000000000005,-0.554124,0.030256,-0.821792,4
2024-06-14 11:22:52.016,37.17,350.70000000000005,-35.0,-0.5399719999999999,-0.067832,-0.94062,4
2024-06-14 11:22:52.025,48.790000000000006,369.425,-27.265,-0.537044,-0.077836,-1.032852,4
2024-06-14 11:22:52.035,53.795,390.21500000000003,-21.14,-0.5380199999999999,-0.027816,-1.102636,4
2024-06-14 11:22:52.045,47.879999999999995,412.05499999999995,-18.62,-0.5216719999999999,0.038796,-1.179008,4
2024-06-14 11:22:52.054,34.16,430.71000000000004,-19.25,-0.46677199999999996,0.083692,-1.300764,4
2024-06-14 11:22:52.064,19.564999999999998,443.38,-21.35,-0.418948,0.065636,-1.3766479999999999,4
2024-06-14 11:22:52.074,10.254999999999999,453.25,-21.525,-0.367464,0.030988,-1.42374,4
2024-06-14 11:22:52.083,2.065,456.225,-19.075,-0.254004,0.042212,-1.579412,4
2024-06-14 11:22:52.093,-8.61,448.175,-17.255000000000003,-0.120536,0.078568,-1.719468,4
2024-06-14 11:22:52.103,-21.84,431.725,-17.255000000000003,0.045627999999999995,0.15860000000000002,-1.839272,4
2024-06-14 11:22:52.112,-41.685,407.4,-18.305,0.23887600000000003,0.19641999999999998,-1.9886,4
2024-06-14 11:22:52.122,-60.269999999999996,379.47,-15.225000000000001,0.39845200000000003,0.142984,-2.1623279999999996,4
2024-06-14 11:22:52.132,-65.31,350.49,-6.93,0.428952,0.119804,-2.3636280000000003,4
2024-06-14 11:22:52.141,-72.13499999999999,329.56,2.52,0.444812,0.23131199999999996,-2.666676,4
2024-06-14 11:22:52.151,-90.055,342.3,14.455,0.500688,0.24570799999999998,-2.8728559999999996,4
2024-06-14 11:22:52.161,-94.63999999999999,371.455,37.065,0.730536,0.173484,-3.0334079999999997,4
2024-06-14 11:22:52.170,-79.765,382.83000000000004,69.19500000000001,1.0189439999999998,0.119804,-3.100264,4
2024-06-14 11:22:52.180,-66.64,385.28,103.705,1.266848,0.18056,-3.006812,4
2024-06-14 11:22:52.190,-74.47999999999999,388.045,131.25,1.6531,0.216428,-2.934832,4
2024-06-14 11:22:52.199,-83.37,386.855,148.015,2.205028,0.162504,-2.792092,4
2024-06-14 11:22:52.209,-54.285,363.82500000000005,153.125,2.681316,0.121756,-2.5437000000000003,4
2024-06-14 11:22:52.219,1.33,319.27,139.23,3.1310079999999996,0.46237999999999996,-2.1786760000000003,4
2024-06-14 11:22:52.228,32.305,269.04499999999996,98.91,3.749548,1.051152,-1.975912,4
2024-06-14 11:22:52.238,-14.315000000000001,220.77999999999997,36.015,4.581588,1.249524,-1.671888,4
2024-06-14 11:22:52.248,-83.65,153.65,-20.965,5.148643999999999,0.6788080000000001,-1.4801039999999999,4
2024-06-14 11:22:52.257,-90.405,48.65,-40.144999999999996,4.923188,-0.09076799999999999,-1.3085719999999998,4
2024-06-14 11:22:52.267,-27.159999999999997,-59.85,-37.695,4.22974,-0.602924,-1.26148,4
2024-06-14 11:22:52.277,35.945,-132.86,-23.799999999999997,3.427224,-0.363804,-1.3973879999999999,4
2024-06-14 11:22:52.286,60.165,-156.20499999999998,-24.22,2.7667159999999997,0.09735600000000001,-1.462048,4
