time,gyroscope_x,gyroscope_y,gyroscope_z,accelerometer_x,accelerometer_y,accelerometer_z,phase
2024-06-14 09:28:26.275,-93.03,-301.7,-71.4,3.2576440000000004,0.017324000000000006,-3.952312,1
2024-06-14 09:28:26.280,-109.58500000000001,-232.19,-69.86000000000001,-1.201212,0.24546400000000002,0.60634,1
2024-06-14 09:28:26.285,-193.445,-282.52,-56.7,-2.296528,-0.23912,-0.140544,1
2024-06-14 09:28:26.290,-215.04,-318.395,-40.18,-2.918972,0.11297200000000002,-1.65676,1
2024-06-14 09:28:26.294,-193.41,-312.48,-29.435000000000002,-1.2417159999999998,0.10784800000000001,-1.9215,1
2024-06-14 09:28:26.299,-177.83499999999998,-304.04499999999996,-30.625,0.34038,-0.046604,-1.6723759999999999,1
2024-06-14 09:28:26.304,-147.735,-291.935,-43.96,1.581852,-0.14200800000000002,-1.663348,1
2024-06-14 09:28:26.309,-98.0,-276.32500000000005,-61.425,1.21634,-0.13590799999999997,-1.720688,1
2024-06-14 09:28:26.314,-34.79,-269.325,-77.875,0.131272,-0.099064,-1.88734,1
2024-06-14 09:28:26.318,6.09,-269.91999999999996,-88.725,-0.6356200000000001,0.043432,-1.853912,1
2024-06-14 09:28:26.323,15.225000000000001,-262.57000000000005,-85.365,-0.39454799999999995,0.347944,-1.769488,1
2024-06-14 09:28:26.328,9.31,-256.445,-69.125,0.040016,0.5672999999999999,-1.787056,1
2024-06-14 09:28:26.333,1.4700000000000002,-255.85000000000002,-46.864999999999995,0.147864,0.6153679999999999,-1.7253239999999999,1
2024-06-14 09:28:26.338,-3.1849999999999996,-252.35,-22.925,0.040992,0.625616,-1.736548,1
2024-06-14 09:28:26.343,-10.5,-232.085,-0.8050000000000002,-0.09808800000000001,0.44652,-1.7250800000000002,1
2024-06-14 09:28:26.347,-19.04,-215.495,15.89,-0.054167999999999994,0.2318,-1.5737999999999999,1
2024-06-14 09:28:26.352,-24.045,-201.45999999999998,20.755000000000003,-0.004392,-0.095648,-1.5301239999999998,1
2024-06-14 09:28:26.357,-27.86,-178.43,9.415000000000001,0.026352000000000004,-0.35941199999999995,-1.634556,1
2024-06-14 09:28:26.362,-19.915,-151.585,-10.64,0.009516,-0.43066000000000004,-1.5025519999999999,1
2024-06-14 09:28:26.367,-12.39,-127.26,-30.1,0.048068,-0.300852,-1.4122720000000002,1
2024-06-14 09:28:26.371,-15.26,-90.30000000000001,-38.115,0.12590400000000002,0.23716799999999996,-1.46644,1
2024-06-14 09:28:26.376,-12.915,-63.14,-25.235,-0.016592,-0.062708,-1.197308,2
2024-06-14 09:28:26.381,-10.57,-49.769999999999996,-14.245000000000001,0.125172,0.117608,-1.244888,2
2024-06-14 09:28:26.386,-5.984999999999999,-36.75,-10.745000000000001,0.073932,0.05392400000000001,-1.149728,2
2024-06-14 09:28:26.391,-2.87,-31.884999999999998,-8.96,-0.012931999999999999,0.026352,-1.081652,2
2024-06-14 09:28:26.396,-2.2750000000000004,-25.445,-7.5600000000000005,-0.062464000000000006,-0.023424,-1.02236,2
2024-06-14 09:28:26.400,-2.9050000000000002,-23.66,-6.65,-0.052216,-0.028791999999999998,-1.0006439999999999,2
2024-06-14 09:28:26.405,-2.3449999999999998,-19.705,-5.705,-0.02684,-0.000732,-1.020896,2
2024-06-14 09:28:26.410,-1.1199999999999999,-14.98,-4.095,0.004392,0.034892,-1.074576,2
2024-06-14 09:28:26.415,0.35,-10.5,-3.08,-0.058804,-0.00244,-1.0065,2
2024-06-14 09:28:26.420,0.28,-12.145,-1.68,-0.017812,0.028548,-1.043588,2
2024-06-14 09:28:26.424,0.595,-13.440000000000001,-1.4,-0.04758,0.0031719999999999986,-1.02236,2
2024-06-14 09:28:26.428,0.385,-13.370000000000001,-1.645,-0.062952,-0.024888,-1.00162,2
2024-06-14 09:28:26.433,0.14,-13.09,-1.19,-0.041236,-0.01342,-1.005036,2
2024-06-14 09:28:26.438,0.245,-12.879999999999999,-1.0150000000000001,-0.027083999999999997,-0.001952,-1.006012,2
2024-06-14 09:28:26.443,0.49,-12.215,-0.8400000000000001,-0.034892,-0.010735999999999999,-1.01016,2
2024-06-14 09:28:26.448,0.315,-12.95,-0.665,-0.043432,-0.02196,-1.014308,2
2024-06-14 09:28:26.452,-0.14,-13.545,-0.35,-0.047336,-0.025863999999999998,-1.0108920000000001,2
2024-06-14 09:28:26.457,-0.5599999999999999,-14.455,-0.07,-0.04514,-0.020008,-1.009428,2
2024-06-14 09:28:26.462,-0.9099999999999999,-15.155,0.06999999999999999,-0.040748000000000006,-0.017324,-1.0079639999999999,2
2024-06-14 09:28:26.467,-1.155,-16.065,0.17500000000000002,-0.036356,-0.016347999999999998,-1.0072320000000001,2
2024-06-14 09:28:26.472,-1.33,-16.695,0.10500000000000001,-0.035868,-0.019520000000000003,-1.00528,2
2024-06-14 09:28:26.477,-1.435,-17.57,0.245,-0.041235999999999995,-0.022204,-1.007476,2
2024-06-14 09:28:26.481,-1.75,-17.43,0.35,-0.040260000000000004,-0.026108,-1.010648,2
2024-06-14 09:28:26.486,-2.345,-18.41,0.665,-0.037576,-0.022935999999999998,-1.009916,2
2024-06-14 09:28:26.491,-2.38,-19.32,0.735,-0.038796,-0.023912,-1.0065,2
2024-06-14 09:28:26.496,-2.87,-20.37,0.875,-0.02928,-0.017812,-1.0133320000000001,2
2024-06-14 09:28:26.501,-3.2199999999999998,-20.405,0.8049999999999999,-0.026595999999999998,-0.017568,-1.0079639999999999,2
2024-06-14 09:28:26.506,-2.835,-22.365000000000002,0.77,-0.030012,-0.013908,-1.0084520000000001,2
2024-06-14 09:28:26.510,-3.43,-21.525,0.735,-0.022692,-0.019276,-1.0121120000000001,2
2024-06-14 09:28:26.515,-3.605,-22.225,0.665,-0.026840000000000003,-0.018056,-1.01382,2
2024-06-14 09:28:26.520,-3.745,-24.29,0.595,-0.041479999999999996,-0.012199999999999999,-1.0126,2
2024-06-14 09:28:26.525,-5.075,-23.17,0.49,-0.025132,-0.011467999999999999,-1.014796,2
2024-06-14 09:28:26.530,-3.8150000000000004,-26.215,0.595,-0.01586,-0.011712,-1.0096720000000001,2
2024-06-14 09:28:26.535,-0.8050000000000002,-17.884999999999998,0.45500000000000007,-0.017568,-0.014152,-1.009916,2
2024-06-14 09:28:26.539,-3.71,-27.265,0.805,-0.014151999999999998,-0.008052,-1.004548,2
2024-06-14 09:28:26.544,-3.8499999999999996,-27.405,0.595,-0.01098,-0.012931999999999999,-1.009916,2
2024-06-14 09:28:26.549,-4.305,-28.525,0.56,-0.00732,-0.011956000000000001,-1.011136,2
2024-06-14 09:28:26.554,-3.08,-29.330000000000002,0.77,-0.0053679999999999995,-0.007076,-1.01016,2
2024-06-14 09:28:26.559,-3.5,-30.660000000000004,0.9450000000000001,-0.0046359999999999995,-0.005612,-1.008696,2
2024-06-14 09:28:26.564,-3.535,-32.795,0.84,0.005124,-0.0017079999999999999,-1.012844,2
2024-06-14 09:28:26.568,-3.115,-33.635,0.735,0.0039039999999999995,-0.005856,-1.01016,2
2024-06-14 09:28:26.573,-0.6649999999999999,-32.06,0.875,0.00732,-0.008052,-1.0155280000000002,2
2024-06-14 09:28:26.578,-0.14,-31.22,0.77,0.008052,-0.01586,-1.009428,2
2024-06-14 09:28:26.583,-1.085,-31.674999999999997,0.735,0.016348,-0.009271999999999999,-1.0072320000000001,2
2024-06-14 09:28:26.588,-1.8199999999999998,-33.39,0.7,0.016104,-0.018056,-1.01016,2
2024-06-14 09:28:26.592,-2.3449999999999998,-33.88,0.735,0.012444,-0.015615999999999998,-1.011136,2
2024-06-14 09:28:26.597,-3.3600000000000003,-33.285,0.665,0.025132,-0.014395999999999999,-1.0018639999999999,2
2024-06-14 09:28:26.602,-4.375,-32.48,0.63,0.025863999999999998,-0.012444,-1.0065,2
2024-06-14 09:28:26.607,-4.34,-29.12,0.35,0.024644,-0.011956,-1.006988,2
2024-06-14 09:28:26.612,-5.425,-29.015,0.735,0.02684,-0.02196,-1.004548,2
2024-06-14 09:28:26.617,-6.4399999999999995,-26.915,1.155,0.027572,-0.030011999999999997,-1.00162,2
2024-06-14 09:28:26.621,-7.734999999999999,-24.605,1.82,0.025132,-0.05245999999999999,-0.9986919999999999,2
2024-06-14 09:28:26.626,-8.96,-21.525,2.9400000000000004,0.031964,-0.049532,-0.995764,2
2024-06-14 09:28:26.631,-11.094999999999999,-19.424999999999997,3.5700000000000003,0.037087999999999996,-0.049044,-0.9921039999999999,2
2024-06-14 09:28:26.636,-13.615,-17.255000000000003,4.445,0.036356,-0.056852,-0.9962519999999999,2
2024-06-14 09:28:26.641,-16.94,-15.785,5.285,0.036844,-0.040992,-1.003572,2
2024-06-14 09:28:26.646,-21.244999999999997,-13.09,5.6,0.044407999999999996,-0.016104,-0.9969839999999999,2
2024-06-14 09:28:26.650,-25.515,-11.585,5.39,0.051239999999999994,-0.015616,-0.982588,2
2024-06-14 09:28:26.655,-28.21,-8.925,5.425000000000001,0.056852,-0.0075639999999999995,-0.9891759999999999,2
2024-06-14 09:28:26.660,-29.75,-7.14,5.74,0.048556,-0.015372,-0.993568,2
2024-06-14 09:28:26.665,-32.2,-5.984999999999999,5.74,0.04953199999999999,0.013908,-1.00284,2
2024-06-14 09:28:26.670,-31.255000000000003,-4.865,5.949999999999999,0.045872,0.016835999999999997,-1.016504,2
2024-06-14 09:28:26.675,-26.740000000000002,-3.045,6.265000000000001,0.046116000000000004,0.021716,-1.0091839999999999,2
2024-06-14 09:28:26.679,-25.445,-3.325,6.09,0.046604,0.02562,-1.0133320000000001,2
2024-06-14 09:28:26.684,-24.71,-4.795,5.81,0.048312,0.020496,-1.020652,2
2024-06-14 09:28:26.689,-25.305,-7.734999999999999,5.495,0.039284,0.027572,-1.0374880000000002,2
2024-06-14 09:28:26.694,-27.825,-11.34,5.04,0.036356,0.023668,-1.05408,2
2024-06-14 09:28:26.699,-30.939999999999998,-15.33,4.445,0.037332000000000004,0.01586,-1.055788,3
2024-06-14 09:28:26.704,-29.225,-21.0,4.76,0.030255999999999998,-0.02562,-1.053104,3
2024-06-14 09:28:26.708,-24.045,-27.369999999999997,6.965,0.034648,-0.04953199999999999,-1.0850680000000001,3
2024-06-14 09:28:26.713,-19.6,-31.884999999999998,7.455,0.033428,0.134932,-1.22854,3
2024-06-14 09:28:26.718,-17.78,-35.07,4.06,0.015127999999999999,0.15689199999999998,-1.217804,3
2024-06-14 09:28:26.723,-13.615,-41.44,2.695,0.027327999999999998,0.045872,-1.1797399999999998,3
2024-06-14 09:28:26.728,-8.785,-47.635000000000005,2.6950000000000003,0.037576,0.068564,-1.193648,3
2024-06-14 09:28:26.733,-5.495,-52.92,1.995,0.033184,0.07710399999999999,-1.19926,3
2024-06-14 09:28:26.737,-1.365,-59.22,1.085,0.02928,0.105408,-1.2392759999999998,3
2024-06-14 09:28:26.742,4.13,-66.185,-0.10499999999999998,0.033184000000000005,0.11346,-1.260016,3
2024-06-14 09:28:26.747,10.36,-73.39500000000001,-1.505,0.03172,0.12858799999999998,-1.3237,3
2024-06-14 09:28:26.752,15.959999999999999,-81.27,-2.485,0.024399999999999998,0.082716,-1.3607879999999999,3
2024-06-14 09:28:26.757,20.335,-90.65,-2.59,0.018056,0.04074799999999999,-1.421544,3
2024-06-14 09:28:26.761,23.345,-101.00999999999999,-2.275,0.018788,0.022448000000000003,-1.4330120000000002,3
2024-06-14 09:28:26.766,24.71,-111.09,-2.0300000000000002,0.013175999999999998,0.066124,-1.508896,3
2024-06-14 09:28:26.771,22.61,-120.89,-2.17,0.026108,-0.005612000000000001,-1.464976,3
2024-06-14 09:28:26.776,29.61,-129.29000000000002,-0.63,0.015372,0.019763999999999997,-1.506212,3
2024-06-14 09:28:26.781,30.87,-139.64999999999998,-1.0150000000000001,0.015372,0.084912,-1.4752239999999999,3
2024-06-14 09:28:26.786,31.99,-149.73000000000002,-1.8199999999999998,0.02562,0.09564800000000001,-1.463268,3
2024-06-14 09:28:26.790,35.875,-159.635,-2.485,0.032696,0.09028,-1.460096,3
2024-06-14 09:28:26.795,41.09,-168.28,-3.01,0.035136,0.089304,-1.4583879999999998,3
2024-06-14 09:28:26.800,47.425,-177.10000000000002,-3.255,0.034648,0.07442,-1.4793720000000001,3
2024-06-14 09:28:26.805,52.955,-187.565,-3.115,0.020496,0.076128,-1.5020639999999998,3
2024-06-14 09:28:26.810,57.959999999999994,-199.36,-2.835,0.016835999999999997,0.054167999999999994,-1.535248,3
2024-06-14 09:28:26.815,60.865,-212.31,-2.1,0.010003999999999999,0.037087999999999996,-1.585512,3
2024-06-14 09:28:26.819,62.79,-227.115,-0.9450000000000001,-0.008784,-0.016836,-1.618696,3
2024-06-14 09:28:26.824,63.735,-243.74,1.54,-0.012932,-0.08296,-1.6494399999999998,3
2024-06-14 09:28:26.829,62.615,-257.915,5.46,-0.024156,-0.12736799999999998,-1.716052,3
2024-06-14 09:28:26.834,64.225,-277.9,9.24,-0.043432,-0.101992,-1.814628,3
2024-06-14 09:28:26.839,64.785,-299.46000000000004,12.81,-0.059536,-0.102724,-1.89344,3
2024-06-14 09:28:26.844,63.980000000000004,-322.595,16.87,-0.077104,-0.173484,-1.9339439999999999,3
2024-06-14 09:28:26.848,63.07,-347.34000000000003,22.47,-0.11687600000000001,-0.26791200000000004,-1.9232079999999998,3
2024-06-14 09:28:26.853,61.075,-373.87,29.855,-0.167628,-0.36770800000000003,-1.891976,3
2024-06-14 09:28:26.858,60.83,-403.27,37.94,-0.080276,-0.274256,-1.962492,3
2024-06-14 09:28:26.863,59.22,-429.87,44.379999999999995,-0.037332000000000004,-0.22765200000000002,-2.060824,3
2024-06-14 09:28:26.868,59.045,-455.77,47.985,0.020007999999999998,-0.019764,-2.248216,3
2024-06-14 09:28:26.873,61.32,-485.24,45.08,0.074664,0.214964,-2.580788,3
2024-06-14 09:28:26.877,50.4,-500.78,35.49,0.252784,0.37917599999999996,-2.8726119999999997,3
2024-06-14 09:28:26.882,40.635000000000005,-519.645,22.119999999999997,0.25986,0.39039999999999997,-3.045364,3
2024-06-14 09:28:26.887,32.269999999999996,-516.46,10.36,0.240828,0.20349599999999998,-2.82918,3
2024-06-14 09:28:26.892,25.165,-521.4649999999999,2.135,0.37088,0.149084,-2.790628,3
2024-06-14 09:28:26.897,28.174999999999997,-515.515,-8.61,0.500444,0.09174399999999999,-3.0565879999999996,3
2024-06-14 09:28:26.901,34.895,-508.865,-14.7,0.47482399999999997,0.011711999999999997,-2.925804,3
2024-06-14 09:28:26.906,38.92,-502.005,-13.335,0.228384,-0.081984,-2.7630559999999997,3
2024-06-14 09:28:26.911,37.03,-495.53,-9.59,0.150548,-0.07368799999999999,-2.7298720000000003,3
2024-06-14 09:28:26.916,28.490000000000002,-496.125,-8.54,0.130052,-0.02684,-2.5720039999999997,3
2024-06-14 09:28:26.921,30.17,-501.13,-1.365,0.013420000000000001,0.015860000000000003,-2.45098,3
2024-06-14 09:28:26.926,14.77,-496.23,3.85,0.123708,0.06856400000000001,-2.766716,3
2024-06-14 09:28:26.930,-10.675,-484.96,-1.54,0.192516,-0.09881999999999999,-2.745488,3
2024-06-14 09:28:26.935,-17.78,-471.31,-4.199999999999999,-0.06661199999999999,-0.308172,-2.594452,3
2024-06-14 09:28:26.940,-15.68,-445.27,-3.5,-0.508008,-0.543632,-2.3924199999999995,4
2024-06-14 09:28:26.945,-4.095,-402.57000000000005,0.20999999999999996,-0.959652,-0.627568,-2.1110879999999996,4
2024-06-14 09:28:26.950,15.75,-350.90999999999997,7.279999999999999,-1.4547279999999998,-0.6587999999999999,-1.722152,4
2024-06-14 09:28:26.955,36.61,-296.79999999999995,16.240000000000002,-1.883924,-0.589504,-1.301008,4
2024-06-14 09:28:26.959,55.230000000000004,-245.7,39.480000000000004,-1.9659079999999998,-0.470676,-1.156072,4
2024-06-14 09:28:26.964,63.385,-210.28,68.32,-1.250012,-0.6536759999999999,-0.903044,4
2024-06-14 09:28:26.969,34.475,-212.87,78.47,-0.7378560000000001,-0.50264,-0.840336,4
2024-06-14 09:28:26.971,17.395000000000003,-141.925,83.685,-1.2697759999999998,-0.221308,-1.653344,4
2024-06-14 09:28:26.976,11.095,-45.464999999999996,83.685,-1.678476,0.032208,-1.439844,4
2024-06-14 09:28:26.981,-14.559999999999999,12.530000000000001,78.645,-1.463512,0.16372399999999998,-1.026508,4
2024-06-14 09:28:26.985,-59.43000000000001,52.43,70.0,-1.2602600000000002,0.14151999999999998,-1.1204479999999999,4
2024-06-14 09:28:26.990,-99.64500000000001,87.00999999999999,61.985,-1.161196,0.043188000000000004,-1.2456200000000002,4
2024-06-14 09:28:26.995,-121.275,108.78,57.89,-1.070916,-0.09198799999999999,-1.212192,4
2024-06-14 09:28:27.000,-125.195,122.08,58.485,-0.9999119999999999,-0.22594399999999998,-1.089216,4
2024-06-14 09:28:27.005,-117.845,133.035,61.81,-0.970388,-0.338916,-0.9516,4
2024-06-14 09:28:27.010,-103.74000000000001,143.255,66.43,-0.948184,-0.413336,-0.8227679999999999,4
2024-06-14 09:28:27.015,-84.77000000000001,153.685,71.785,-0.9281759999999999,-0.428464,-0.7237039999999999,4
2024-06-14 09:28:27.019,-64.96000000000001,165.26999999999998,76.685,-0.896212,-0.393816,-0.651724,4
2024-06-14 09:28:27.024,-48.019999999999996,178.535,79.72999999999999,-0.8723000000000001,-0.32012799999999997,-0.595116,4
2024-06-14 09:28:27.029,-36.61,192.08,80.745,-0.845216,-0.234972,-0.5529040000000001,4
2024-06-14 09:28:27.034,-30.73,205.905,79.38,-0.820816,-0.15006000000000003,-0.527528,4
2024-06-14 09:28:27.039,-29.575,219.625,75.70500000000001,-0.790316,-0.07686,-0.5126439999999999,4
2024-06-14 09:28:27.044,-31.36,232.995,70.455,-0.755424,-0.025619999999999997,-0.507764,4
2024-06-14 09:28:27.049,-34.510000000000005,245.42000000000002,64.085,-0.719068,-0.003172,-0.51362,4
2024-06-14 09:28:27.053,-37.66,257.425,57.19,-0.6890559999999999,0.005856,-0.5309440000000001,4
2024-06-14 09:28:27.058,-40.144999999999996,268.695,50.224999999999994,-0.652212,0.006588,-0.5553440000000001,4
2024-06-14 09:28:27.063,-42.14,279.965,43.12,-0.6153679999999999,-0.001952,-0.5741320000000001,4
2024-06-14 09:28:27.068,-43.47,290.64,36.47,-0.588528,-0.025376,-0.60146,4
2024-06-14 09:28:27.073,-42.875,301.245,30.87,-0.5660799999999999,-0.058316,-0.6319600000000001,4
2024-06-14 09:28:27.078,-40.11,311.78,26.6,-0.5404599999999999,-0.08784,-0.658312,4
2024-06-14 09:28:27.083,-36.68,321.54499999999996,23.310000000000002,-0.510448,-0.11516799999999999,-0.69662,4
2024-06-14 09:28:27.087,-32.095,330.365,20.965,-0.481656,-0.140056,-0.737368,4
2024-06-14 09:28:27.092,-26.425,338.03,19.32,-0.449204,-0.155916,-0.7847040000000001,4
2024-06-14 09:28:27.097,-20.475,344.365,18.235,-0.420168,-0.164212,-0.8283799999999999,4
2024-06-14 09:28:27.102,-14.735,350.07,17.045,-0.4026,-0.16250399999999998,-0.876692,4
2024-06-14 09:28:27.107,-9.24,355.11,15.959999999999999,-0.37429599999999996,-0.154208,-0.915732,4
2024-06-14 09:28:27.112,-4.445,359.79999999999995,14.805,-0.362584,-0.144204,-0.9701439999999999,4
2024-06-14 09:28:27.117,-1.7850000000000001,363.79,13.754999999999999,-0.26718,-0.09345200000000001,-1.01504,4
2024-06-14 09:28:27.121,-2.45,366.03,12.215,-0.29865600000000003,-0.07295600000000001,-1.037732,4
2024-06-14 09:28:27.126,2.52,372.925,11.9,-0.33305999999999997,-0.139568,-1.1287439999999997,4
2024-06-14 09:28:27.131,6.615,379.365,12.18,-0.318664,-0.144204,-1.180472,4
2024-06-14 09:28:27.136,11.934999999999999,386.155,12.879999999999999,-0.304756,-0.141032,-1.264896,4
2024-06-14 09:28:27.141,17.08,392.35,13.895,-0.293288,-0.154696,-1.305888,4
2024-06-14 09:28:27.146,21.490000000000002,397.46000000000004,15.225,-0.260104,-0.153476,-1.3827479999999999,4
2024-06-14 09:28:27.151,26.25,401.03,17.64,-0.237412,-0.16250399999999998,-1.4574119999999997,4
2024-06-14 09:28:27.155,32.305,403.76,20.965,-0.221796,-0.16738399999999998,-1.541836,4
2024-06-14 09:28:27.160,37.485,405.93,24.465,-0.193492,-0.14639999999999997,-1.6079599999999998,4
2024-06-14 09:28:27.165,41.79,408.1,27.755000000000003,-0.169824,-0.124196,-1.667252,4
2024-06-14 09:28:27.170,43.61,409.64,30.415,-0.15054800000000002,-0.10711599999999999,-1.734108,4
2024-06-14 09:28:27.175,46.375,411.21500000000003,33.32,-0.140544,-0.09759999999999999,-1.812188,4
2024-06-14 09:28:27.180,47.88,412.825,35.595,-0.12370800000000001,-0.083204,-1.8849,4
2024-06-14 09:28:27.185,48.965,413.98,37.31,-0.11760799999999999,-0.08052,-1.9705439999999999,4
2024-06-14 09:28:27.189,49.875,414.855,38.675,-0.111508,-0.07442,-2.05692,4
2024-06-14 09:28:27.194,51.485,415.765,39.69,-0.10614000000000001,-0.086864,-2.164768,4
2024-06-14 09:28:27.199,54.599999999999994,416.745,40.74,-0.097356,-0.096136,-2.290184,4
2024-06-14 09:28:27.204,58.8,418.005,42.175,-0.08393600000000001,-0.099064,-2.41682,4
2024-06-14 09:28:27.209,64.12,419.51,43.89,-0.058072,-0.103212,-2.540528,4
2024-06-14 09:28:27.214,70.38499999999999,421.4,45.71,-0.006832,-0.10369999999999999,-2.662772,4
2024-06-14 09:28:27.219,77.21,422.485,47.25,0.076616,-0.09540399999999999,-2.7916039999999995,4
2024-06-14 09:28:27.223,85.05,422.38,48.19499999999999,0.181292,-0.07563999999999999,-2.916532,4
2024-06-14 09:28:27.228,93.83500000000001,420.49,47.845,0.30158399999999996,-0.047336,-3.01828,4
2024-06-14 09:28:27.233,102.935,417.27,46.129999999999995,0.43724799999999997,-0.0009759999999999994,-3.1183199999999998,4
2024-06-14 09:28:27.238,110.32,412.545,42.525,0.575352,0.054411999999999995,-3.2183599999999997,4
2024-06-14 09:28:27.243,115.32499999999999,407.12,36.82,0.7249239999999999,0.12248799999999999,-3.318156,4
2024-06-14 09:28:27.248,117.985,401.45,29.61,0.8744959999999999,0.196664,-3.401848,4
2024-06-14 09:28:27.252,117.53,395.99,21.0,1.029924,0.267424,-3.464556,4
2024-06-14 09:28:27.257,114.555,390.95,11.06,1.207068,0.316956,-3.50872,4
2024-06-14 09:28:27.262,110.32,386.155,0.385,1.4295959999999999,0.34672400000000003,-3.5338519999999995,4
2024-06-14 09:28:27.267,104.82499999999999,380.625,-10.780000000000001,1.7040959999999998,0.335256,-3.5289719999999996,4
2024-06-14 09:28:27.272,98.77000000000001,373.205,-21.84,2.0378879999999997,0.298412,-3.474072,4
2024-06-14 09:28:27.277,91.595,362.28499999999997,-32.515,2.421456,0.224236,-3.3610999999999995,4
2024-06-14 09:28:27.282,82.46000000000001,345.94,-43.015,2.806244,0.133956,-3.159068,4
2024-06-14 09:28:27.286,72.31,324.345,-51.52,3.184932,-0.005611999999999999,-2.8894480000000002,4
2024-06-14 09:28:27.291,63.28,296.135,-55.965,3.536536,-0.197884,-2.5717600000000003,4
2024-06-14 09:28:27.296,61.215,264.18,-53.83,3.838852,-0.39235200000000003,-2.292624,4
2024-06-14 09:28:27.301,73.745,231.77,-42.945,4.108472,-0.518744,-2.045208,4
2024-06-14 09:28:27.306,103.18,202.93,-24.465,4.39078,-0.49214800000000003,-1.824876,4
2024-06-14 09:28:27.311,141.54000000000002,176.54000000000002,-4.375,4.595008,-0.305732,-1.6643240000000001,4
2024-06-14 09:28:27.316,173.6,149.415,11.059999999999999,4.737016,0.14200799999999997,-1.586244,4
2024-06-14 09:28:27.320,191.38,121.555,16.905,4.931484,0.7090639999999999,-1.572092,4
2024-06-14 09:28:27.325,185.85,90.755,10.709999999999999,5.057632,1.258796,-1.5786799999999999,4
2024-06-14 09:28:27.330,153.54500000000002,54.355000000000004,-6.37,5.063732,1.6850640000000001,-1.564284,4
2024-06-14 09:28:27.335,102.16499999999999,12.424999999999999,-30.275,4.941488,1.8773360000000001,-1.535736,4
2024-06-14 09:28:27.340,45.114999999999995,-31.535000000000004,-55.44,4.71042,1.7941319999999998,-1.5572080000000001,4
2024-06-14 09:28:27.345,-3.675,-72.275,-76.895,4.345151999999999,1.4764439999999999,-1.564772,4
2024-06-14 09:28:27.350,-36.575,-108.11500000000001,-92.12,3.9471879999999997,1.0972680000000001,-1.632604,4
2024-06-14 09:28:27.354,-49.28,-132.615,-100.065,3.485296,0.690764,-1.6079599999999998,4
2024-06-14 09:28:27.359,-48.334999999999994,-149.17,-102.19999999999999,3.027552,0.355752,-1.606984,4
2024-06-14 09:28:27.364,-101.04499999999999,-233.24,-79.52000000000001,0.812276,-1.4552159999999998,-4.438359999999999,4
2024-06-14 09:28:27.369,14.945,-207.515,-40.39,-2.447564,-0.020496000000000014,-1.554036,0
2024-06-14 09:28:27.374,-56.805,-125.895,-50.365,-5.254784,-0.411872,1.6894559999999998,0
