time,gyroscope_x,gyroscope_y,gyroscope_z,accelerometer_x,accelerometer_y,accelerometer_z,phase
2024-06-14 09:28:26.877,43.925,-413.105,26.95,0.9240280000000001,1.4813239999999999,-6.794912,1
2024-06-14 09:28:26.882,52.29,-184.8,3.08,-2.6208039999999997,-0.7227279999999999,0.205204,1
2024-06-14 09:28:26.886,118.055,-151.2,5.215,-3.8061559999999997,0.11614400000000001,0.027083999999999997,1
2024-06-14 09:28:26.891,147.385,-257.53,-13.055,-2.5937200000000002,-0.23155599999999998,-1.149484,1
2024-06-14 09:28:26.896,169.12,-284.795,-22.995,-0.453596,-0.27669599999999994,-1.6443159999999999,1
2024-06-14 09:28:26.901,164.15,-297.28999999999996,-26.494999999999997,1.066524,0.06539199999999999,-1.611132,1
2024-06-14 09:28:26.906,159.11,-309.19,-21.035,1.625528,0.23521599999999998,-1.226832,1
2024-06-14 09:28:26.911,120.53999999999999,-308.945,-10.01,0.7668919999999999,0.090036,-1.526708,1
2024-06-14 09:28:26.915,65.345,-280.7,5.8100000000000005,-0.244732,0.120292,-1.8422,1
2024-06-14 09:28:26.920,30.589999999999996,-256.27,17.115000000000002,-0.49556399999999995,0.065636,-1.813408,1
2024-06-14 09:28:26.925,23.905,-244.09,14.595,-0.12444,-0.12736799999999998,-1.747284,1
2024-06-14 09:28:26.930,34.055,-243.35500000000002,3.745,0.20007999999999998,-0.26278799999999997,-1.734108,1
2024-06-14 09:28:26.935,36.61,-248.22,-5.495,0.149084,-0.168116,-1.634556,1
2024-06-14 09:28:26.939,30.765,-242.13,-9.03,0.011712,-0.13102799999999998,-1.7516759999999998,1
2024-06-14 09:28:26.944,19.215000000000003,-216.16,-10.254999999999999,-0.030500000000000003,-0.06758800000000001,-1.863184,1
2024-06-14 09:28:26.949,25.41,-193.02499999999998,-11.445,0.03781999999999999,0.014152,-1.70068,1
2024-06-14 09:28:26.954,33.635000000000005,-170.135,-10.395,0.078324,0.12858799999999998,-1.772904,1
2024-06-14 09:28:26.959,36.540000000000006,-138.005,-0.6299999999999999,0.054168,0.190564,-1.593076,1
2024-06-14 09:28:26.963,31.78,-106.08500000000001,12.355,0.061244,0.23253200000000002,-1.471808,1
2024-06-14 09:28:26.968,26.67,-72.48500000000001,18.095,0.024399999999999998,-0.08759600000000001,-1.322724,1
2024-06-14 09:28:26.973,19.285,-57.540000000000006,16.625,0.013663999999999999,0.17324,-1.158756,2
2024-06-14 09:28:26.978,14.945,-50.015,16.73,0.099064,0.044407999999999996,-1.202676,2
2024-06-14 09:28:26.983,10.92,-42.385,17.22,0.042943999999999996,-0.06295200000000001,-1.145336,2
2024-06-14 09:28:26.987,7.805,-33.495,13.195,-0.03172,-0.052947999999999995,-1.0738439999999998,2
2024-06-14 09:28:26.992,6.615,-26.075,8.54,-0.04636,-0.018056,-1.036024,2
2024-06-14 09:28:26.997,5.32,-19.075000000000003,6.055,-0.015127999999999999,0.008296,-1.039684,2
2024-06-14 09:28:27.002,3.64,-13.44,5.32,-0.013175999999999997,0.009271999999999999,-1.044564,2
2024-06-14 09:28:27.007,3.01,-11.094999999999999,5.285,-0.024644,0.016592000000000003,-1.0409039999999998,2
2024-06-14 09:28:27.012,2.415,-10.465,4.795,-0.03952800000000001,0.009271999999999999,-1.03212,2
2024-06-14 09:28:27.016,2.17,-9.1,3.57,-0.025132,0.034648,-1.035536,2
2024-06-14 09:28:27.021,0.56,-3.71,3.08,-0.034159999999999996,0.026352,-1.027972,2
2024-06-14 09:28:27.026,0.0,-2.205,2.6950000000000003,-0.042943999999999996,0.004391999999999999,-1.01504,2
2024-06-14 09:28:27.031,-0.595,-2.5549999999999997,2.485,-0.047091999999999995,0.0046359999999999995,-1.014796,2
2024-06-14 09:28:27.036,-0.98,-3.325,1.9249999999999998,-0.05856,0.011224,-1.0047920000000001,2
2024-06-14 09:28:27.040,-0.7350000000000001,-4.9,0.875,-0.050752,0.0061,-1.0126,2
2024-06-14 09:28:27.045,-0.875,-6.86,0.49,-0.053924,0.014395999999999999,-1.0165039999999999,2
2024-06-14 09:28:27.050,-0.63,-8.96,0.49,-0.05856,0.024888,-1.0096720000000001,2
2024-06-14 09:28:27.055,-0.17500000000000002,-10.5,0.10500000000000001,-0.054655999999999996,0.016835999999999997,-1.009916,2
2024-06-14 09:28:27.060,0.175,-11.375,-0.28,-0.053924,0.020252,-1.0055239999999999,2
2024-06-14 09:28:27.064,0.5599999999999999,-11.795,-0.595,-0.0549,0.025619999999999997,-1.00284,2
2024-06-14 09:28:27.069,1.0150000000000001,-12.11,-0.84,-0.054412,0.028547999999999997,-1.0018639999999999,2
2024-06-14 09:28:27.074,1.225,-12.53,-0.7,-0.05124,0.028304,-0.9994240000000001,2
2024-06-14 09:28:27.079,1.26,-13.055,-0.77,-0.04953199999999999,0.026108,-1.003816,2
2024-06-14 09:28:27.084,1.085,-14.875,-0.9450000000000001,-0.04758,0.022935999999999998,-1.004792,2
2024-06-14 09:28:27.086,1.05,-14.7,-0.7,-0.046604,0.027083999999999997,-1.0043039999999999,2
2024-06-14 09:28:27.090,1.085,-17.255,-0.8049999999999999,-0.048311999999999994,0.021716,-1.0018639999999999,2
2024-06-14 09:28:27.095,0.9450000000000001,-18.025,-1.0150000000000001,-0.048311999999999994,0.023668,-1.004548,2
2024-06-14 09:28:27.100,0.98,-19.285,-0.98,-0.047336,0.022203999999999998,-1.0104039999999999,2
2024-06-14 09:28:27.105,1.155,-21.07,-1.12,-0.048068,0.021471999999999998,-1.010648,2
2024-06-14 09:28:27.110,1.33,-22.435,-1.225,-0.046116000000000004,0.026596,-1.0128439999999999,2
2024-06-14 09:28:27.115,1.75,-23.31,-1.155,-0.040992,0.033916,-1.0043039999999999,2
2024-06-14 09:28:27.119,1.8900000000000001,-25.41,-1.26,-0.037576,0.02928,-1.013088,2
2024-06-14 09:28:27.124,2.4850000000000003,-26.285,-1.365,-0.033428,0.034159999999999996,-1.01016,2
2024-06-14 09:28:27.129,2.87,-26.424999999999997,-1.435,-0.032208,0.032208,-1.0084520000000001,2
2024-06-14 09:28:27.134,2.66,-25.2,-1.75,-0.032208,0.028791999999999998,-1.0043039999999999,2
2024-06-14 09:28:27.139,3.2199999999999998,-26.494999999999997,-1.6800000000000002,-0.02806,0.032451999999999995,-1.002352,2
2024-06-14 09:28:27.144,3.8150000000000004,-26.67,-1.995,-0.024399999999999998,0.034648,-1.005036,2
2024-06-14 09:28:27.148,3.92,-27.3,-2.31,-0.02562,0.029524,-1.01016,2
2024-06-14 09:28:27.153,4.515000000000001,-27.825,-2.38,-0.02318,0.032208,-1.009428,2
2024-06-14 09:28:27.158,4.515000000000001,-28.035,-2.4850000000000003,-0.023668,0.031964,-1.0116239999999999,2
2024-06-14 09:28:27.163,5.425000000000001,-29.82,-2.66,-0.011712,0.029524,-1.0128439999999999,2
2024-06-14 09:28:27.168,5.74,-30.064999999999998,-2.7649999999999997,-0.011712,0.027572,-1.00528,2
2024-06-14 09:28:27.173,7.385,-30.345,-2.73,-0.012931999999999999,0.030988,-1.008696,2
2024-06-14 09:28:27.177,5.985,-52.605,-1.5750000000000002,-0.011956,0.029036,-1.000156,2
2024-06-14 09:28:27.182,10.885000000000002,-30.52,-2.065,-0.006588,0.022935999999999998,-1.00894,2
2024-06-14 09:28:27.187,11.094999999999999,-29.049999999999997,-2.52,-0.0039040000000000004,0.019763999999999997,-1.00772,2
2024-06-14 09:28:27.192,11.305,-27.615000000000002,-2.87,0.002928,0.022204,-0.997228,2
2024-06-14 09:28:27.197,12.145,-25.165,-2.45,0.007076000000000001,0.026596,-0.9903959999999999,2
2024-06-14 09:28:27.202,11.76,-24.674999999999997,-2.3449999999999998,0.00488,0.026595999999999998,-0.9933239999999999,2
2024-06-14 09:28:27.206,13.370000000000001,-22.995,-2.52,0.010248,0.028548,-0.9950319999999999,2
2024-06-14 09:28:27.211,13.58,-21.77,-3.2199999999999998,0.010248,0.034159999999999996,-0.9952759999999999,2
2024-06-14 09:28:27.216,15.155000000000001,-21.384999999999998,-3.64,0.015128,0.02928,-1.0057680000000002,2
2024-06-14 09:28:27.221,16.03,-21.14,-3.85,0.0060999999999999995,0.027572,-1.00772,2
2024-06-14 09:28:27.226,17.08,-22.365000000000002,-3.955,0.014396000000000003,0.023668,-1.015772,2
2024-06-14 09:28:27.231,18.97,-24.36,-4.0600000000000005,0.012931999999999999,0.020007999999999998,-1.020896,2
2024-06-14 09:28:27.235,19.845,-25.865000000000002,-4.375,0.018056,0.021471999999999998,-1.013576,2
2024-06-14 09:28:27.240,20.09,-27.685,-4.2,0.021228,0.008052,-1.0130879999999998,2
2024-06-14 09:28:27.245,19.39,-30.205,-3.99,0.02928,-0.003172,-1.0155279999999998,2
2024-06-14 09:28:27.250,19.075,-32.34,-3.57,0.023668,-0.012931999999999999,-1.0265079999999998,2
2024-06-14 09:28:27.255,18.27,-35.56,-3.5,0.028059999999999998,-0.005855999999999999,-1.022848,2
2024-06-14 09:28:27.260,17.009999999999998,-38.92,-3.29,0.030012,-0.01586,-1.037,2
2024-06-14 09:28:27.264,15.33,-42.595,-3.045,0.035624,-0.012443999999999998,-1.043344,2
2024-06-14 09:28:27.269,12.46,-45.675,-2.87,0.027083999999999997,-0.022448,-1.076284,2
2024-06-14 09:28:27.274,7.77,-47.635,-2.835,0.0183,-0.032940000000000004,-1.1385039999999997,2
2024-06-14 09:28:27.279,3.255,-51.45,-3.1500000000000004,0.025131999999999998,-0.018788,-1.126792,2
2024-06-14 09:28:27.284,0.035,-54.985,-2.94,0.029768,-0.040015999999999996,-1.156316,2
2024-06-14 09:28:27.289,-1.8900000000000001,-59.745000000000005,-2.7649999999999997,0.029524,0.003415999999999999,-1.147532,2
2024-06-14 09:28:27.293,-4.375,-65.17,-3.535,0.032208,0.019764,-1.147532,2
2024-06-14 09:28:27.298,-5.775,-70.77000000000001,-4.2,0.036356,0.014152,-1.165832,2
2024-06-14 09:28:27.303,-6.72,-76.02,-4.34,0.042456,-0.0060999999999999995,-1.1892559999999999,2
2024-06-14 09:28:27.308,-7.035,-80.43,-3.955,0.043676,-0.025132,-1.206824,2
2024-06-14 09:28:27.313,-8.19,-84.56,-3.8149999999999995,0.059048,0.0012200000000000002,-1.21024,2
2024-06-14 09:28:27.318,-11.025,-88.095,-3.955,0.067832,-0.022204,-1.208532,2
2024-06-14 09:28:27.323,-12.775,-91.49000000000001,-3.3949999999999996,0.074176,-0.064416,-1.2282959999999998,2
2024-06-14 09:28:27.327,-13.615,-93.695,-1.8900000000000001,0.07319999999999999,-0.064416,-1.2380559999999998,2
2024-06-14 09:28:27.332,-15.505,-97.755,-0.735,0.0793,-0.051239999999999994,-1.260504,2
2024-06-14 09:28:27.337,-17.884999999999998,-102.655,0.28,0.081984,-0.045384,-1.2761200000000001,2
2024-06-14 09:28:27.342,-20.265,-108.15,0.875,0.091744,-0.035379999999999995,-1.31272,2
2024-06-14 09:28:27.347,-22.259999999999998,-114.205,1.575,0.086864,-0.02196,-1.352736,3
2024-06-14 09:28:27.352,-23.345,-121.13499999999999,1.995,0.08979200000000001,-0.012688,-1.357372,3
2024-06-14 09:28:27.356,-24.465,-129.71,2.38,0.08979200000000001,-0.019032,-1.3524919999999998,3
2024-06-14 09:28:27.361,-27.09,-134.4,3.045,0.09881999999999999,-0.035868,-1.352004,3
2024-06-14 09:28:27.366,-28.384999999999998,-140.245,3.9899999999999998,0.10345599999999999,-0.051972000000000004,-1.378112,3
2024-06-14 09:28:27.371,-30.345,-146.72,5.6,0.099796,-0.05197199999999999,-1.3725,3
2024-06-14 09:28:27.376,-30.275,-157.92000000000002,5.390000000000001,0.100284,-0.042456,-1.3778679999999999,3
2024-06-14 09:28:27.381,-32.480000000000004,-160.615,6.125,0.10931199999999999,-0.071492,-1.3742079999999999,3
2024-06-14 09:28:27.385,-32.69,-169.12,7.42,0.11199599999999998,-0.04392,-1.384944,3
2024-06-14 09:28:27.390,-34.685,-177.695,8.085,0.11834,-0.033184,-1.41398,3
2024-06-14 09:28:27.395,-35.84,-186.79500000000002,8.155,0.11907200000000001,-0.017324,-1.45302,3
2024-06-14 09:28:27.400,-38.92,-197.47,7.665,0.112728,0.031476,-1.485716,3
2024-06-14 09:28:27.405,-40.915,-210.525,6.37,0.11102,0.07808,-1.519388,3
2024-06-14 09:28:27.410,-39.34,-224.20999999999998,4.235,0.096868,0.128832,-1.540128,3
2024-06-14 09:28:27.414,-38.36,-239.575,1.19,0.094428,0.17446,-1.5628199999999999,3
2024-06-14 09:28:27.419,-35.455,-255.29000000000002,-2.415,0.078324,0.20105599999999998,-1.576972,3
2024-06-14 09:28:27.424,-33.285,-270.48,-6.3,0.07686,0.199836,-1.591612,3
2024-06-14 09:28:27.429,-30.415,-287.0,-10.219999999999999,0.06490399999999999,0.198372,-1.6384600000000002,3
2024-06-14 09:28:27.434,-34.195,-300.05499999999995,-14.07,0.073932,0.11101999999999998,-1.740208,3
2024-06-14 09:28:27.439,-31.255000000000003,-321.3,-14.77,0.104188,0.020252,-1.919304,3
2024-06-14 09:28:27.443,-29.575,-344.435,-15.19,0.12346399999999999,0.08052,-2.0120240000000003,3
2024-06-14 09:28:27.448,-27.965,-367.185,-16.905,0.121268,0.117364,-2.0700959999999995,3
2024-06-14 09:28:27.453,-20.16,-388.01,-18.375,0.219356,0.10736,-2.068632,3
2024-06-14 09:28:27.458,-11.059999999999999,-405.09000000000003,-18.34,0.273036,0.14957199999999998,-2.157204,3
2024-06-14 09:28:27.463,-1.015,-421.71500000000003,-16.065,0.357704,0.11053199999999999,-2.291892,3
2024-06-14 09:28:27.468,-5.984999999999999,-421.365,-12.11,0.44896,-0.05099599999999999,-2.615436,3
2024-06-14 09:28:27.472,-18.689999999999998,-442.575,-7.0,0.435784,-0.138104,-2.596648,3
2024-06-14 09:28:27.477,-17.08,-451.91999999999996,-1.645,0.355996,-0.11224,-2.673996,3
2024-06-14 09:28:27.482,-20.895,-454.895,1.7149999999999999,0.5590040000000001,0.18446399999999996,-2.80478,3
2024-06-14 09:28:27.487,-31.64,-460.66999999999996,-1.33,0.6141479999999999,0.317932,-2.683756,3
2024-06-14 09:28:27.492,-42.175,-459.13,-4.48,0.45018,0.360388,-2.91946,3
2024-06-14 09:28:27.497,-49.735,-456.82,-10.955,0.30231600000000003,0.28059999999999996,-2.7728159999999997,3
2024-06-14 09:28:27.501,-46.025000000000006,-457.20500000000004,-14.175,0.25498,0.27815999999999996,-2.7074239999999996,3
2024-06-14 09:28:27.506,-49.0,-458.95500000000004,-21.525,0.127856,0.32744799999999996,-2.499536,3
2024-06-14 09:28:27.511,-50.75,-458.43,-29.785,0.07563999999999999,0.19641999999999998,-2.561756,3
2024-06-14 09:28:27.516,-40.635000000000005,-458.29,-36.260000000000005,0.237168,0.122,-2.6083600000000002,3
2024-06-14 09:28:27.521,-26.32,-446.635,-36.260000000000005,0.102236,0.20837599999999998,-2.690588,3
2024-06-14 09:28:27.526,-12.495000000000001,-435.08500000000004,-37.45,0.06953999999999999,0.30280399999999996,-2.682048,3
2024-06-14 09:28:27.531,-5.6,-411.88,-40.144999999999996,-0.287676,0.524112,-2.482944,3
2024-06-14 09:28:27.535,-4.55,-379.26,-48.335,-0.72712,0.5611999999999999,-2.301896,3
2024-06-14 09:28:27.540,-1.8199999999999998,-337.92499999999995,-54.95,-1.249768,0.56974,-2.052772,3
2024-06-14 09:28:27.545,-8.155,-291.515,-62.58,-1.648708,0.49458799999999997,-1.7287399999999997,3
2024-06-14 09:28:27.550,-15.504999999999999,-245.52499999999998,-74.58500000000001,-1.708976,0.294996,-1.38348,3
2024-06-14 09:28:27.555,-24.045,-221.165,-92.295,-1.28588,0.444324,-0.8686399999999999,3
2024-06-14 09:28:27.560,3.43,-232.85500000000002,-91.0,-1.031388,0.53192,-0.657824,3
2024-06-14 09:28:27.564,7.105,-148.995,-86.24000000000001,-1.410564,0.23058,-1.7848600000000001,3
2024-06-14 09:28:27.569,-12.18,-63.0,-83.78999999999999,-1.423008,0.133956,-1.616012,3
2024-06-14 09:28:27.574,-10.43,-16.205,-77.7,-1.215608,0.018056,-1.230736,4
2024-06-14 09:28:27.579,15.295000000000002,18.97,-64.61,-1.138016,-0.060268,-1.223172,4
2024-06-14 09:28:27.584,38.01,48.615,-50.89,-1.070916,-0.020739999999999998,-1.260992,4
2024-06-14 09:28:27.589,51.31,65.38,-38.92,-0.9555039999999999,0.06953999999999999,-1.19926,4
2024-06-14 09:28:27.593,56.735,74.19999999999999,-29.155,-0.881084,0.11468,-1.105076,4
2024-06-14 09:28:27.598,57.54,81.305,-19.950000000000003,-0.842776,0.116144,-0.9911279999999999,4
2024-06-14 09:28:27.603,56.035,88.305,-11.83,-0.828624,0.132492,-0.868884,4
2024-06-14 09:28:27.608,53.795,96.53,-4.935,-0.8169120000000001,0.14566800000000002,-0.765428,4
2024-06-14 09:28:27.613,50.120000000000005,106.61,0.8750000000000001,-0.807396,0.150304,-0.698572,4
2024-06-14 09:28:27.618,45.185,118.685,5.6,-0.804712,0.15372,-0.6502600000000001,4
2024-06-14 09:28:27.622,39.585,132.16,9.31,-0.795928,0.15445199999999998,-0.613416,4
2024-06-14 09:28:27.627,34.510000000000005,146.755,11.935,-0.788608,0.140788,-0.571936,4
2024-06-14 09:28:27.632,30.52,161.98,13.545,-0.782508,0.12444,-0.546804,4
2024-06-14 09:28:27.638,27.65,178.01,14.42,-0.775432,0.109068,-0.532896,4
2024-06-14 09:28:27.643,25.619999999999997,194.32,14.385,-0.7542039999999999,0.094428,-0.5277719999999999,4
2024-06-14 09:28:27.648,24.815,210.665,13.825,-0.7412719999999999,0.077348,-0.5402159999999999,4
2024-06-14 09:28:27.652,24.955,226.835,12.879999999999999,-0.71858,0.07539599999999999,-0.546804,4
2024-06-14 09:28:27.657,25.935000000000002,242.305,11.129999999999999,-0.6993039999999999,0.072956,-0.5612,4
2024-06-14 09:28:27.662,26.39,257.005,8.82,-0.680272,0.08735199999999999,-0.5836480000000001,4
2024-06-14 09:28:27.667,26.25,270.58500000000004,5.6,-0.655872,0.10247999999999999,-0.6092679999999999,4
2024-06-14 09:28:27.672,24.955,283.08,1.8199999999999998,-0.624152,0.126636,-0.638548,4
2024-06-14 09:28:27.677,22.89,294.105,-2.52,-0.58926,0.136152,-0.680516,4
2024-06-14 09:28:27.681,20.685000000000002,304.22,-7.105,-0.552416,0.14273999999999998,-0.719556,4
2024-06-14 09:28:27.686,18.795,313.32,-12.004999999999999,-0.522892,0.14518,-0.753716,4
2024-06-14 09:28:27.691,17.185000000000002,322.03499999999997,-16.765,-0.500688,0.14127599999999998,-0.7905599999999999,4
2024-06-14 09:28:27.696,15.715,330.61,-21.595,-0.481412,0.13834799999999997,-0.8276479999999999,4
2024-06-14 09:28:27.701,14.07,339.605,-26.075000000000003,-0.464576,0.139568,-0.8720559999999999,4
2024-06-14 09:28:27.706,12.11,348.53,-30.485,-0.451156,0.146644,-0.914024,4
2024-06-14 09:28:27.710,10.36,357.42,-34.475,-0.437492,0.14932800000000002,-0.9535520000000001,4
2024-06-14 09:28:27.715,8.469999999999999,365.925,-38.290000000000006,-0.391376,0.141032,-1.0065,4
2024-06-14 09:28:27.720,7.98,372.61,-41.58,-0.32720399999999994,0.11468,-1.074576,4
2024-06-14 09:28:27.725,7.07,376.635,-43.505,-0.298168,0.135908,-1.070672,4
2024-06-14 09:28:27.730,6.23,381.42999999999995,-45.92,-0.360144,0.16982399999999997,-1.159,4
2024-06-14 09:28:27.734,-2.38,388.115,-48.615,-0.305732,0.211304,-1.2104840000000001,4
2024-06-14 09:28:27.739,-4.375,392.66499999999996,-50.575,-0.27205999999999997,0.17714400000000002,-1.287588,4
2024-06-14 09:28:27.744,-13.09,398.405,-52.394999999999996,-0.296948,0.22033199999999997,-1.35908,4
2024-06-14 09:28:27.749,-17.85,402.57,-53.41,-0.274988,0.226676,-1.41886,4
2024-06-14 09:28:27.754,-25.759999999999998,407.33000000000004,-54.46,-0.25254,0.22350399999999998,-1.509872,4
2024-06-14 09:28:27.759,-34.16,411.775,-54.985,-0.226432,0.226432,-1.576728,4
2024-06-14 09:28:27.763,-40.495,415.8,-54.95,-0.223748,0.239608,-1.716052,4
2024-06-14 09:28:27.768,-48.894999999999996,421.53999999999996,-54.879999999999995,-0.223748,0.22692,-1.736792,4
2024-06-14 09:28:27.773,-55.125,426.545,-53.864999999999995,-0.20569199999999999,0.214476,-1.788276,4
2024-06-14 09:28:27.778,-59.535,430.605,-52.955,-0.178852,0.213988,-1.9185720000000002,4
2024-06-14 09:28:27.783,-64.12,433.965,-52.114999999999995,-0.170312,0.21984399999999998,-2.004948,4
2024-06-14 09:28:27.788,-68.845,435.75,-52.185,-0.154452,0.224968,-2.152812,4
2024-06-14 09:28:27.792,-75.145,437.32500000000005,-52.71,-0.127612,0.233264,-2.2640759999999998,4
2024-06-14 09:28:27.797,-82.6,437.99,-53.9,-0.11443600000000001,0.2501,-2.3526480000000003,4
2024-06-14 09:28:27.802,-92.25999999999999,438.48,-56.349999999999994,-0.08784,0.25498,-2.496364,4
2024-06-14 09:28:27.807,-105.07,439.355,-60.025,-0.039772,0.26425199999999993,-2.622756,4
2024-06-14 09:28:27.812,-120.47,440.055,-64.54,0.048068,0.25961599999999996,-2.7432920000000003,4
2024-06-14 09:28:27.817,-138.14499999999998,440.37,-70.49,0.16177199999999997,0.25351599999999996,-2.856752,4
2024-06-14 09:28:27.821,-155.365,438.55,-77.41999999999999,0.263276,0.221308,-2.9833879999999997,4
2024-06-14 09:28:27.826,-171.115,435.995,-83.93,0.405528,0.11175200000000002,-3.114172,4
2024-06-14 09:28:27.831,-183.29500000000002,433.93,-86.72999999999999,0.5855999999999999,-0.058072,-3.222264,4
2024-06-14 09:28:27.836,-186.33999999999997,431.515,-83.72,0.795928,-0.26303200000000004,-3.3142519999999998,4
2024-06-14 09:28:27.841,-179.13,427.735,-74.13,0.99918,-0.455304,-3.4025799999999995,4
2024-06-14 09:28:27.846,-162.71499999999997,421.995,-57.995000000000005,1.2078,-0.60268,-3.465044,4
2024-06-14 09:28:27.850,-140.595,413.665,-36.89,1.433256,-0.67222,-3.4972519999999996,4
2024-06-14 09:28:27.855,-117.285,402.53499999999997,-13.370000000000001,1.653832,-0.66856,-3.5162839999999997,4
2024-06-14 09:28:27.860,-76.33500000000001,310.625,20.58,2.965332,-1.605276,-3.92962,4
2024-06-14 09:28:27.865,34.72,319.16499999999996,62.72,3.41844,-1.428132,-3.216164,4
2024-06-14 09:28:27.870,-26.005,298.865,72.52,2.189656,-0.626592,-2.2262560000000002,4
2024-06-14 09:28:27.874,-25.025,297.28999999999996,86.72999999999999,3.0987999999999998,-0.19641999999999998,-2.264564,4
2024-06-14 09:28:27.879,-69.475,310.16999999999996,86.345,2.935076,0.336476,-2.55834,4
2024-06-14 09:28:27.884,-120.61,318.64,78.57499999999999,2.828448,0.528992,-2.833084,4
2024-06-14 09:28:27.889,-131.67000000000002,293.23,75.11000000000001,3.263744,0.35184799999999994,-2.99998,4
2024-06-14 09:28:27.894,-124.6,276.815,75.88,3.39648,-0.014396000000000003,-2.321172,4
2024-06-14 09:28:27.899,-103.285,248.43,80.22,3.634624,-0.09345200000000001,-1.700924,4
2024-06-14 09:28:27.903,-70.28,206.99,84.385,3.844708,-0.06953999999999999,-1.519632,4
2024-06-14 09:28:27.908,-75.53,171.57,81.55000000000001,4.331244,-0.063196,-1.620404,4
2024-06-14 09:28:27.913,-105.385,141.96,73.78,4.686996000000001,-0.14810800000000002,-1.526952,4
2024-06-14 09:28:27.918,-128.8,113.36500000000001,69.02000000000001,4.898300000000001,-0.49654,-1.349808,4
2024-06-14 09:28:27.923,-137.165,86.1,70.175,5.169872,-0.85888,-1.348588,4
2024-06-14 09:28:27.928,-128.41500000000002,53.935,76.195,5.295044,-1.145824,-1.42008,4
2024-06-14 09:28:27.932,-101.22,14.175,85.33,5.17646,-1.35664,-1.3868960000000001,4
2024-06-14 09:28:27.937,-16.695,-169.435,97.755,5.840628000000001,-0.846924,-3.765408,4
