time,gyroscope_x,gyroscope_y,gyroscope_z,accelerometer_x,accelerometer_y,accelerometer_z,phase
2024-06-14 10:29:30.428,-361.655,-387.38,51.835,8.318448,3.0561,-7.272176,1
2024-06-14 10:29:30.432,-361.58500000000004,-252.98000000000002,4.48,0.7566439999999999,-1.4147120000000002,3.001932,1
2024-06-14 10:29:30.437,-402.92,-355.70500000000004,16.275,-0.921588,-0.15396400000000002,-1.4252040000000001,1
2024-06-14 10:29:30.442,-353.885,-333.865,-14.945,0.363804,-0.441396,-1.23708,1
2024-06-14 10:29:30.447,-267.085,-370.685,-58.8,-1.7934,-0.781532,-1.782176,1
2024-06-14 10:29:30.452,-167.54500000000002,-391.51,-100.24,-0.21520799999999998,-0.320372,-2.422676,1
2024-06-14 10:29:30.457,-92.57499999999999,-408.45,-132.055,0.328912,0.44164000000000003,-3.100996,1
2024-06-14 10:29:30.461,-22.96,-404.91499999999996,-136.43,0.6993039999999999,0.793976,-3.2347080000000004,1
2024-06-14 10:29:30.466,-14.42,-396.55,-122.955,0.43066,0.688568,-3.290584,1
2024-06-14 10:29:30.471,-14.7,-329.45500000000004,-100.59,0.374296,0.581696,-2.72304,1
2024-06-14 10:29:30.476,-17.884999999999998,-251.405,-68.25,0.3294,0.598776,-2.5932319999999995,1
2024-06-14 10:29:30.481,-26.915,-186.41,-31.01,0.390156,0.45774400000000004,-2.035692,1
2024-06-14 10:29:30.486,-20.965,-148.19,-1.0150000000000001,0.13541999999999998,0.23497200000000001,-1.414224,1
2024-06-14 10:29:30.490,-14.875,-132.195,9.379999999999999,0.083692,-0.021960000000000004,-1.280756,1
2024-06-14 10:29:30.495,-8.190000000000001,-99.435,5.04,0.004147999999999999,-0.121268,-1.123132,1
2024-06-14 10:29:30.500,-11.059999999999999,-78.82,-3.815,-0.026108000000000003,-0.097112,-1.134356,1
2024-06-14 10:29:30.505,-26.18,-38.71,-10.115,0.06734399999999999,-0.041236,-1.1526560000000001,1
2024-06-14 10:29:30.510,-13.51,6.685,-7.21,0.11858400000000001,0.07076,-1.163636,1
2024-06-14 10:29:30.515,-5.705,19.18,-0.77,0.086132,0.046604,-1.136796,1
2024-06-14 10:29:30.519,-2.31,21.384999999999998,4.2,0.090768,0.037820000000000006,-1.095316,2
2024-06-14 10:29:30.524,0.385,14.665,3.78,0.14396,-0.05416800000000001,-1.0862879999999997,2
2024-06-14 10:29:30.529,0.35,4.655,-5.25,0.166164,-0.059292,-1.0872639999999998,2
2024-06-14 10:29:30.534,-0.14,-2.1,-4.025,0.056364,0.013908000000000002,-1.03456,2
2024-06-14 10:29:30.539,0.8400000000000001,-2.415,-3.92,-0.034648,0.008296,-0.984784,2
2024-06-14 10:29:30.544,0.7,3.29,-2.7649999999999997,-0.028791999999999998,-0.012931999999999999,-0.9964959999999999,2
2024-06-14 10:29:30.548,-0.385,1.155,-1.995,-0.0004880000000000006,-0.017568,-1.025776,2
2024-06-14 10:29:30.553,-1.085,-2.52,-2.17,0.0,-0.0075639999999999995,-1.020896,2
2024-06-14 10:29:30.558,-1.295,-4.76,-2.0300000000000002,-0.01098,-0.010248,-1.01748,2
2024-06-14 10:29:30.563,-1.75,-6.405,-1.47,-0.01464,-0.004880000000000001,-1.0128439999999999,2
2024-06-14 10:29:30.568,-2.135,-8.295,-1.3650000000000002,-0.01098,-0.010003999999999999,-1.0108920000000001,2
2024-06-14 10:29:30.573,-2.17,-9.8,-1.33,-0.013908,-0.0068319999999999995,-1.0082080000000002,2
2024-06-14 10:29:30.577,-2.065,-10.36,-1.33,-0.012443999999999998,-0.002684,-1.007476,2
2024-06-14 10:29:30.582,-1.575,-11.585,-1.155,-0.014395999999999999,-0.004148,-1.00894,2
2024-06-14 10:29:30.587,-1.015,-13.79,-1.435,-0.013176,-0.000976,-1.0128439999999999,2
2024-06-14 10:29:30.592,-0.49,-15.645,-1.6099999999999999,-0.017079999999999998,-0.008539999999999999,-1.007476,2
2024-06-14 10:29:30.597,-0.35,-16.555,-1.75,-0.014884000000000001,-0.008539999999999999,-1.00894,2
2024-06-14 10:29:30.602,-0.21000000000000002,-17.255000000000003,-1.7850000000000001,-0.016104,-0.0046359999999999995,-1.011868,2
2024-06-14 10:29:30.606,0.035,-17.535,-1.6099999999999999,-0.009516,-0.010248,-1.007476,2
2024-06-14 10:29:30.611,0.17500000000000002,-17.815,-1.505,-0.00732,-0.002196,-1.012112,2
2024-06-14 10:29:30.616,0.595,-17.325,-1.365,-0.012199999999999999,-0.00854,-1.0072320000000001,2
2024-06-14 10:29:30.621,0.9099999999999999,-17.08,-1.05,-0.02196,-0.010003999999999999,-1.006012,2
2024-06-14 10:29:30.626,1.26,-17.744999999999997,-1.085,-0.026596,-0.013176,-1.0018639999999999,2
2024-06-14 10:29:30.631,1.225,-19.32,-1.19,-0.027327999999999998,-0.023424,-0.99674,2
2024-06-14 10:29:30.636,0.875,-20.65,-1.0150000000000001,-0.033916,-0.01952,-1.000888,2
2024-06-14 10:29:30.640,0.665,-21.91,-0.8400000000000001,-0.014884000000000001,-0.012931999999999999,-1.002596,2
2024-06-14 10:29:30.645,0.49,-23.205,-0.63,-0.029036,-0.01952,-1.0096720000000001,2
2024-06-14 10:29:30.650,-3.815,-6.72,-0.56,0.006343999999999999,-0.009028,-0.997228,2
2024-06-14 10:29:30.655,0.10499999999999998,-24.57,-0.175,-0.000732,-0.01586,-1.008696,2
2024-06-14 10:29:30.660,4.655,-19.810000000000002,0.17499999999999993,0.011467999999999999,-0.0122,-1.023092,2
2024-06-14 10:29:30.665,-0.98,-23.485,0.9099999999999999,0.00048799999999999994,-0.018543999999999998,-1.004304,2
2024-06-14 10:29:30.669,-1.33,-26.424999999999997,0.98,0.011223999999999998,-0.017324,-1.002352,2
2024-06-14 10:29:30.674,-2.73,-22.225,0.8399999999999999,0.013908,-0.014395999999999999,-0.9896639999999999,2
2024-06-14 10:29:30.679,-2.94,-22.435000000000002,0.49,0.016347999999999998,-0.00488,-1.0018639999999999,2
2024-06-14 10:29:30.684,-3.5,-19.845,0.595,0.017568,-0.010248,-0.9877119999999999,2
2024-06-14 10:29:30.689,-5.88,-1.9250000000000007,0.63,0.011712,-0.006832,-1.004792,2
2024-06-14 10:29:30.694,-4.48,-17.08,1.05,0.024155999999999997,-0.0068319999999999995,-0.992836,2
2024-06-14 10:29:30.698,-4.34,-9.94,0.98,0.007808,-0.011712,-0.9989359999999999,2
2024-06-14 10:29:30.703,-5.355,-15.75,1.19,0.020496,0.00048799999999999994,-0.99674,2
2024-06-14 10:29:30.708,-3.92,-13.93,1.33,0.028791999999999998,0.001464,-1.00284,2
2024-06-14 10:29:30.713,-2.87,-12.985,1.4,0.026596,-0.0019520000000000002,-0.999668,2
2024-06-14 10:29:30.718,-1.995,-12.845,1.61,0.041236,0.0019520000000000006,-0.996496,2
2024-06-14 10:29:30.723,-2.275,-11.34,1.26,0.028791999999999998,-0.002928,-0.9999119999999999,2
2024-06-14 10:29:30.727,-2.45,-11.375,1.26,0.025376,-0.00732,-1.003328,2
2024-06-14 10:29:30.732,-2.765,-11.69,1.435,0.030012,-0.013176,-1.00284,2
2024-06-14 10:29:30.737,-3.6050000000000004,-13.02,1.8199999999999998,0.017324,-0.017812,-1.0055239999999999,2
2024-06-14 10:29:30.742,-3.6050000000000004,-16.66,2.7649999999999997,0.016836,-0.030011999999999997,-1.007232,2
2024-06-14 10:29:30.747,-6.65,-18.55,3.08,0.018056,-0.029768,-1.01626,2
2024-06-14 10:29:30.752,-8.085,-20.86,3.8499999999999996,0.019520000000000003,-0.032940000000000004,-1.007232,2
2024-06-14 10:29:30.756,-8.995000000000001,-23.38,4.69,0.014396000000000003,-0.026352,-1.0335839999999998,2
2024-06-14 10:29:30.761,-10.5,-25.935000000000002,5.109999999999999,0.018788,-0.026352,-1.016748,2
2024-06-14 10:29:30.766,-10.535,-29.33,6.300000000000001,0.029524,-0.04514,-1.0145520000000001,2
2024-06-14 10:29:30.771,-12.774999999999999,-30.59,6.755000000000001,0.036112000000000005,-0.041724,-1.020652,2
2024-06-14 10:29:30.776,-14.77,-31.885,7.385,0.048311999999999994,-0.037332000000000004,-1.015528,2
2024-06-14 10:29:30.781,-15.085,-33.18,8.155000000000001,0.040504,-0.016104,-1.0116239999999999,2
2024-06-14 10:29:30.785,-16.134999999999998,-33.53,7.98,0.061,0.01464,-1.01748,2
2024-06-14 10:29:30.790,-15.715,-34.93,7.56,0.061975999999999996,0.018544,-1.019676,2
2024-06-14 10:29:30.795,-14.875,-36.61,6.859999999999999,0.064904,0.01952,-1.0326079999999997,2
2024-06-14 10:29:30.800,-13.719999999999999,-40.53,6.125,0.06831999999999999,0.049044,-1.047492,2
2024-06-14 10:29:30.805,-12.530000000000001,-47.67,5.495,0.06661199999999999,0.006588,-1.0882399999999999,2
2024-06-14 10:29:30.810,-7.875,-71.61,5.25,0.033428,-0.017568,-1.155096,2
2024-06-14 10:29:30.814,-15.260000000000002,-78.61,6.58,0.085156,-0.056608,-1.257332,2
2024-06-14 10:29:30.819,-25.585,-63.0,8.05,0.06832,-0.160796,-1.183888,2
2024-06-14 10:29:30.824,-6.65,-64.19,13.51,0.09662399999999999,-0.16909200000000002,-1.3207719999999998,3
2024-06-14 10:29:30.829,8.225,-74.305,20.475,0.056364,-0.28181999999999996,-1.5547680000000001,3
2024-06-14 10:29:30.834,21.07,-62.23,16.939999999999998,0.04392,0.14884,-1.6374840000000002,3
2024-06-14 10:29:30.839,21.314999999999998,-80.92,14.7,0.035868,0.15982,-1.692872,3
2024-06-14 10:29:30.844,18.69,-84.0,13.370000000000001,0.081984,-0.05050799999999999,-1.482056,3
2024-06-14 10:29:30.848,12.530000000000001,-96.285,13.86,0.034159999999999996,0.08735199999999999,-1.535736,3
2024-06-14 10:29:30.853,14.315000000000001,-105.175,11.97,0.08515600000000001,0.139324,-1.691408,3
2024-06-14 10:29:30.858,9.415,-115.99,9.1,0.05856,0.055632,-1.597956,3
2024-06-14 10:29:30.863,10.535,-128.03,7.734999999999999,0.047336,0.138592,-1.704096,3
2024-06-14 10:29:30.868,14.945,-141.95999999999998,5.460000000000001,0.067832,0.10931199999999999,-1.677012,3
2024-06-14 10:29:30.873,17.535,-155.365,4.06,0.049776,0.064172,-1.659444,3
2024-06-14 10:29:30.877,24.43,-169.68,3.465,0.03294,0.107604,-1.658224,3
2024-06-14 10:29:30.882,28.35,-188.055,1.68,0.042455999999999994,0.11858400000000001,-1.70312,3
2024-06-14 10:29:30.887,27.16,-209.755,0.595,0.023912,0.050264,-1.7763200000000001,3
2024-06-14 10:29:30.892,28.525,-231.10500000000002,0.49,0.007075999999999999,0.097844,-1.787056,3
2024-06-14 10:29:30.897,29.12,-255.11499999999998,-0.49,-0.001464,0.05977999999999999,-1.857816,3
2024-06-14 10:29:30.902,29.05,-282.31,-0.28,-0.025619999999999997,0.030255999999999998,-2.002508,3
2024-06-14 10:29:30.906,27.72,-310.38,0.0,-0.045871999999999996,0.012199999999999999,-2.151104,3
2024-06-14 10:29:30.911,29.225,-339.745,0.0,-0.055875999999999995,0.0009760000000000012,-2.3033599999999996,3
2024-06-14 10:29:30.916,30.03,-370.755,-0.315,-0.086864,0.045384,-2.507344,3
2024-06-14 10:29:30.921,30.240000000000002,-398.15999999999997,-1.3650000000000002,-0.068808,0.085156,-2.690832,3
2024-06-14 10:29:30.926,32.725,-422.59000000000003,-3.465,-0.07588400000000001,0.056852,-2.9419079999999997,3
2024-06-14 10:29:30.931,36.540000000000006,-448.63,-4.13,-0.023424,0.045872,-3.0029079999999997,3
2024-06-14 10:29:30.935,36.120000000000005,-476.98,-5.355,0.040504,0.083692,-3.3459719999999997,3
2024-06-14 10:29:30.940,45.394999999999996,-499.24,-6.265000000000001,-0.042944,0.007320000000000001,-3.649508,3
2024-06-14 10:29:30.945,44.1,-524.335,-7.105,-0.175436,0.0366,-3.74296,3
2024-06-14 10:29:30.950,37.1,-555.415,-7.7700000000000005,-0.252784,-0.064904,-3.6829359999999998,3
2024-06-14 10:29:30.955,38.43,-581.28,-5.984999999999999,-0.20618000000000003,-0.272548,-3.812744,3
2024-06-14 10:29:30.960,36.05,-606.515,-0.91,-0.34306400000000004,-0.283284,-3.9898879999999997,3
2024-06-14 10:29:30.964,31.29,-623.56,3.6050000000000004,-0.33476799999999995,-0.318176,-4.08822,3
2024-06-14 10:29:30.969,25.515,-647.71,9.065,-0.17446,-0.431636,-4.473984,3
2024-06-14 10:29:30.974,21.595,-626.71,14.384999999999998,0.069296,-0.661972,-4.929288,3
2024-06-14 10:29:30.979,19.880000000000003,-618.73,23.52,0.0,-0.698572,-5.223796,4
2024-06-14 10:29:30.984,18.095,-594.685,32.095,-0.7883640000000001,-0.605608,-4.607451999999999,4
2024-06-14 10:29:30.989,18.375,-558.075,36.47,-1.868308,-0.454572,-3.831288,4
2024-06-14 10:29:30.993,26.11,-529.7950000000001,40.705,-2.260416,-0.32842400000000005,-2.858948,4
2024-06-14 10:29:30.998,1.3650000000000002,-544.1800000000001,39.2,-2.3009199999999996,-0.278648,-3.177856,4
2024-06-14 10:29:31.003,-70.875,-574.595,12.985,-2.7049839999999996,0.281332,-1.473028,4
2024-06-14 10:29:31.008,-184.73000000000002,-582.47,-25.48,-1.34566,0.641964,1.3827479999999999,4
2024-06-14 10:29:31.013,-162.26,-389.83000000000004,-55.405,-1.147044,0.07954399999999999,-3.27204,4
2024-06-14 10:29:31.018,-141.47,-197.61,-99.92500000000001,-1.354444,-1.2112159999999998,-3.7656519999999998,4
2024-06-14 10:29:31.022,-122.465,-34.79,-137.48,-2.378756,-0.66978,-1.663104,4
2024-06-14 10:29:31.027,-115.28999999999999,64.33,-138.425,-2.4741599999999995,-0.582916,-2.4148680000000002,4
2024-06-14 10:29:31.032,-100.03,95.34,-114.31,-1.808772,-0.576328,-1.87392,4
2024-06-14 10:29:31.037,-109.75999999999999,77.14,-79.17,-1.6082039999999997,-0.517768,-1.7416719999999999,4
2024-06-14 10:29:31.042,-126.97999999999999,52.394999999999996,-40.355,-1.785104,-0.547048,-1.334192,4
2024-06-14 10:29:31.047,-134.32999999999998,45.254999999999995,-3.9550000000000005,-2.170136,-0.550952,-0.989664,4
2024-06-14 10:29:31.053,-121.16999999999999,61.67,27.72,-2.545896,-0.578524,-0.750788,4
2024-06-14 10:29:31.057,-100.345,100.1,51.31,-2.890668,-0.532896,-0.615124,4
2024-06-14 10:29:31.062,-80.15,152.11,71.75,-3.158092,-0.26839999999999997,-0.5465599999999999,4
2024-06-14 10:29:31.067,-70.735,204.26,86.03,-3.177368,-0.18129199999999998,-0.508008,4
2024-06-14 10:29:31.072,-72.065,251.72,91.21000000000001,-3.150772,-0.0029280000000000018,-0.540216,4
2024-06-14 10:29:31.077,-82.6,294.98,89.915,-3.073424,0.09882,-0.575596,4
2024-06-14 10:29:31.081,-97.16,330.61,83.965,-2.9599640000000003,0.117364,-0.5934079999999999,4
2024-06-14 10:29:31.086,-107.66,360.115,75.845,-2.7933120000000002,0.043188,-0.6548959999999999,4
2024-06-14 10:29:31.091,-107.205,384.265,68.005,-2.592256,-0.08174,-0.72102,4
2024-06-14 10:29:31.096,-94.36,405.09000000000003,61.285,-2.423896,-0.191052,-0.7007680000000001,4
2024-06-14 10:29:31.101,-73.28999999999999,425.18,54.355000000000004,-2.27896,-0.239364,-0.6771,4
2024-06-14 10:29:31.106,-44.835,440.78999999999996,45.78,-2.079612,-0.246928,-0.721508,4
2024-06-14 10:29:31.110,-13.055,448.56,37.205,-1.832684,-0.208864,-0.7790919999999999,4
2024-06-14 10:29:31.115,11.934999999999999,448.98,19.355,-1.53476,-0.301096,-0.9311039999999999,4
2024-06-14 10:29:31.120,32.48,450.275,-2.9050000000000002,-1.3197959999999997,-0.17348399999999997,-1.00772,4
2024-06-14 10:29:31.125,48.825,446.04,-25.130000000000003,-1.126304,-0.114192,-1.066524,4
2024-06-14 10:29:31.130,58.415,437.675,-46.97,-0.952576,-0.09296399999999999,-1.157536,4
2024-06-14 10:29:31.135,62.16,428.225,-68.03999999999999,-0.820328,-0.06222,-1.243912,4
2024-06-14 10:29:31.139,62.44,420.735,-86.765,-0.719068,-0.070516,-1.319064,4
2024-06-14 10:29:31.144,60.34,415.555,-102.41,-0.641964,-0.10004,-1.4010479999999998,4
2024-06-14 10:29:31.149,59.01,413.245,-113.89,-0.572668,-0.15420799999999998,-1.483032,4
2024-06-14 10:29:31.154,59.92,412.72,-121.205,-0.50386,-0.2074,-1.565016,4
2024-06-14 10:29:31.159,62.825,413.66499999999996,-124.775,-0.438224,-0.22033199999999997,-1.6543199999999998,4
2024-06-14 10:29:31.164,65.765,415.59,-125.405,-0.36112,-0.19373600000000002,-1.76656,4
2024-06-14 10:29:31.168,64.435,417.305,-123.655,-0.286944,-0.13786,-1.886852,4
2024-06-14 10:29:31.173,56.945,417.305,-118.755,-0.213744,-0.089792,-1.9937239999999998,4
2024-06-14 10:29:31.178,44.59,416.185,-109.97,-0.137616,-0.070028,-2.08132,4
2024-06-14 10:29:31.183,30.17,413.94500000000005,-97.02,-0.076616,-0.07563999999999999,-2.166476,4
2024-06-14 10:29:31.188,17.22,411.18,-80.15,-0.021716000000000003,-0.090768,-2.2391880000000004,4
2024-06-14 10:29:31.193,6.51,409.605,-61.144999999999996,0.039528,-0.082228,-2.306532,4
2024-06-14 10:29:31.197,-1.6099999999999999,410.76,-41.79,0.065392,-0.096136,-2.3772919999999997,4
2024-06-14 10:29:31.202,-5.145,414.715,-22.61,0.09394,-0.107116,-2.46928,4
2024-06-14 10:29:31.207,-6.615,420.84000000000003,-4.025,0.135664,-0.085156,-2.56566,4
2024-06-14 10:29:31.212,-7.385,428.47,12.635,0.22643199999999997,-0.057583999999999996,-2.671312,4
2024-06-14 10:29:31.217,-9.415,436.73,26.845,0.35258,-0.027327999999999998,-2.775256,4
2024-06-14 10:29:31.221,-10.815,444.22,37.730000000000004,0.4989799999999999,-0.01342,-2.873344,4
2024-06-14 10:29:31.226,-10.955,449.78499999999997,45.5,0.6707559999999999,-0.029036,-2.94264,4
2024-06-14 10:29:31.231,-10.57,452.305,51.17,0.874984,-0.06709999999999999,-3.001932,4
2024-06-14 10:29:31.236,-8.120000000000001,451.15,56.56,1.065304,-0.142496,-3.0436560000000004,4
2024-06-14 10:29:31.241,-4.865,446.565,63.21,1.2566000000000002,-0.220332,-3.0748879999999996,4
2024-06-14 10:29:31.246,-0.875,438.935,71.61,1.429596,-0.314028,-3.1027039999999997,4
2024-06-14 10:29:31.250,4.655,429.065,82.39,1.627724,-0.405284,-3.1366199999999997,4
2024-06-14 10:29:31.255,11.585,418.005,94.605,1.884412,-0.47628799999999993,-3.184932,4
2024-06-14 10:29:31.260,20.965,406.7,106.645,2.207712,-0.485072,-3.198352,4
2024-06-14 10:29:31.265,30.24,396.06,115.815,2.5315000000000003,-0.453352,-3.1841999999999997,4
2024-06-14 10:29:31.270,35.665,384.405,121.24000000000001,2.857972,-0.409676,-3.144672,4
2024-06-14 10:29:31.275,40.005,370.96500000000003,123.305,3.2090879999999995,-0.355996,-3.084892,4
2024-06-14 10:29:31.279,43.505,354.585,122.5,3.583628,-0.274744,-3.02072,4
2024-06-14 10:29:31.284,47.775,335.33500000000004,119.035,3.957436,-0.18324400000000002,-2.936052,4
2024-06-14 10:29:31.289,50.995,312.83,112.805,4.324412,-0.052948,-2.811368,4
2024-06-14 10:29:31.294,54.599999999999994,286.3,104.02,4.652348,0.069052,-2.6439839999999997,4
2024-06-14 10:29:31.299,57.47,254.73,93.065,4.932216,0.180316,-2.4704999999999995,4
2024-06-14 10:29:31.304,58.974999999999994,215.77499999999998,80.78,5.1569400000000005,0.269132,-2.381196,4
2024-06-14 10:29:31.308,54.705,174.57999999999998,70.21000000000001,5.40704,0.318176,-2.192584,4
2024-06-14 10:29:31.313,44.870000000000005,131.74,62.545,5.672268,0.34086799999999995,-2.1813599999999997,4
2024-06-14 10:29:31.318,24.22,88.305,56.245000000000005,5.8996759999999995,0.272304,-2.0988879999999996,4
2024-06-14 10:29:31.323,-1.6799999999999997,48.965,50.4,6.064132,0.18178,-2.0232479999999997,4
2024-06-14 10:29:31.328,-24.115000000000002,12.110000000000001,44.975,6.062912,0.022447999999999996,-1.9759120000000001,4
2024-06-14 10:29:31.333,-37.275000000000006,-20.16,40.635,5.97922,-0.147132,-1.8365879999999999,4
2024-06-14 10:29:31.337,-43.015,-51.099999999999994,38.22,5.738636,-0.33184,-1.822436,4
2024-06-14 10:29:31.342,-29.995,-78.96000000000001,37.8,5.411188,-0.336232,-1.775344,4
2024-06-14 10:29:31.347,-184.135,-384.055,-0.3500000000000014,7.768471999999999,1.394704,-7.295356,0
