time,gyroscope_x,gyroscope_y,gyroscope_z,accelerometer_x,accelerometer_y,accelerometer_z,phase
2024-06-14 10:29:32.284,-296.52,-227.5,-133.525,2.845284,0.09271999999999991,-1.7726600000000006,1
2024-06-14 10:29:32.289,-417.725,-144.76,-103.495,-2.588596,-0.6573359999999999,0.18397599999999997,1
2024-06-14 10:29:32.294,-300.195,-279.78999999999996,-100.905,-0.469212,0.15371999999999997,-2.43878,1
2024-06-14 10:29:32.299,-204.19,-405.615,-122.95499999999998,-1.456436,0.043432,-1.127524,1
2024-06-14 10:29:32.304,-100.205,-444.64,-148.68,-0.94672,0.185196,-2.285304,1
2024-06-14 10:29:32.309,-13.58,-466.095,-163.765,0.245464,0.705648,-2.642032,1
2024-06-14 10:29:32.313,4.06,-448.49,-153.475,0.9733160000000001,1.05774,-3.090504,1
2024-06-14 10:29:32.318,10.955,-413.175,-119.42,0.93696,1.00894,-3.128812,1
2024-06-14 10:29:32.323,13.93,-370.055,-83.055,0.388448,0.8235,-3.0331639999999997,1
2024-06-14 10:29:32.328,2.94,-326.725,-48.405,0.26083599999999996,0.7290719999999999,-2.9221440000000003,1
2024-06-14 10:29:32.333,-0.245,-256.54999999999995,-9.694999999999999,0.267424,0.5733999999999999,-2.2201560000000002,1
2024-06-14 10:29:32.338,-3.85,-214.305,20.93,0.149328,0.188856,-1.7348400000000002,1
2024-06-14 10:29:32.342,-12.6,-194.91500000000002,28.84,-0.0019519999999999989,-0.17470399999999997,-1.5530599999999999,1
2024-06-14 10:29:32.347,-23.205,-183.12,16.31,-0.0488,-0.34086799999999995,-1.2441559999999998,1
2024-06-14 10:29:32.352,-25.34,-179.095,-1.225,-0.029524,-0.278404,-1.194868,1
2024-06-14 10:29:32.357,-19.11,-170.065,-12.285,0.031232000000000003,-0.171044,-1.279048,1
2024-06-14 10:29:32.362,-21.14,-120.505,-15.924999999999999,0.10638399999999999,-0.016592000000000003,-1.3061319999999998,1
2024-06-14 10:29:32.367,-20.3,-79.38,-12.600000000000001,0.125172,0.063684,-1.348832,1
2024-06-14 10:29:32.371,-19.18,-15.715,-3.22,0.181048,0.12932,-1.269288,1
2024-06-14 10:29:32.376,-11.375,7.735,7.0,0.12102399999999999,0.066368,-1.151192,1
2024-06-14 10:29:32.381,-7.9799999999999995,12.844999999999999,11.375,0.072956,-0.0017080000000000012,-1.082872,1
2024-06-14 10:29:32.386,-6.475,12.285,8.504999999999999,0.060267999999999995,-0.058072,-1.061156,1
2024-06-14 10:29:32.391,-5.215,9.555,2.52,0.052704,-0.043676,-1.0518839999999998,1
2024-06-14 10:29:32.396,-4.865,5.32,-1.4700000000000002,0.044407999999999996,-0.025863999999999998,-1.0521280000000002,2
2024-06-14 10:29:32.400,-6.369999999999999,0.56,-6.125,0.099552,-0.05978,-1.069452,2
2024-06-14 10:29:32.405,-6.545,-6.51,-4.41,0.025132,0.031232,-1.0445639999999998,2
2024-06-14 10:29:32.410,-6.055,-8.68,-3.1499999999999995,-0.034892,0.033916,-1.006012,2
2024-06-14 10:29:32.415,-4.34,-7.7,-1.575,-0.033916,-0.00366,-1.0060120000000001,2
2024-06-14 10:29:32.420,-5.355,-10.184999999999999,-1.225,0.0019520000000000002,-0.0060999999999999995,-1.02724,2
2024-06-14 10:29:32.425,-4.48,-14.525,-1.435,-0.007808,0.008296000000000001,-1.02358,2
2024-06-14 10:29:32.429,-3.185,-16.45,-1.26,-0.019032,0.015616,-1.0133320000000001,2
2024-06-14 10:29:32.434,-2.45,-18.55,-1.05,-0.011467999999999999,0.0053679999999999995,-1.013576,2
2024-06-14 10:29:32.439,-1.085,-21.665,-1.225,-0.034892,-0.043188,-0.989664,2
2024-06-14 10:29:32.444,-0.9450000000000001,-23.555,-1.295,-0.015615999999999998,-0.018056,-1.000156,2
2024-06-14 10:29:32.449,-0.665,-24.5,-1.26,-0.030988,-0.003172,-1.004792,2
2024-06-14 10:29:32.454,0.0,-24.78,-1.12,-0.017811999999999998,-0.002684,-1.009428,2
2024-06-14 10:29:32.458,0.17500000000000002,-24.185000000000002,-0.77,-0.007320000000000002,0.010736,-1.008208,2
2024-06-14 10:29:32.463,0.45499999999999996,-23.905,-0.45499999999999996,-0.020007999999999998,-0.014395999999999999,-1.004792,2
2024-06-14 10:29:32.468,0.35,-25.549999999999997,-0.245,-0.010247999999999998,-0.007807999999999999,-1.001376,2
2024-06-14 10:29:32.473,0.10500000000000001,-26.564999999999998,0.0,-0.055875999999999995,-0.022204,-1.017968,2
2024-06-14 10:29:32.478,-0.10500000000000001,-27.09,0.175,0.05978,-0.0009760000000000003,-1.000888,2
2024-06-14 10:29:32.483,-0.07,-29.365000000000002,0.49,0.035379999999999995,-0.025863999999999998,-0.984784,2
2024-06-14 10:29:32.488,1.435,-28.735,0.77,0.014884,-0.016347999999999998,-0.996008,2
2024-06-14 10:29:32.492,-0.7349999999999999,-30.66,0.84,-0.016348,-0.008052,-1.0126,2
2024-06-14 10:29:32.497,-0.14,-34.545,0.77,-0.005612,-0.003904,-1.00406,2
2024-06-14 10:29:32.502,-0.10500000000000004,-33.635,0.5599999999999999,-0.003904,-0.012444,-0.9962519999999999,2
2024-06-14 10:29:32.507,-0.525,-54.915,0.35,0.0007319999999999991,-0.017568,-0.980392,2
2024-06-14 10:29:32.512,-2.5549999999999997,-38.045,0.6299999999999999,0.010736,-0.010248,-0.9889319999999999,2
2024-06-14 10:29:32.517,-3.01,-55.965,1.54,0.0053679999999999995,-0.023912,-1.00406,2
2024-06-14 10:29:32.521,-3.605,-57.96,1.8199999999999998,0.019032,-0.025619999999999997,-1.005036,2
2024-06-14 10:29:32.526,-6.6850000000000005,-40.81,1.995,0.026839999999999996,-0.022204,-1.005036,2
2024-06-14 10:29:32.531,-7.875,-38.92,2.3449999999999998,0.036112,-0.018788,-1.009916,2
2024-06-14 10:29:32.536,-7.629999999999999,-41.474999999999994,2.87,0.035136,-0.01708,-1.012112,2
2024-06-14 10:29:32.541,-8.26,-42.735,3.36,0.040015999999999996,-0.0183,-1.0084520000000001,2
2024-06-14 10:29:32.546,-8.120000000000001,-42.0,3.535,0.035136,0.007564000000000001,-1.003816,2
2024-06-14 10:29:32.550,-8.225,-37.730000000000004,3.465,0.05538800000000001,-0.011711999999999998,-1.009428,2
2024-06-14 10:29:32.555,-9.59,-38.325,4.06,0.05538799999999999,-0.016347999999999998,-1.011868,2
2024-06-14 10:29:32.560,-9.940000000000001,-36.33,3.675,0.049044,0.002196,-1.0140639999999999,2
2024-06-14 10:29:32.565,-10.395,-34.65,3.605,0.048311999999999994,0.000732,-1.01138,2
2024-06-14 10:29:32.570,-10.780000000000001,-33.11,3.675,0.060267999999999995,0.01586,-1.00772,2
2024-06-14 10:29:32.575,-10.71,-33.214999999999996,3.535,0.06222,0.00048800000000000004,-1.01382,2
2024-06-14 10:29:32.579,-5.32,-29.575000000000003,1.435,0.054167999999999994,0.036356,-1.0970239999999998,2
2024-06-14 10:29:32.584,-11.27,-34.965,3.745,0.051239999999999994,-0.00024399999999999943,-1.012112,2
2024-06-14 10:29:32.589,-12.915,-34.51,4.165,0.0549,-0.012688,-1.026996,2
2024-06-14 10:29:32.594,-14.245000000000001,-34.825,4.6899999999999995,0.05978,-0.023424,-1.0311439999999998,2
2024-06-14 10:29:32.599,-15.96,-35.489999999999995,5.705,0.059292,-0.044163999999999995,-1.038708,2
2024-06-14 10:29:32.604,-18.095,-34.72,7.279999999999999,0.061731999999999995,-0.05953599999999999,-1.01992,2
2024-06-14 10:29:32.608,-18.759999999999998,-34.44,8.995000000000001,0.07588400000000001,-0.045628,-1.028216,2
2024-06-14 10:29:32.613,-19.04,-34.265,10.605,0.072224,-0.053924,-1.03334,2
2024-06-14 10:29:32.618,-19.39,-34.44,12.145,0.079056,-0.051484,-1.0445639999999998,2
2024-06-14 10:29:32.623,-17.71,-34.23,13.09,0.08637600000000001,-0.027816,-1.065792,2
2024-06-14 10:29:32.628,-13.195,-33.53,14.14,0.10150400000000001,-0.018544,-1.109956,2
2024-06-14 10:29:32.633,-11.515,-29.645000000000003,14.735,0.106384,0.011711999999999998,-1.156072,2
2024-06-14 10:29:32.637,-6.055,-31.045,13.79,0.095648,0.107604,-1.2078000000000002,2
2024-06-14 10:29:32.642,-3.5,-38.045,11.27,0.09418399999999999,0.14517999999999998,-1.205848,2
2024-06-14 10:29:32.647,-0.3849999999999999,-42.489999999999995,8.785,0.096136,0.11956,-1.215364,2
2024-06-14 10:29:32.652,6.369999999999999,-45.709999999999994,7.385,0.09345200000000001,0.104432,-1.256844,2
2024-06-14 10:29:32.657,11.48,-49.665000000000006,5.915,0.102724,0.11516799999999999,-1.2941759999999998,2
2024-06-14 10:29:32.662,16.485,-50.47,4.34,0.101504,0.09711199999999999,-1.3024719999999999,2
2024-06-14 10:29:32.666,15.155000000000001,-58.835,2.695,0.09272,0.071736,-1.2670919999999999,2
2024-06-14 10:29:32.671,19.39,-71.225,1.82,0.06588,0.169336,-1.448628,2
2024-06-14 10:29:32.676,29.330000000000002,-79.1,0.91,0.139324,-0.07002799999999999,-1.54208,2
2024-06-14 10:29:32.681,15.434999999999999,-84.77,1.47,0.069052,-0.04392,-1.371524,3
2024-06-14 10:29:32.686,21.14,-92.68,2.205,0.070516,0.09028,-1.521096,3
2024-06-14 10:29:32.691,19.810000000000002,-105.7,0.9450000000000001,0.096136,0.005855999999999998,-1.554036,3
2024-06-14 10:29:32.699,18.025,-117.005,1.435,0.080764,-0.03294,-1.44692,3
2024-06-14 10:29:32.703,21.91,-125.86,1.505,0.073444,0.077836,-1.424716,3
2024-06-14 10:29:32.708,24.255000000000003,-137.9,0.14,0.088572,0.090524,-1.560624,3
2024-06-14 10:29:32.713,24.535,-150.115,-0.8049999999999999,0.077104,0.018544,-1.526952,3
2024-06-14 10:29:32.718,27.79,-165.41,-0.665,0.06490399999999999,0.06954,-1.543056,3
2024-06-14 10:29:32.723,25.445,-184.835,-0.77,0.073444,0.09125599999999999,-1.5938080000000001,3
2024-06-14 10:29:32.727,25.9,-200.2,-1.995,0.059047999999999996,0.043188,-1.6711559999999999,3
2024-06-14 10:29:32.732,29.225,-219.065,-1.505,0.05002,0.013419999999999998,-1.6833559999999999,3
2024-06-14 10:29:32.737,27.79,-241.70999999999998,-1.8900000000000001,0.044896,0.043676,-1.78852,3
2024-06-14 10:29:32.742,25.375,-267.505,-2.275,0.030012,0.01586,-1.945656,3
2024-06-14 10:29:32.747,27.895,-292.91499999999996,-1.9949999999999999,0.019032,0.004636,-2.056188,3
2024-06-14 10:29:32.751,27.51,-319.235,-1.9949999999999999,-0.017324,0.019032,-2.198196,3
2024-06-14 10:29:32.756,28.245,-346.04499999999996,-2.2750000000000004,-0.010735999999999999,0.068076,-2.363628,3
2024-06-14 10:29:32.761,30.275,-370.15999999999997,-3.955,-0.016592000000000003,0.121512,-2.479528,3
2024-06-14 10:29:32.766,34.3,-393.155,-5.915,0.010248,0.06490399999999999,-2.669848,3
2024-06-14 10:29:32.771,39.515,-418.495,-6.720000000000001,0.106872,0.140544,-2.842112,3
2024-06-14 10:29:32.775,40.425,-441.385,-10.045,0.10492,0.11882799999999999,-3.2134799999999997,3
2024-06-14 10:29:32.780,45.64,-465.08000000000004,-11.059999999999999,0.048311999999999994,-0.037332,-3.453576,3
2024-06-14 10:29:32.785,47.53,-490.90999999999997,-11.55,0.000732,-0.001708,-3.558252,3
2024-06-14 10:29:32.790,54.495,-519.435,-12.075,-0.053191999999999996,0.00024399999999999986,-3.665856,3
2024-06-14 10:29:32.795,56.245000000000005,-546.7,-12.775,-0.041479999999999996,-0.033428,-3.8676439999999994,3
2024-06-14 10:29:32.800,53.515,-573.37,-11.235,-0.15201199999999998,-0.09272,-3.960852,3
2024-06-14 10:29:32.804,50.295,-598.815,-8.085,-0.23863199999999998,-0.06124400000000001,-4.049424,3
2024-06-14 10:29:32.809,35.07,-612.0799999999999,-6.195,-0.262544,-0.029036,-4.476179999999999,3
2024-06-14 10:29:32.814,31.15,-622.405,-5.8100000000000005,-0.309148,-0.26474000000000003,-4.707492,3
2024-06-14 10:29:32.819,32.97,-625.73,-2.1,-0.360876,-0.47531199999999996,-5.007368,3
2024-06-14 10:29:32.824,35.49,-619.99,6.4399999999999995,-0.7754319999999999,-0.600484,-4.612819999999999,3
2024-06-14 10:29:32.828,29.995,-600.95,15.82,-1.4862039999999999,-0.563396,-4.0460080000000005,3
2024-06-14 10:29:32.833,39.97,-565.005,23.555,-2.450004,-0.462624,-3.209088,3
2024-06-14 10:29:32.838,47.355000000000004,-560.735,30.275,-3.371104,-0.599264,-2.961672,4
2024-06-14 10:29:32.843,18.62,-569.135,34.894999999999996,-3.7517440000000004,-0.73444,-2.121824,4
2024-06-14 10:29:32.848,-78.53999999999999,-529.06,26.18,-4.783131999999999,0.34965199999999996,1.0606680000000002,4
2024-06-14 10:29:32.852,-94.045,-452.30499999999995,12.11,-3.8046919999999997,0.373564,0.9686799999999999,4
2024-06-14 10:29:32.857,-48.58,-286.96500000000003,-10.01,-2.279692,-0.263032,-2.16672,4
2024-06-14 10:29:32.862,-58.135,-122.91999999999999,-28.630000000000003,-1.6718879999999998,-1.7428919999999999,-3.463092,4
2024-06-14 10:29:32.867,-60.06,46.025,-89.495,-3.510916,-0.436272,-1.3790879999999999,4
2024-06-14 10:29:32.872,-49.945,149.695,-92.505,-3.2242159999999997,-0.33672,-1.9136920000000002,4
2024-06-14 10:29:32.876,-50.715,196.525,-73.43,-2.1059639999999997,-0.303292,-1.7809559999999998,4
2024-06-14 10:29:32.881,-78.25999999999999,190.4,-49.769999999999996,-1.4815679999999998,-0.445056,-1.711904,4
2024-06-14 10:29:32.886,-112.97999999999999,170.59,-24.71,-1.389824,-0.4209,-1.4091,4
2024-06-14 10:29:32.891,-133.49,161.805,5.18,-1.438624,-0.43456399999999995,-1.1372839999999997,4
2024-06-14 10:29:32.896,-131.285,172.34,34.3,-1.519876,-0.498492,-1.025532,4
2024-06-14 10:29:32.901,-113.295,198.485,59.5,-1.5640399999999999,-0.499224,-0.936716,4
2024-06-14 10:29:32.905,-90.265,235.34,78.505,-1.589416,-0.39113200000000004,-0.866932,4
2024-06-14 10:29:32.910,-73.885,276.71000000000004,91.35,-1.554036,-0.23057999999999998,-0.8222799999999999,4
2024-06-14 10:29:32.915,-69.895,315.315,98.66499999999999,-1.443992,-0.059292,-0.827404,4
2024-06-14 10:29:32.920,-76.78999999999999,346.22,101.57,-1.301984,0.07417599999999999,-0.8422879999999999,4
2024-06-14 10:29:32.925,-89.845,368.095,100.765,-1.14558,0.153964,-0.861808,4
2024-06-14 10:29:32.929,-104.02000000000001,380.94000000000005,97.265,-0.9811240000000001,0.148108,-0.903532,4
2024-06-14 10:29:32.934,-114.66,387.065,92.75,-0.8532679999999999,0.104188,-0.92964,4
2024-06-14 10:29:32.939,-115.71000000000001,389.375,87.605,-0.747616,0.010248000000000002,-0.953064,4
2024-06-14 10:29:32.944,-107.17,389.48,82.11,-0.6539200000000001,-0.08784,-0.935496,4
2024-06-14 10:29:32.949,-92.085,389.62,75.74000000000001,-0.611464,-0.129076,-0.86986,4
2024-06-14 10:29:32.953,-73.43,390.705,68.18,-0.586332,-0.13785999999999998,-0.839848,4
2024-06-14 10:29:32.958,-53.34,391.265,59.325,-0.520696,-0.126636,-0.876692,4
2024-06-14 10:29:32.963,-33.705,389.83000000000004,48.3,-0.43944399999999995,-0.11443600000000001,-0.9335439999999999,4
2024-06-14 10:29:32.968,-16.73,386.155,35.035,-0.368684,-0.09686800000000001,-0.97234,4
2024-06-14 10:29:32.973,-2.8,381.325,20.125,-0.310612,-0.072956,-1.036512,4
2024-06-14 10:29:32.978,7.630000000000001,376.28499999999997,4.235,-0.26571599999999995,-0.0549,-1.081896,4
2024-06-14 10:29:32.982,14.805,371.7,-11.795,-0.250832,-0.043188000000000004,-1.147532,4
2024-06-14 10:29:32.987,18.200000000000003,367.85,-27.09,-0.22936,-0.035624,-1.200968,4
2024-06-14 10:29:32.992,19.46,365.645,-40.95,-0.21057199999999998,-0.048068,-1.253428,4
2024-06-14 10:29:32.997,19.88,364.77,-52.64,-0.216428,-0.08759600000000001,-1.3127199999999999,4
2024-06-14 10:29:33.002,21.14,365.4,-61.775000000000006,-0.221308,-0.14029999999999998,-1.358104,4
2024-06-14 10:29:33.006,24.36,367.815,-68.11,-0.216428,-0.188612,-1.417152,4
2024-06-14 10:29:33.011,28.945,371.21,-71.64500000000001,-0.20862,-0.22887200000000002,-1.47254,4
2024-06-14 10:29:33.016,33.599999999999994,374.43,-72.87,-0.192028,-0.261324,-1.5403719999999999,4
2024-06-14 10:29:33.021,38.394999999999996,377.02,-72.17,-0.175192,-0.27815999999999996,-1.606008,4
2024-06-14 10:29:33.026,42.769999999999996,379.505,-70.42,-0.15689199999999998,-0.282064,-1.672132,4
2024-06-14 10:29:33.030,45.675,382.095,-67.62,-0.144448,-0.264984,-1.735816,4
2024-06-14 10:29:33.035,46.935,384.405,-64.82,-0.09296399999999999,-0.23546,-1.7697319999999999,4
2024-06-14 10:29:33.040,47.635000000000005,387.03,-62.405,-0.025619999999999997,-0.211304,-1.825364,4
2024-06-14 10:29:33.045,47.739999999999995,388.57,-59.56999999999999,-0.063196,-0.234728,-1.9366280000000002,4
2024-06-14 10:29:33.050,43.504999999999995,388.15,-56.209999999999994,-0.007076,-0.191784,-1.9400439999999999,4
2024-06-14 10:29:33.054,42.21,387.41499999999996,-52.535,-0.008783999999999998,-0.24180400000000002,-2.024712,4
2024-06-14 10:29:33.059,44.59,384.405,-47.004999999999995,0.016592000000000003,-0.26522799999999996,-2.0549679999999997,4
2024-06-14 10:29:33.064,49.84,381.045,-40.355000000000004,0.029768,-0.281332,-2.101572,4
2024-06-14 10:29:33.069,56.385000000000005,377.44,-33.355000000000004,0.063928,-0.26815599999999995,-2.190632,4
2024-06-14 10:29:33.074,60.900000000000006,374.01,-26.775,0.146644,-0.22814,-2.293844,4
2024-06-14 10:29:33.079,61.25,370.54499999999996,-21.560000000000002,0.251808,-0.17177599999999998,-2.358504,4
2024-06-14 10:29:33.083,57.89,366.835,-17.71,0.34282,-0.111996,-2.414136,4
2024-06-14 10:29:33.088,52.64,363.79,-14.875,0.432368,-0.066612,-2.472696,4
2024-06-14 10:29:33.093,46.480000000000004,361.83000000000004,-12.355,0.5277719999999999,-0.037332,-2.504904,4
2024-06-14 10:29:33.098,40.81,361.445,-9.73,0.626592,-0.038551999999999996,-2.520764,4
2024-06-14 10:29:33.103,35.665,361.48,-6.37,0.751764,-0.062464,-2.5554119999999996,4
2024-06-14 10:29:33.107,31.99,360.85,-1.75,0.909632,-0.11199599999999998,-2.577128,4
2024-06-14 10:29:33.112,30.064999999999998,358.47,4.27,1.101172,-0.177388,-2.599576,4
2024-06-14 10:29:33.117,30.450000000000003,354.44500000000005,12.25,1.29808,-0.238388,-2.6327599999999998,4
2024-06-14 10:29:33.122,32.62,349.265,22.225,1.512556,-0.298168,-2.669116,4
2024-06-14 10:29:33.127,35.769999999999996,343.595,34.02,1.7543600000000001,-0.33428,-2.68156,4
2024-06-14 10:29:33.131,40.81,337.995,46.935,2.006656,-0.33354799999999996,-2.6744839999999996,4
2024-06-14 10:29:33.136,48.3,331.765,59.92,2.280424,-0.290116,-2.683512,4
2024-06-14 10:29:33.141,54.95,324.485,71.925,2.56444,-0.20496,-2.666188,4
2024-06-14 10:29:33.146,58.59,315.07,82.215,2.860412,-0.084668,-2.611044,4
2024-06-14 10:29:33.151,58.835,302.155,89.565,3.1766360000000002,0.038063999999999994,-2.5273519999999996,4
2024-06-14 10:29:33.156,54.11,284.76,94.255,3.490176,0.13541999999999998,-2.435364,4
2024-06-14 10:29:33.160,43.61,260.855,96.94999999999999,3.813964,0.190564,-2.375096,4
2024-06-14 10:29:33.165,29.54,230.965,99.925,4.20046,0.165676,-2.3270280000000003,4
2024-06-14 10:29:33.170,11.9,196.76999999999998,104.405,4.567924,0.07198,-2.236748,4
2024-06-14 10:29:33.175,-1.12,162.54,110.74000000000001,4.879023999999999,-0.03171999999999999,-2.125484,4
2024-06-14 10:29:33.180,-15.33,126.805,118.02,5.1281479999999995,-0.178608,-2.0008,4
2024-06-14 10:29:33.184,-21.525,88.97,126.245,5.297484000000001,-0.30207199999999995,-1.9110079999999998,4
2024-06-14 10:29:33.189,-17.22,50.225,133.175,5.379712,-0.357704,-1.804624,4
2024-06-14 10:29:33.194,-5.81,12.81,135.94,5.385812,-0.319884,-1.7563119999999999,4
2024-06-14 10:29:33.199,6.6850000000000005,-23.310000000000002,133.7,5.277964,-0.1769,-1.759728,4
2024-06-14 10:29:33.204,-161.035,-208.25,108.71000000000001,7.031104,1.877336,-7.2951120000000005,4
