time,gyroscope_x,gyroscope_y,gyroscope_z,accelerometer_x,accelerometer_y,accelerometer_z,phase
2024-06-14 07:26:44.353,-28.35,-315.28,45.29,-3.2857039999999995,-0.018544,3.35012,1
2024-06-14 07:26:44.357,112.42,-311.36,35.42,-1.6025919999999998,-0.200568,-0.565104,1
2024-06-14 07:26:44.362,137.27,-391.86,28.84,-0.304024,-0.17079999999999998,-0.890112,1
2024-06-14 07:26:44.367,142.03,-427.28,26.32,0.450912,-0.169336,-2.014952,1
2024-06-14 07:26:44.372,101.22,-431.48,26.25,0.9394,-0.133712,-2.441464,1
2024-06-14 07:26:44.377,48.44,-424.27,21.63,0.732,-0.113216,-2.44244,1
2024-06-14 07:26:44.381,29.61,-398.44,21.77,0.200568,-0.111264,-2.555168,1
2024-06-14 07:26:44.386,25.83,-363.72,20.3,-0.025376,-0.229848,-2.5585839999999997,1
2024-06-14 07:26:44.391,47.67,-339.01,7.7,-0.050752,-0.301584,-2.473184,1
2024-06-14 07:26:44.396,55.02,-324.24,-10.57,0.039528,-0.233752,-2.226256,2
2024-06-14 07:26:44.401,52.22,-315.14,-21.63,0.00488,-0.079544,-1.965176,2
2024-06-14 07:26:44.406,38.15,-308.07,-23.8,-0.044408,-0.001464,-1.9134479999999998,2
2024-06-14 07:26:44.410,23.24,-292.25,-21.56,-0.044408,0.075152,-1.69824,2
2024-06-14 07:26:44.415,29.19,-266.63,-17.57,-0.008296,0.13663999999999998,-1.947608,2
2024-06-14 07:26:44.420,30.94,-225.75,-13.72,0.047335999999999996,0.09711199999999999,-1.75436,2
2024-06-14 07:26:44.425,28.63,-183.82,-9.8,0.08491199999999999,0.12932,-1.5835599999999999,2
2024-06-14 07:26:44.430,29.12,-143.92,-3.36,0.060024,0.110776,-1.605032,2
2024-06-14 07:26:44.434,19.53,-102.13,0.42,0.027327999999999998,0.048312,-1.351272,2
2024-06-14 07:26:44.439,12.81,-82.67,1.26,-0.012199999999999999,0.028791999999999998,-1.261968,2
2024-06-14 07:26:44.444,7.42,-66.64,-0.35,-0.017079999999999998,-0.040015999999999996,-1.216096,2
2024-06-14 07:26:44.449,2.03,-55.86,-3.99,0.001464,-0.02196,-1.208288,2
2024-06-14 07:26:44.454,-3.43,-48.72,-6.86,-0.020007999999999998,0.005368,-1.12728,2
2024-06-14 07:26:44.458,-7.21,-45.29,-7.98,-0.001952,0.028791999999999998,-1.118496,2
2024-06-14 07:26:44.463,-9.45,-44.59,-7.63,0.088816,0.08247199999999999,-1.084824,2
2024-06-14 07:26:44.468,-8.33,-40.32,-2.8,-0.006344,0.149816,-1.1204479999999999,2
2024-06-14 07:26:44.473,-3.36,-38.85,-1.05,0.077592,0.135176,-1.142896,2
2024-06-14 07:26:44.478,-2.52,-35.56,2.17,0.038064,0.042944,-1.121912,2
2024-06-14 07:26:44.482,-6.02,-32.97,1.89,-0.032695999999999996,0.019032,-1.00284,2
2024-06-14 07:26:44.487,-9.24,-33.18,0.28,-0.073688,0.001952,-0.999912,2
2024-06-14 07:26:44.492,-11.9,-33.74,-1.4,-0.044408,0.0366,-1.0238239999999998,2
2024-06-14 07:26:44.497,-13.16,-35.63,-2.24,-0.029768,0.045384,-1.050664,2
2024-06-14 07:26:44.502,-13.65,-36.82,-2.03,-0.022448,0.049288,-1.021384,2
2024-06-14 07:26:44.506,-13.16,-36.68,-1.61,-0.048799999999999996,0.062952,-0.99796,2
2024-06-14 07:26:44.511,-11.27,-34.86,-1.89,-0.033671999999999994,0.05856,-1.000888,2
2024-06-14 07:26:44.516,-10.08,-34.65,-2.1,-0.021472,0.05856,-1.010648,2
2024-06-14 07:26:44.521,-8.96,-34.86,-2.17,-0.001952,0.066368,-1.013576,2
2024-06-14 07:26:44.526,-8.26,-34.23,-2.1,-0.012688,0.059048,-1.015528,2
2024-06-14 07:26:44.530,-7.14,-32.83,-1.82,-0.005368,0.061488,-1.0047920000000001,2
2024-06-14 07:26:44.535,-6.02,-31.22,-2.03,-0.012199999999999999,0.059536,-1.005768,2
2024-06-14 07:26:44.540,-5.67,-29.89,-2.17,0.001952,0.061,-1.006256,2
2024-06-14 07:26:44.545,-5.46,-29.61,-2.17,0.005856,0.053192,-1.0096720000000001,2
2024-06-14 07:26:44.550,-5.32,-29.4,-2.24,0.005368,0.066368,-1.006744,2
2024-06-14 07:26:44.555,-4.97,-28.91,-2.03,0.0068319999999999995,0.055144,-1.0096720000000001,2
2024-06-14 07:26:44.559,-4.62,-28.14,-2.1,0.013663999999999999,0.062952,-1.013088,2
2024-06-14 07:26:44.564,-4.48,-27.65,-2.03,0.005856,0.057095999999999994,-1.010648,2
2024-06-14 07:26:44.569,-4.48,-26.81,-2.03,0.011224,0.064416,-1.006744,2
2024-06-14 07:26:44.574,-4.13,-27.72,-2.17,-0.005856,0.061488,-1.0140639999999999,2
2024-06-14 07:26:44.579,-4.34,-27.02,-2.24,0.019032,0.050263999999999996,-1.007232,2
2024-06-14 07:26:44.583,-4.62,-26.32,-2.17,0.018544,0.054655999999999996,-1.010648,2
2024-06-14 07:26:44.588,-5.04,-25.83,-2.17,0.01952,0.063928,-1.011136,2
2024-06-14 07:26:44.593,-5.67,-27.16,-2.24,0.018056000000000003,0.06588,-1.013088,2
2024-06-14 07:26:44.598,-6.02,-26.53,-2.45,0.012688,0.055632,-1.01016,2
2024-06-14 07:26:44.603,-6.93,-28.0,-2.31,0.016592,0.06490399999999999,-1.010648,2
2024-06-14 07:26:44.607,-7.63,-30.17,-2.17,0.008296,0.057095999999999994,-1.025776,2
2024-06-14 07:26:44.612,-8.05,-32.97,-2.24,0.024887999999999997,0.052704,-1.021384,2
2024-06-14 07:26:44.617,-9.1,-33.81,-2.03,0.027327999999999998,0.064416,-1.0126,2
2024-06-14 07:26:44.622,-10.43,-38.5,-1.75,0.040992,0.056608,-1.0145520000000001,2
2024-06-14 07:26:44.627,-13.16,-44.17,-1.82,0.032208,0.066368,-1.023336,2
2024-06-14 07:26:44.631,-14.28,-48.86,-1.82,0.038064,0.062464,-1.0267519999999999,2
2024-06-14 07:26:44.636,-15.19,-84.35,-1.75,0.056608,0.06783199999999999,-1.0004,2
2024-06-14 07:26:44.641,-12.74,-47.46,-1.47,0.040992,0.06490399999999999,-1.0365119999999999,2
2024-06-14 07:26:44.646,-16.03,-48.72,-0.98,0.061488,0.06588,-1.016016,2
2024-06-14 07:26:44.651,-17.43,-50.26,-0.35,0.048312,0.06783199999999999,-1.0340719999999999,2
2024-06-14 07:26:44.655,-19.74,-50.33,-0.42,0.064416,0.079056,-1.013088,2
2024-06-14 07:26:44.660,-20.16,-49.98,0.0,0.066368,0.075152,-1.01504,2
2024-06-14 07:26:44.665,-22.05,-48.86,0.49,0.077104,0.076616,-1.01016,2
2024-06-14 07:26:44.670,-9.45,-52.92,1.4,0.07564,0.101992,-0.929152,2
2024-06-14 07:26:44.675,-16.59,-39.62,0.21,0.08295999999999999,0.093696,-0.9706319999999999,2
2024-06-14 07:26:44.679,-15.33,-36.19,-0.42,0.08295999999999999,0.095648,-0.962336,2
2024-06-14 07:26:44.684,-13.44,-31.36,-0.7,0.08491199999999999,0.102968,-0.955016,2
2024-06-14 07:26:44.689,-10.01,-26.04,-1.05,0.08784,0.105896,-0.94184,2
2024-06-14 07:26:44.694,-5.25,-20.3,-1.33,0.091744,0.105408,-0.932568,2
2024-06-14 07:26:44.699,-1.89,-14.77,-1.82,0.09467199999999999,0.102968,-0.937448,2
2024-06-14 07:26:44.704,3.08,-9.52,-2.03,0.094184,0.108824,-0.93452,2
2024-06-14 07:26:44.708,6.65,-4.97,-2.31,0.09467199999999999,0.10931199999999999,-0.9384239999999999,2
2024-06-14 07:26:44.713,11.34,-0.63,-2.45,0.091256,0.101016,-0.950624,2
2024-06-14 07:26:44.718,14.0,2.73,-2.66,0.08784,0.09711199999999999,-0.959896,2
2024-06-14 07:26:44.723,17.22,5.18,-3.01,0.090768,0.10394400000000001,-0.9677039999999999,2
2024-06-14 07:26:44.728,19.81,6.79,-3.22,0.083448,0.093208,-0.98332,2
2024-06-14 07:26:44.732,22.19,7.63,-3.36,0.083448,0.095648,-0.9872239999999999,2
2024-06-14 07:26:44.737,24.29,8.19,-3.71,0.083936,0.09759999999999999,-0.9960079999999999,2
2024-06-14 07:26:44.742,25.55,8.82,-4.06,0.08491199999999999,0.09272,-1.0043039999999999,2
2024-06-14 07:26:44.747,26.39,9.17,-4.41,0.088816,0.07808,-1.008208,2
2024-06-14 07:26:44.752,26.32,8.89,-4.48,0.08539999999999999,0.078568,-1.0238239999999998,2
2024-06-14 07:26:44.756,26.25,7.63,-4.62,0.076616,0.07466400000000001,-1.0194320000000001,2
2024-06-14 07:26:44.761,26.11,6.16,-4.83,0.081984,0.074176,-1.016992,2
2024-06-14 07:26:44.766,26.25,4.9,-5.11,0.083448,0.076128,-1.012112,2
2024-06-14 07:26:44.771,25.69,4.41,-5.53,0.088816,0.068808,-1.00772,2
2024-06-14 07:26:44.776,24.78,5.53,-5.6,0.092232,0.054168,-0.999424,2
2024-06-14 07:26:44.780,23.66,7.07,-5.67,0.088328,0.042455999999999994,-1.011624,2
2024-06-14 07:26:44.785,22.05,7.42,-5.46,0.092232,0.023424,-1.020408,2
2024-06-14 07:26:44.790,18.9,6.09,-4.76,0.092232,0.00488,-1.0262639999999998,2
2024-06-14 07:26:44.795,15.47,3.99,-3.85,0.09272,0.002928,-1.033584,2
2024-06-14 07:26:44.800,12.11,0.77,-2.87,0.085888,0.01464,-1.033096,2
2024-06-14 07:26:44.804,10.15,-3.15,-2.31,0.07564,0.032208,-1.031632,2
2024-06-14 07:26:44.809,9.52,-8.05,-2.1,0.071248,0.049288,-1.037488,2
2024-06-14 07:26:44.814,9.8,-13.65,-2.03,0.072712,0.059536,-1.04676,2
2024-06-14 07:26:44.819,10.29,-19.95,-2.03,0.07564,0.054168,-1.0535919999999999,2
2024-06-14 07:26:44.824,10.08,-26.6,-2.1,0.073688,0.056608,-1.060424,2
2024-06-14 07:26:44.828,9.24,-33.67,-2.24,0.0732,0.06539199999999999,-1.0574959999999998,2
2024-06-14 07:26:44.833,8.4,-41.51,-2.59,0.083448,0.07173600000000001,-1.0657919999999999,2
2024-06-14 07:26:44.838,7.84,-49.35,-3.08,0.083448,0.096624,-1.0789680000000001,2
2024-06-14 07:26:44.843,7.84,-57.89,-3.92,0.093208,0.073688,-1.101416,2
2024-06-14 07:26:44.848,3.36,-73.78,-5.32,0.10492,0.155184,-1.101904,2
2024-06-14 07:26:44.848,8.54,-66.15,-4.13,0.099064,0.055144,-1.1253279999999999,2
2024-06-14 07:26:44.852,-4.2,-80.36,-6.86,0.11712,0.1098,-1.1165439999999998,2
2024-06-14 07:26:44.857,-10.43,-85.26,-7.49,0.126392,0.03172,-1.2068240000000001,2
2024-06-14 07:26:44.862,-19.74,-87.64,-7.56,0.132736,-0.0366,-1.301008,2
2024-06-14 07:26:44.867,-28.35,-82.46,-5.81,0.14884,-0.217648,-1.662616,2
2024-06-14 07:26:44.872,-16.87,-77.56,-0.14,0.11858400000000001,-0.025376,-1.328336,2
2024-06-14 07:26:44.876,-25.41,-84.84,-0.14,0.13224799999999998,0.010248,-1.4766879999999998,2
2024-06-14 07:26:44.881,-28.28,-94.57,0.7,0.120536,0.029768,-1.5079200000000001,3
2024-06-14 07:26:44.886,-30.17,-105.35,0.35,0.11858400000000001,0.08930400000000001,-1.549888,3
2024-06-14 07:26:44.891,-31.5,-115.29,-0.42,0.130296,0.062952,-1.5864880000000001,3
2024-06-14 07:26:44.896,-33.39,-125.86,-1.12,0.124928,0.07076,-1.62992,3
2024-06-14 07:26:44.901,-34.44,-136.92,-1.68,0.11956,0.052704,-1.636264,3
2024-06-14 07:26:44.905,-33.95,-147.98,-2.03,0.113704,0.026352,-1.6577359999999999,3
2024-06-14 07:26:44.910,-33.53,-156.52,-2.66,0.111264,0.093208,-1.6421199999999998,3
2024-06-14 07:26:44.915,-36.68,-167.51,-4.06,0.12395199999999999,0.101016,-1.658224,3
2024-06-14 07:26:44.920,-44.1,-175.28,-5.74,0.130296,0.14054399999999997,-1.66896,3
2024-06-14 07:26:44.925,-50.61,-185.57,-8.26,0.11467999999999999,0.135176,-1.7221520000000001,3
2024-06-14 07:26:44.930,-55.58,-196.35,-10.5,0.123464,0.122488,-1.764608,3
2024-06-14 07:26:44.934,-59.5,-207.62,-12.81,0.085888,0.145424,-1.74948,3
2024-06-14 07:26:44.939,-62.65,-220.22,-15.75,0.07564,0.170312,-1.752408,3
2024-06-14 07:26:44.944,-66.15,-234.29,-19.25,0.046848,0.169336,-1.792424,3
2024-06-14 07:26:44.949,-68.39,-249.2,-23.03,0.028791999999999998,0.121024,-1.8665999999999998,3
2024-06-14 07:26:44.954,-71.19,-265.93,-25.62,0.050263999999999996,0.07466400000000001,-1.996896,3
2024-06-14 07:26:44.959,-76.44,-284.83,-27.09,0.042455999999999994,0.076616,-2.102792,3
2024-06-14 07:26:44.963,-81.34,-305.55,-28.14,-0.016104,0.079056,-2.188192,3
2024-06-14 07:26:44.968,-85.33,-328.86,-29.89,-0.083448,0.118096,-2.226256,3
2024-06-14 07:26:44.973,-91.77,-359.87,-33.53,-0.13566399999999998,0.224968,-2.117432,3
2024-06-14 07:26:44.978,-98.14,-391.16,-38.85,-0.17519200000000001,0.325496,-2.272616,3
2024-06-14 07:26:44.983,-104.58,-420.07,-45.71,-0.19910399999999998,0.337696,-2.398032,3
2024-06-14 07:26:44.988,-113.96,-451.57,-52.01,-0.245952,0.366488,-2.633736,3
2024-06-14 07:26:44.992,-122.99,-469.98,-56.7,-0.157136,0.315248,-2.721576,3
2024-06-14 07:26:44.997,-135.38,-496.79,-56.91,0.072712,0.072712,-3.029016,3
2024-06-14 07:26:45.002,-138.95,-518.98,-47.74,0.526064,-0.180072,-3.3232799999999996,3
2024-06-14 07:26:45.007,-140.42,-533.61,-36.05,0.430904,0.012688,-3.410144,3
2024-06-14 07:26:45.012,-143.57,-528.71,-34.3,0.5328959999999999,0.194712,-3.3388959999999996,3
2024-06-14 07:26:45.016,-148.4,-532.42,-33.67,0.880352,-0.11858400000000001,-3.3584159999999996,3
2024-06-14 07:26:45.021,-128.87,-530.18,-25.41,0.6514800000000001,-0.340136,-3.55508,3
2024-06-14 07:26:45.026,-102.34,-519.68,-17.5,0.6466000000000001,0.010736,-3.6331599999999997,3
2024-06-14 07:26:45.031,-81.27,-518.07,-17.01,0.382104,0.107848,-3.375984,3
2024-06-14 07:26:45.036,-61.81,-522.97,-20.3,0.39771999999999996,0.311344,-3.0675679999999996,3
2024-06-14 07:26:45.041,-47.53,-522.48,-31.64,0.024399999999999998,0.5367999999999999,-2.85968,3
2024-06-14 07:26:45.045,-30.17,-520.8,-38.22,-0.029768,0.6017039999999999,-2.715232,3
2024-06-14 07:26:45.050,-27.09,-519.12,-42.28,-0.14884,1.0043039999999999,-2.826496,3
2024-06-14 07:26:45.055,-43.82,-491.68,-52.92,-0.5119119999999999,1.301008,-2.9036,3
2024-06-14 07:26:45.060,-68.18,-458.01,-62.51,-0.785192,1.4234959999999999,-2.767936,4
2024-06-14 07:26:45.065,-100.38,-416.01,-73.29,-1.189744,1.2897839999999998,-2.3238559999999997,4
2024-06-14 07:26:45.070,-121.94,-364.63,-82.81,-1.61528,0.8217920000000001,-1.809992,4
2024-06-14 07:26:45.074,-125.58,-305.41,-90.51,-2.24236,0.5680320000000001,-1.1458240000000002,4
2024-06-14 07:26:45.079,-121.94,-234.22,-106.96,-3.3916,0.396256,-0.544608,4
2024-06-14 07:26:45.084,-108.64,-137.97,-133.77,-2.173552,0.107848,-0.484584,4
2024-06-14 07:26:45.089,-73.43,-104.86,-131.95,-1.631872,0.093696,-0.643184,4
2024-06-14 07:26:45.094,-43.89,-36.75,-120.54,-2.0095840000000003,0.17568,-1.2805119999999999,4
2024-06-14 07:26:45.099,-13.02,63.0,-115.43,-2.221864,-0.381616,-1.371768,4
2024-06-14 07:26:45.103,17.64,136.5,-108.08,-1.971032,-0.638304,-1.140944,4
2024-06-14 07:26:45.108,44.8,174.86,-97.58,-1.606008,-0.379664,-1.01992,4
2024-06-14 07:26:45.113,67.41,193.34,-88.41,-1.397632,-0.057095999999999994,-1.04188,4
2024-06-14 07:26:45.118,81.34,204.61,-82.81,-1.29564,0.07027199999999999,-1.0262639999999998,4
2024-06-14 07:26:45.123,86.8,213.15,-80.36,-1.219512,0.09272,-0.940864,4
2024-06-14 07:26:45.128,87.5,219.66,-79.17,-1.162904,0.159088,-0.808616,4
2024-06-14 07:26:45.132,85.82,224.49,-78.96,-1.1228879999999999,0.25376,-0.706624,4
2024-06-14 07:26:45.137,82.74,228.83,-79.24,-1.072136,0.318176,-0.6353759999999999,4
2024-06-14 07:26:45.142,77.98,233.1,-79.45,-1.0365119999999999,0.32939999999999997,-0.5973120000000001,4
2024-06-14 07:26:45.147,72.45,238.49,-79.45,-0.9872239999999999,0.330376,-0.5675439999999999,4
2024-06-14 07:26:45.152,67.34,244.09,-79.03,-0.942816,0.335256,-0.5485119999999999,4
2024-06-14 07:26:45.157,63.63,249.62,-77.77,-0.913048,0.325496,-0.530944,4
2024-06-14 07:26:45.161,60.97,255.71,-75.39,-0.88328,0.27181599999999995,-0.532408,4
2024-06-14 07:26:45.166,60.48,262.64,-71.12,-0.8554639999999999,0.202032,-0.5338719999999999,4
2024-06-14 07:26:45.171,63.56,270.9,-64.54,-0.82472,0.125416,-0.5377759999999999,4
2024-06-14 07:26:45.176,70.21,280.77,-55.72,-0.80276,0.055144,-0.56852,4
2024-06-14 07:26:45.181,78.75,291.06,-45.01,-0.787632,0.041479999999999996,-0.603656,4
2024-06-14 07:26:45.185,87.36,301.07,-33.46,-0.767624,0.08784,-0.623664,4
2024-06-14 07:26:45.190,93.1,310.94,-22.4,-0.764696,0.176656,-0.658312,4
2024-06-14 07:26:45.195,93.87,320.04,-12.67,-0.748592,0.284992,-0.69296,4
2024-06-14 07:26:45.200,89.67,327.6,-4.27,-0.7276079999999999,0.39283999999999997,-0.7227279999999999,4
2024-06-14 07:26:45.205,81.06,333.41,2.52,-0.689056,0.481168,-0.749568,4
2024-06-14 07:26:45.210,69.65,337.4,8.05,-0.64904,0.539728,-0.784216,4
2024-06-14 07:26:45.214,56.77,339.99,12.46,-0.622688,0.5675439999999999,-0.8178880000000001,4
2024-06-14 07:26:45.219,44.17,342.51,15.89,-0.589504,0.5641280000000001,-0.854976,4
2024-06-14 07:26:45.224,33.25,344.75,18.62,-0.560712,0.539728,-0.891088,4
2024-06-14 07:26:45.229,24.57,347.2,21.28,-0.5465599999999999,0.50752,-0.9359839999999999,4
2024-06-14 07:26:45.234,17.57,350.28,23.38,-0.536312,0.489952,-0.9813679999999999,4
2024-06-14 07:26:45.239,11.55,354.2,24.99,-0.5328959999999999,0.479704,-1.030656,4
2024-06-14 07:26:45.243,5.67,358.96,26.18,-0.5328959999999999,0.4758,-1.083848,4
2024-06-14 07:26:45.248,-0.21,364.21,26.67,-0.534848,0.477752,-1.146312,4
2024-06-14 07:26:45.253,-6.02,369.95,26.53,-0.527528,0.46408799999999995,-1.21756,4
2024-06-14 07:26:45.258,-10.5,375.69,25.69,-0.520696,0.441152,-1.29808,4
2024-06-14 07:26:45.263,-13.72,381.43,24.15,-0.508496,0.419192,-1.382504,4
2024-06-14 07:26:45.268,-15.96,386.89,21.7,-0.50508,0.40455199999999997,-1.470832,4
2024-06-14 07:26:45.272,-16.94,392.35,18.41,-0.492392,0.381616,-1.5537919999999998,4
2024-06-14 07:26:45.277,-16.8,397.67,14.07,-0.482632,0.373808,-1.636264,4
2024-06-14 07:26:45.282,-16.45,402.78,8.54,-0.470432,0.38795999999999997,-1.73728,4
2024-06-14 07:26:45.287,-17.08,407.05,1.75,-0.45139999999999997,0.409432,-1.8480560000000001,4
2024-06-14 07:26:45.292,-18.69,410.48,-6.37,-0.423096,0.429928,-1.9529759999999998,4
2024-06-14 07:26:45.297,-21.7,413.28,-15.61,-0.381616,0.46311199999999997,-2.0549679999999997,4
2024-06-14 07:26:45.301,-26.6,414.96,-25.9,-0.337696,0.496784,-2.1594,4
2024-06-14 07:26:45.306,-33.18,415.73,-36.96,-0.28938400000000003,0.5148400000000001,-2.268712,4
2024-06-14 07:26:45.311,-41.23,415.24,-48.16,-0.22447999999999999,0.5280159999999999,-2.381928,4
2024-06-14 07:26:45.316,-49.63,413.56,-58.66,-0.152256,0.5192319999999999,-2.5029519999999996,4
2024-06-14 07:26:45.321,-58.45,409.92,-67.27,-0.06734399999999999,0.486048,-2.619096,4
2024-06-14 07:26:45.325,-66.99,403.9,-73.78,0.028304,0.448472,-2.7386559999999998,4
2024-06-14 07:26:45.330,-75.04,395.08,-77.35,0.11956,0.411384,-2.863584,4
2024-06-14 07:26:45.335,-82.39,384.16,-78.05,0.19422399999999998,0.3782,-2.995832,4
2024-06-14 07:26:45.340,-89.32,372.26,-76.44,0.250344,0.372344,-3.093432,4
2024-06-14 07:26:45.345,-98.0,360.22,-73.71,0.28450400000000003,0.39039999999999997,-3.1705360000000002,4
2024-06-14 07:26:45.350,-109.9,348.46,-70.63,0.32256799999999997,0.441152,-3.2666720000000002,4
2024-06-14 07:26:45.354,-126.49,337.61,-67.69,0.356728,0.486048,-3.3969679999999998,4
2024-06-14 07:26:45.359,-145.88,329.7,-63.84,0.380152,0.462624,-3.491152,4
2024-06-14 07:26:45.364,-164.01,326.83,-59.08,0.40894400000000003,0.306464,-3.517016,4
2024-06-14 07:26:45.369,-177.94,329.42,-51.38,0.448472,0.132736,-3.513112,4
2024-06-14 07:26:45.374,-185.5,335.79,-40.11,0.58072,-0.093208,-3.521408,4
2024-06-14 07:26:45.379,-186.2,341.32,-24.78,0.77104,-0.30256,-3.524824,4
2024-06-14 07:26:45.383,-180.18,342.58,-6.44,0.9618479999999999,-0.44212799999999997,-3.48676,4
2024-06-14 07:26:45.388,-169.75,339.29,12.88,1.133136,-0.5416799999999999,-3.412584,4
2024-06-14 07:26:45.393,-156.59,332.92,31.85,1.274656,-0.61244,-3.3032719999999998,4
2024-06-14 07:26:45.398,-141.61,325.92,50.12,1.3693279999999999,-0.625128,-3.160776,4
2024-06-14 07:26:45.403,-125.16,319.97,67.06,1.429352,-0.613416,-2.9894879999999997,4
2024-06-14 07:26:45.408,-108.99,314.72,82.53,1.477664,-0.5343600000000001,-2.8030720000000002,4
2024-06-14 07:26:45.412,-97.37,309.33,95.13,1.5147519999999999,-0.41821600000000003,-2.587864,4
2024-06-14 07:26:45.417,-93.31,303.1,103.32,1.5737999999999999,-0.30109600000000003,-2.414136,4
2024-06-14 07:26:45.422,-89.74,295.82,106.61,1.678232,-0.20105599999999998,-2.299456,4
2024-06-14 07:26:45.427,-79.66,285.95,105.21,1.76412,-0.087352,-2.184776,4
2024-06-14 07:26:45.432,-68.18,274.12,99.4,1.801696,0.10394400000000001,-2.0374,4
2024-06-14 07:26:45.437,-63.28,261.73,88.48,1.7875439999999998,0.33232799999999996,-1.888072,4
2024-06-14 07:26:45.441,-68.95,251.16,71.96,1.8353679999999999,0.531432,-1.763144,4
2024-06-14 07:26:45.446,-80.57,242.27,50.54,2.041792,0.651968,-1.68848,4
2024-06-14 07:26:45.451,-93.38,234.22,25.06,2.39852,0.715896,-1.665056,4
2024-06-14 07:26:45.456,-106.05,224.91,-2.94,2.94508,0.730536,-1.6772559999999999,4
2024-06-14 07:26:45.461,-124.11,211.61,-31.43,3.570208,0.5563199999999999,-1.709952,4
2024-06-14 07:26:45.466,-145.6,190.82,-54.95,4.124576,0.060024,-1.719712,4
2024-06-14 07:26:45.470,-156.66,159.53,-66.64,4.537424,-0.7139439999999999,-1.730936,4
2024-06-14 07:26:45.475,-144.2,117.32,-64.12,4.760928,-1.541104,-1.750944,4
2024-06-14 07:26:45.480,-105.21,68.39,-52.15,4.668208,-2.0559439999999998,-1.715808,4
2024-06-14 07:26:45.485,-48.72,21.07,-31.92,4.33588,-2.163304,-1.597712,4
2024-06-14 07:26:45.490,8.68,-17.08,-12.81,3.852272,-1.813408,-1.5240239999999998,4
2024-06-14 07:26:45.494,50.61,-44.1,-0.28,3.3232799999999996,-1.1360640000000002,-1.529392,4
2024-06-14 07:26:45.499,70.63,-62.09,4.9,2.8689519999999997,-0.47433600000000004,-1.5372000000000001,4
2024-06-14 07:26:45.504,73.71,-72.52,5.67,2.500512,-0.020984,-1.4942559999999998,4
2024-06-14 07:26:45.509,68.67,-77.84,7.0,2.241872,0.168848,-1.451312,4
2024-06-14 07:26:45.514,63.14,-81.48,12.39,2.093032,0.16250399999999998,-1.4508240000000001,4
2024-06-14 07:26:45.519,60.13,-86.45,24.08,2.007632,0.061488,-1.4962079999999998,4
2024-06-14 07:26:45.523,58.66,-94.29,42.21,1.968104,-0.077592,-1.54452,4
2024-06-14 07:26:45.528,57.61,-105.28,66.92,1.9256479999999998,-0.22838399999999998,-1.595272,4
2024-06-14 07:26:45.533,56.7,-118.16,96.67,1.8573279999999999,-0.365024,-1.665544,4
2024-06-14 07:26:45.538,57.89,-139.65,126.56,0.976976,0.946232,-1.108736,4
2024-06-14 07:26:45.543,128.8,-400.61,106.75,-1.342,0.893528,-4.573536,4
2024-06-14 07:26:45.548,67.41,-246.75,129.78,-4.356376,0.6114639999999999,3.268136,4
