time,gyroscope_x,gyroscope_y,gyroscope_z,accelerometer_x,accelerometer_y,accelerometer_z,phase
2024-06-14 12:19:01.259,173.18,-312.76,-42.315,6.258844,-1.275388,-7.012560000000001,1
2024-06-14 12:19:01.263,147.7,-265.09,-72.275,-0.574864,-0.16348000000000001,2.218692,1
2024-06-14 12:19:01.268,278.6,-314.33500000000004,-77.945,-0.40552800000000006,0.73322,0.9528199999999998,1
2024-06-14 12:19:01.273,355.775,-235.02499999999998,-69.475,-1.275144,0.26474000000000003,-1.810724,1
2024-06-14 12:19:01.278,324.1,-249.34,-49.385,-1.352004,0.194468,-1.418372,1
2024-06-14 12:19:01.283,332.885,-268.135,-30.45,-0.31354,0.231068,-1.531588,1
2024-06-14 12:19:01.288,281.995,-278.355,-10.08,0.3782,0.060267999999999995,-2.288232,1
2024-06-14 12:19:01.292,190.435,-281.89,18.34,0.31232,-0.19885999999999998,-2.279204,1
2024-06-14 12:19:01.297,101.60499999999999,-284.865,47.075,0.264984,-0.251564,-2.05448,2
2024-06-14 12:19:01.302,42.665,-284.34,63.315,0.129076,-0.32818,-2.187704,2
2024-06-14 12:19:01.307,10.535,-269.15,60.445,0.180072,-0.5916999999999999,-2.136952,2
2024-06-14 12:19:01.312,7.175,-234.77999999999997,36.295,0.21057199999999998,-0.779336,-2.37168,2
2024-06-14 12:19:01.316,14.84,-202.44,4.445,0.197152,-0.6573359999999999,-2.07644,2
2024-06-14 12:19:01.321,12.11,-173.70499999999998,-18.165,0.130784,-0.34599199999999997,-1.970788,2
2024-06-14 12:19:01.326,2.3099999999999996,-156.51999999999998,-23.73,0.052948,-0.048068000000000013,-1.6277239999999997,2
2024-06-14 12:19:01.331,-6.65,-136.99,-15.995000000000001,0.080032,0.20422800000000002,-1.6106439999999997,2
2024-06-14 12:19:01.336,-9.24,-118.78999999999999,-0.13999999999999968,0.11785199999999998,0.319396,-1.541592,2
2024-06-14 12:19:01.341,-1.1549999999999998,-95.375,17.15,0.094672,0.25449200000000005,-1.396656,2
2024-06-14 12:19:01.345,4.7250000000000005,-82.285,25.305,0.09759999999999999,0.099796,-1.3317519999999998,2
2024-06-14 12:19:01.350,7.49,-71.19,24.64,0.03538,-0.031476000000000004,-1.201212,2
2024-06-14 12:19:01.355,6.475,-57.47,18.689999999999998,0.050019999999999995,-0.11516799999999999,-1.135088,2
2024-06-14 12:19:01.360,1.05,-40.32,10.36,-0.054412,-0.097356,-1.1563160000000001,2
2024-06-14 12:19:01.365,1.6800000000000002,-30.03,6.6850000000000005,0.0014639999999999966,0.007807999999999999,-1.205116,2
2024-06-14 12:19:01.370,3.3600000000000003,-25.060000000000002,7.56,0.213744,0.13908,-1.0870199999999999,2
2024-06-14 12:19:01.374,6.58,-21.945,9.415,0.041479999999999996,0.015860000000000003,-1.166808,2
2024-06-14 12:19:01.379,7.875,-18.935000000000002,9.17,0.08710799999999999,0.04001599999999998,-1.0784799999999999,2
2024-06-14 12:19:01.384,8.19,-17.185000000000002,5.67,0.032696,-0.008052,-1.1094680000000001,2
2024-06-14 12:19:01.389,7.105,-15.75,2.31,0.04758,-0.022691999999999997,-1.0723799999999999,2
2024-06-14 12:19:01.394,4.41,-15.82,-0.07,0.017568,-0.016104,-1.09922,2
2024-06-14 12:19:01.398,2.38,-16.310000000000002,-0.105,-0.004392,0.008052,-1.084092,2
2024-06-14 12:19:01.403,1.75,-16.59,-0.385,-0.010003999999999999,0.03416,-1.06018,2
2024-06-14 12:19:01.408,2.5549999999999997,-17.185000000000002,-0.875,-0.034648,0.021471999999999998,-1.0421239999999998,2
2024-06-14 12:19:01.413,3.92,-18.34,-1.4,-0.027572,0.015127999999999999,-1.0362680000000002,2
2024-06-14 12:19:01.418,4.550000000000001,-20.335,-2.73,-0.037088,0.016836,-1.052616,2
2024-06-14 12:19:01.423,4.62,-22.05,-2.9050000000000002,0.009272,0.033672,-1.056032,2
2024-06-14 12:19:01.427,5.46,-23.73,-2.765,0.0060999999999999995,-0.009515999999999998,-1.06506,2
2024-06-14 12:19:01.432,3.535,-25.619999999999997,-3.4299999999999997,-0.043432,-0.016347999999999998,-1.06506,2
2024-06-14 12:19:01.437,1.82,-27.265,-3.29,-0.033672,-0.019032,-1.0640839999999998,2
2024-06-14 12:19:01.442,-0.385,-28.0,-3.465,0.010492000000000001,0.02196,-1.026508,2
2024-06-14 12:19:01.447,-1.155,-30.73,-3.4299999999999997,-0.0029280000000000005,-0.015372,-1.080676,2
2024-06-14 12:19:01.451,-2.415,-32.235,-3.465,-0.126636,-0.038796,-1.115812,2
2024-06-14 12:19:01.456,-3.535,-33.459999999999994,-3.71,-0.158356,-0.028304,-1.1143480000000001,2
2024-06-14 12:19:01.461,-4.234999999999999,-34.894999999999996,-3.955,-0.12102399999999999,-0.023912000000000003,-1.105076,2
2024-06-14 12:19:01.466,-4.55,-36.75,-4.0600000000000005,-0.049044,-0.028548,-1.067256,2
2024-06-14 12:19:01.471,-5.5649999999999995,-38.045,-3.8149999999999995,0.06295200000000001,0.015616,-0.9855159999999998,2
2024-06-14 12:19:01.476,-6.195,-40.39,-4.13,-0.061000000000000006,0.00976,-1.0716479999999997,2
2024-06-14 12:19:01.480,-6.195,-43.224999999999994,-4.199999999999999,-0.140788,-0.013175999999999998,-1.1082480000000001,2
2024-06-14 12:19:01.485,-5.845000000000001,-44.485,-4.095000000000001,0.015127999999999989,0.007076000000000001,-1.049444,2
2024-06-14 12:19:01.490,-6.09,-44.870000000000005,-4.0249999999999995,0.078812,0.033428,-1.0084520000000001,2
2024-06-14 12:19:01.495,-3.92,-45.045,-4.34,-0.134932,0.004392,-1.093608,2
2024-06-14 12:19:01.500,-3.745,-46.83,-4.13,0.083204,0.033916,-1.0169920000000001,2
2024-06-14 12:19:01.504,-3.57,-48.474999999999994,-4.305,0.044408,0.032696,-1.013088,2
2024-06-14 12:19:01.509,-29.19,-69.405,-5.984999999999999,0.00732,0.029767999999999996,-1.03822,2
2024-06-14 12:19:01.514,-2.765,-49.56,-3.745,0.032695999999999996,0.029768,-1.019188,2
2024-06-14 12:19:01.519,4.34,-48.825,-4.06,0.041724,0.025376000000000003,-1.0145520000000001,2
2024-06-14 12:19:01.524,-0.175,-47.46,-5.355,0.041724,0.030987999999999995,-1.012356,2
2024-06-14 12:19:01.529,5.705,-45.254999999999995,-4.6899999999999995,0.036356,0.027084,-1.01748,2
2024-06-14 12:19:01.533,3.22,-44.94,-4.48,0.047336,0.028791999999999998,-1.014308,2
2024-06-14 12:19:01.538,7.385,-42.945,-4.76,0.050996,0.022692,-1.01992,2
2024-06-14 12:19:01.543,5.705,-42.980000000000004,-5.67,0.045384,0.020007999999999998,-1.0201639999999998,2
2024-06-14 12:19:01.548,6.125,-42.84,-5.775,0.052216,0.010248,-1.02724,2
2024-06-14 12:19:01.553,6.404999999999999,-42.56,-5.074999999999999,0.056852,0.0024399999999999995,-1.027728,2
2024-06-14 12:19:01.557,5.5649999999999995,-41.230000000000004,-4.9350000000000005,0.057095999999999994,0.00488,-1.030412,2
2024-06-14 12:19:01.562,6.055,-40.985,-5.285,0.06368399999999999,0.009272,-1.0335839999999998,2
2024-06-14 12:19:01.567,5.109999999999999,-41.37,-5.6,0.062464,0.012199999999999999,-1.0313880000000002,2
2024-06-14 12:19:01.572,5.984999999999999,-41.09,-5.285,0.065148,0.013420000000000001,-1.027728,2
2024-06-14 12:19:01.577,6.335,-40.915,-5.04,0.07197999999999999,0.014395999999999999,-1.0431,2
2024-06-14 12:19:01.582,9.135,-41.72,-5.04,0.076616,0.016104,-1.0243120000000001,2
2024-06-14 12:19:01.586,9.31,-43.47,-5.705,0.078812,0.01464,-1.02968,2
2024-06-14 12:19:01.591,10.535,-43.4,-5.5649999999999995,0.084668,0.01464,-1.0304119999999999,2
2024-06-14 12:19:01.596,11.129999999999999,-43.81999999999999,-5.39,0.084668,0.00976,-1.028216,2
2024-06-14 12:19:01.601,11.725000000000001,-43.995000000000005,-5.53,0.093208,0.014152,-1.034316,2
2024-06-14 12:19:01.606,12.67,-42.49,-5.845000000000001,0.096868,0.001708,-1.042612,2
2024-06-14 12:19:01.610,11.585,-43.295,-5.845,0.10003999999999999,-0.0021960000000000005,-1.034804,2
2024-06-14 12:19:01.615,10.395,-43.504999999999995,-5.6,0.09638,0.00244,-1.0460279999999997,2
2024-06-14 12:19:01.620,7.595000000000001,-44.519999999999996,-5.845000000000001,0.100772,-0.004148,-1.046516,2
2024-06-14 12:19:01.625,6.335,-45.78,-5.984999999999999,0.103212,0.0,-1.064816,2
2024-06-14 12:19:01.630,3.99,-46.864999999999995,-6.404999999999999,0.105896,0.00048799999999999994,-1.0894599999999999,2
2024-06-14 12:19:01.635,1.54,-48.405,-6.6850000000000005,0.104188,0.013176,-1.0801880000000001,2
2024-06-14 12:19:01.639,0.77,-51.519999999999996,-6.965,0.111264,0.019276,-1.098732,2
2024-06-14 12:19:01.644,-1.0150000000000001,-55.685,-7.63,0.098576,0.027572,-1.125816,2
2024-06-14 12:19:01.649,-3.08,-61.11,-8.26,0.10833599999999999,0.021716,-1.1216679999999999,2
2024-06-14 12:19:01.654,-3.08,-64.25999999999999,-8.75,0.11956,0.002684,-1.128988,2
2024-06-14 12:19:01.659,-3.08,-67.55,-9.030000000000001,0.12736799999999998,-0.005611999999999999,-1.1248399999999998,2
2024-06-14 12:19:01.663,-8.855,-73.71000000000001,-9.170000000000002,0.125416,-0.056852,-1.150216,2
2024-06-14 12:19:01.668,-11.375,-75.81,-9.24,0.13102799999999998,0.05367999999999999,-1.159732,2
2024-06-14 12:19:01.673,-13.719999999999999,-80.78,-9.59,0.140788,-0.033428,-1.151192,2
2024-06-14 12:19:01.678,-13.93,-83.685,-9.345,0.147132,0.035136,-1.211948,2
2024-06-14 12:19:01.683,-13.51,-83.265,-9.24,0.155672,0.002928,-1.207068,2
2024-06-14 12:19:01.688,-15.330000000000002,-88.025,-9.87,0.144448,0.03294,-1.250744,2
2024-06-14 12:19:01.692,-17.29,-71.08500000000001,-11.41,0.14883999999999997,-0.008539999999999999,-1.228784,2
2024-06-14 12:19:01.697,-19.25,-95.9,-10.43,0.148596,-0.007564000000000001,-1.230004,2
2024-06-14 12:19:01.702,-20.895,-101.99000000000001,-10.5,0.15372000000000002,-0.0009759999999999994,-1.2941760000000002,2
2024-06-14 12:19:01.707,-25.34,-109.305,-10.850000000000001,0.15982000000000002,-0.006344,-1.288564,2
2024-06-14 12:19:01.712,-26.11,-114.765,-10.850000000000001,0.156648,0.024888,-1.316868,2
2024-06-14 12:19:01.715,-29.259999999999998,-121.03,-11.41,0.18470799999999998,0.010003999999999999,-1.321748,2
2024-06-14 12:19:01.719,-29.82,-127.68,-11.48,0.17202,0.012932,-1.3476119999999998,2
2024-06-14 12:19:01.724,-29.4,-135.555,-11.375,0.171288,-0.008784,-1.3868960000000001,2
2024-06-14 12:19:01.729,-28.490000000000002,-144.305,-11.34,0.187392,0.023912,-1.3561519999999998,2
2024-06-14 12:19:01.734,-30.625,-152.25,-12.285,0.155428,0.030011999999999997,-1.398364,2
2024-06-14 12:19:01.739,-31.64,-162.26,-13.09,0.20252,0.03172,-1.448628,2
2024-06-14 12:19:01.744,-32.83,-173.845,-14.105,0.18153599999999998,0.039772,-1.514996,2
2024-06-14 12:19:01.748,-35.665,-185.465,-14.91,0.194956,0.0034160000000000006,-1.4220319999999997,2
2024-06-14 12:19:01.753,-36.855000000000004,-198.17000000000002,-15.155000000000001,0.183,-0.010735999999999999,-1.392264,2
2024-06-14 12:19:01.758,-37.69499999999999,-209.51,-15.68,0.203984,-0.026840000000000003,-1.610156,2
2024-06-14 12:19:01.763,-35.349999999999994,-226.41500000000002,-14.98,0.14761999999999997,0.022935999999999998,-1.736548,2
2024-06-14 12:19:01.768,-32.69,-246.68,-17.535,0.130052,0.171288,-1.748504,2
2024-06-14 12:19:01.773,-29.085,-264.95000000000005,-21.385,0.14273999999999998,0.201056,-1.7958399999999999,2
2024-06-14 12:19:01.777,-27.79,-283.28999999999996,-25.34,0.139812,0.219356,-1.9280879999999998,2
2024-06-14 12:19:01.782,-27.58,-306.145,-30.03,0.116144,0.25912799999999997,-1.9781079999999998,2
2024-06-14 12:19:01.787,-26.845,-333.235,-35.175,0.101748,0.227652,-2.0256879999999997,2
2024-06-14 12:19:01.792,-28.175,-362.18,-40.355000000000004,0.113704,0.252784,-2.1269479999999996,3
2024-06-14 12:19:01.797,-27.58,-392.03499999999997,-44.975,0.154452,0.260104,-2.416576,3
2024-06-14 12:19:01.802,-25.41,-424.725,-50.33,0.171288,0.30012,-2.581276,3
2024-06-14 12:19:01.806,-19.354999999999997,-452.58500000000004,-53.2,0.11614400000000001,0.310368,-2.7679359999999997,3
2024-06-14 12:19:01.811,-19.215000000000003,-476.0,-54.144999999999996,0.18592799999999998,0.266936,-2.9892440000000002,3
2024-06-14 12:19:01.816,-17.885,-489.3,-50.26,0.37088,0.288896,-3.40868,3
2024-06-14 12:19:01.821,-17.71,-500.71000000000004,-51.66,0.5502199999999999,0.05148399999999999,-3.414048,3
2024-06-14 12:19:01.826,-0.595,-517.5450000000001,-45.115,0.246196,0.13176,-3.515308,3
2024-06-14 12:19:01.831,-12.705,-523.39,-45.394999999999996,0.12102399999999999,0.45554799999999995,-3.4904200000000003,3
2024-06-14 12:19:01.835,-24.185000000000002,-529.4449999999999,-50.12,0.075396,0.32452000000000003,-3.389648,3
2024-06-14 12:19:01.840,-9.87,-532.8399999999999,-54.67,0.189344,0.006588,-3.345484,3
2024-06-14 12:19:01.845,24.64,-547.7850000000001,-50.644999999999996,0.034159999999999996,0.010492000000000001,-3.3440199999999995,3
2024-06-14 12:19:01.850,40.32,-560.2449999999999,-46.095,0.08295999999999999,0.425048,-3.297904,3
2024-06-14 12:19:01.855,36.925,-570.64,-47.845,-0.123464,0.68076,-3.050732,3
2024-06-14 12:19:01.860,32.620000000000005,-564.235,-53.69,-0.36112,0.722972,-2.5217400000000003,3
2024-06-14 12:19:01.864,25.375,-550.97,-61.075,-0.526064,0.615124,-2.220888,3
2024-06-14 12:19:01.869,11.83,-530.985,-72.72999999999999,-0.7634759999999999,0.727608,-1.760948,3
2024-06-14 12:19:01.874,14.07,-511.84,-75.6,-1.3173560000000002,1.120448,-1.8870959999999999,3
2024-06-14 12:19:01.879,-8.399999999999999,-506.55499999999995,-93.485,-1.311744,1.299544,-2.1550079999999996,3
2024-06-14 12:19:01.884,-53.269999999999996,-495.11,-114.065,-1.293444,1.2270759999999998,-2.301896,3
2024-06-14 12:19:01.889,-98.84,-485.275,-133.665,-1.587952,1.0152839999999999,-2.42658,3
2024-06-14 12:19:01.893,-143.53500000000003,-457.59000000000003,-162.05,-1.364692,0.9220759999999999,-2.30336,3
2024-06-14 12:19:01.898,-159.075,-448.35,-180.70499999999998,-0.75396,0.807396,-1.5762399999999999,3
2024-06-14 12:19:01.903,-140.84,-430.43,-181.23000000000002,-0.7546919999999999,0.36038800000000004,-1.220732,3
2024-06-14 12:19:01.908,-116.83,-314.65,-168.76999999999998,-1.858304,-0.122244,-1.230248,3
2024-06-14 12:19:01.913,-90.475,-176.435,-135.73,-2.402424,-0.36892800000000003,-0.864492,3
2024-06-14 12:19:01.918,-27.58,-45.36,-77.735,-2.096936,-0.552172,-0.660264,3
2024-06-14 12:19:01.922,31.394999999999996,65.275,-19.39,-1.8792879999999998,-0.5736439999999999,-1.009428,3
2024-06-14 12:19:01.927,67.305,160.125,28.875,-1.8099919999999998,-0.419192,-1.1041,3
2024-06-14 12:19:01.932,93.94,231.0,67.62,-1.593076,-0.19373599999999996,-1.051396,3
2024-06-14 12:19:01.937,111.78999999999999,279.51,90.65,-1.31516,0.008296000000000001,-1.107028,3
2024-06-14 12:19:01.942,115.675,312.79499999999996,99.85499999999999,-1.1772999999999998,0.161528,-1.0972680000000001,3
2024-06-14 12:19:01.947,108.115,337.75,101.39500000000001,-1.084336,0.277916,-0.996496,3
2024-06-14 12:19:01.952,94.88499999999999,357.56,97.22999999999999,-1.001376,0.35136,-0.920612,3
2024-06-14 12:19:01.956,79.135,374.08,88.34,-0.935008,0.3782,-0.8891359999999999,4
2024-06-14 12:19:01.961,62.019999999999996,389.375,77.0,-0.873764,0.38064,-0.884744,4
2024-06-14 12:19:01.966,45.675,404.355,65.03,-0.804468,0.350628,-0.9237839999999999,4
2024-06-14 12:19:01.971,31.465,415.52,53.269999999999996,-0.71004,0.311832,-0.9999119999999999,4
2024-06-14 12:19:01.976,19.88,424.095,41.475,-0.6161,0.266204,-1.044808,4
2024-06-14 12:19:01.981,10.465,430.885,30.415,-0.552416,0.203496,-1.043832,4
2024-06-14 12:19:01.985,4.585,435.995,20.265,-0.512644,0.14883999999999997,-1.030656,4
2024-06-14 12:19:01.990,2.87,439.845,11.094999999999999,-0.46433199999999997,0.08906,-1.045052,4
2024-06-14 12:19:01.995,3.745,441.875,3.185,-0.411872,0.055632,-1.081896,4
2024-06-14 12:19:02.000,6.16,442.08500000000004,-4.165,-0.357704,0.024888,-1.120692,4
2024-06-14 12:19:02.005,9.485,441.595,-10.675,-0.324032,0.011224,-1.152412,4
2024-06-14 12:19:02.010,12.95,440.65,-16.94,-0.285236,0.013908,-1.1995040000000001,4
2024-06-14 12:19:02.014,16.625,439.88,-22.295,-0.24888,-0.003172,-1.2185359999999998,4
2024-06-14 12:19:02.019,20.44,439.39,-26.075,-0.24766,0.005124,-1.241472,4
2024-06-14 12:19:02.024,23.380000000000003,439.355,-29.155,-0.23668,0.024644,-1.2822200000000001,4
2024-06-14 12:19:02.029,24.990000000000002,439.985,-31.255000000000003,-0.224968,0.047091999999999995,-1.3329719999999998,4
2024-06-14 12:19:02.034,25.585,441.735,-32.48,-0.21472,0.082472,-1.384212,4
2024-06-14 12:19:02.039,25.795,445.025,-32.55,-0.207156,0.109556,-1.428864,4
2024-06-14 12:19:02.043,25.97,449.645,-31.604999999999997,-0.20618000000000003,0.14396000000000003,-1.4781520000000001,4
2024-06-14 12:19:02.048,24.674999999999997,455.07,-30.275,-0.18153599999999998,0.19764,-1.512312,4
2024-06-14 12:19:02.053,21.945,461.3,-28.735,-0.19129600000000002,0.256444,-1.563308,4
2024-06-14 12:19:02.058,17.955,466.55,-28.035,-0.143228,0.298412,-1.604056,4
2024-06-14 12:19:02.063,11.934999999999999,470.4,-27.509999999999998,-0.112728,0.362096,-1.675792,4
2024-06-14 12:19:02.068,2.1,471.24,-27.79,-0.03782,0.42944,-1.7843719999999998,4
2024-06-14 12:19:02.072,-8.89,469.595,-27.825,0.018543999999999998,0.466528,-1.860744,4
2024-06-14 12:19:02.077,-21.035,466.13,-26.775,0.065636,0.48238800000000004,-1.911984,4
2024-06-14 12:19:02.082,-33.11,461.96500000000003,-24.465,0.09418399999999999,0.486292,-1.965176,4
2024-06-14 12:19:02.087,-45.010000000000005,457.65999999999997,-20.895,0.11931599999999999,0.48604800000000004,-2.021052,4
2024-06-14 12:19:02.092,-56.455,453.145,-16.03,0.146888,0.48653599999999997,-2.090836,4
2024-06-14 12:19:02.097,-67.83,448.21000000000004,-9.975000000000001,0.171288,0.495076,-2.194292,4
2024-06-14 12:19:02.101,-79.31,443.135,-3.08,0.20422800000000002,0.506788,-2.318488,4
2024-06-14 12:19:02.106,-89.53,438.655,5.39,0.25229599999999996,0.50996,-2.454396,4
2024-06-14 12:19:02.111,-97.22999999999999,435.33,15.715,0.328668,0.516548,-2.5903039999999997,4
2024-06-14 12:19:02.116,-102.41,432.67,28.035,0.433832,0.520452,-2.71816,4
2024-06-14 12:19:02.121,-106.155,431.20000000000005,41.37,0.554856,0.5436319999999999,-2.847724,4
2024-06-14 12:19:02.126,-109.375,430.43,54.95,0.7127239999999999,0.588284,-2.9614279999999997,4
2024-06-14 12:19:02.130,-111.685,429.24,68.32,0.900604,0.659532,-3.056588,4
2024-06-14 12:19:02.135,-114.31,427.03499999999997,80.43,1.089704,0.743224,-3.090504,4
2024-06-14 12:19:02.140,-119.595,424.025,90.055,1.225856,0.7881199999999999,-2.9951,4
2024-06-14 12:19:02.145,-151.82999999999998,417.62,95.34,1.225612,0.72346,-3.0683,4
2024-06-14 12:19:02.150,-205.24,409.67499999999995,95.725,1.4654639999999999,0.64172,-3.1534560000000003,4
2024-06-14 12:19:02.155,-246.155,399.175,95.025,1.726544,0.48092399999999996,-3.235196,4
2024-06-14 12:19:02.160,-265.545,386.26,95.58500000000001,2.000312,0.268888,-3.2866799999999996,4
2024-06-14 12:19:02.164,-263.34,374.43,98.98,2.2435799999999997,0.121756,-3.28058,4
2024-06-14 12:19:02.169,-244.86,360.85,122.29,2.69376,-0.521916,-3.2298280000000004,4
2024-06-14 12:19:02.174,-204.54000000000002,348.6,107.13499999999999,2.911896,-0.329156,-2.964356,4
2024-06-14 12:19:02.179,-174.965,334.11,112.28,3.226412,-0.374784,-2.785748,4
2024-06-14 12:19:02.184,-155.78500000000003,317.345,117.005,3.61974,-0.436272,-2.705716,4
2024-06-14 12:19:02.189,-136.675,288.96,118.125,4.0037959999999995,-0.55266,-2.4070599999999995,4
2024-06-14 12:19:02.193,-111.86,254.38,112.77,4.24438,-0.546072,-2.085224,4
2024-06-14 12:19:02.198,-91.77000000000001,216.89499999999998,97.16,4.5262,-0.464088,-1.8622079999999999,4
2024-06-14 12:19:02.203,-81.935,176.19,70.49000000000001,4.824123999999999,-0.396988,-1.8114559999999997,4
2024-06-14 12:19:02.208,-80.60499999999999,134.155,35.175,5.071540000000001,-0.432856,-1.77388,4
2024-06-14 12:19:02.213,-81.41,95.025,-3.3600000000000003,5.223064,-0.6295200000000001,-1.689212,4
2024-06-14 12:19:02.218,-77.14,57.75,-38.605000000000004,5.254052,-0.9403759999999999,-1.5779480000000001,4
2024-06-14 12:19:02.222,-56.665,22.925,-64.64500000000001,5.1471800000000005,-1.261236,-1.5428119999999999,4
2024-06-14 12:19:02.227,-19.145,-8.435,-78.225,4.919528,-1.50304,-1.52744,4
2024-06-14 12:19:02.232,23.835,-42.769999999999996,-79.905,4.612576000000001,-1.573312,-1.513288,4
2024-06-14 12:19:02.237,66.99,-74.34,-73.115,4.25902,-1.454972,-1.512312,4
2024-06-14 12:19:02.242,101.745,-102.375,-62.72,3.895704,-1.1970640000000001,-1.5642839999999998,4
2024-06-14 12:19:02.247,124.42500000000001,-126.35,-52.815,3.443328,-0.815448,-1.646024,4
2024-06-14 12:19:02.251,147.105,-312.69,-88.725,1.36396,1.610156,-6.794668,4
2024-06-14 12:19:02.256,75.145,-114.94000000000001,-133.945,-2.4512240000000003,1.084092,2.2855479999999995,0
