time,gyroscope_x,gyroscope_y,gyroscope_z,accelerometer_x,accelerometer_y,accelerometer_z,phase
2024-06-14 12:18:57.305,153.16,-336.98,-42.455,4.090416,0.46482,-6.912275999999999,1
2024-06-14 12:18:57.310,77.665,-257.075,-63.980000000000004,-2.39486,1.464488,4.412496,1
2024-06-14 12:18:57.315,334.11,-159.74,-57.504999999999995,-0.42943999999999993,-0.015128000000000006,-0.8915759999999999,1
2024-06-14 12:18:57.319,348.91499999999996,-289.59000000000003,-49.595,-1.70434,0.26352,-1.112396,1
2024-06-14 12:18:57.324,371.35,-304.46500000000003,-32.025,-0.461648,0.263764,-1.47986,1
2024-06-14 12:18:57.329,322.385,-326.76,-6.195,-0.060512,0.216184,-2.1603760000000003,1
2024-06-14 12:18:57.338,210.66500000000002,-340.375,32.83,0.28303999999999996,-0.093208,-2.553948,1
2024-06-14 12:18:57.343,98.77000000000001,-347.27,69.37,0.457256,-0.26034799999999997,-2.3404480000000003,2
2024-06-14 12:18:57.348,32.06,-339.675,87.39500000000001,0.396988,-0.395524,-2.580788,2
2024-06-14 12:18:57.352,1.47,-308.875,80.39500000000001,0.325984,-0.820328,-2.440244,2
2024-06-14 12:18:57.357,5.845,-264.6,44.345,0.263764,-1.1006839999999998,-2.6317839999999997,2
2024-06-14 12:18:57.362,16.835,-231.14,-0.3149999999999995,0.23619199999999999,-0.840336,-2.4761119999999996,2
2024-06-14 12:18:57.367,15.05,-199.325,-28.77,0.151524,-0.30768399999999996,-2.145492,2
2024-06-14 12:18:57.372,4.375,-180.53,-33.53,0.113704,0.11419199999999999,-1.945168,2
2024-06-14 12:18:57.376,-7.07,-151.165,-14.945,0.09638000000000001,0.382592,-1.619672,2
2024-06-14 12:18:57.381,-10.22,-138.11,12.215,0.047335999999999996,0.456036,-1.580876,2
2024-06-14 12:18:57.386,-2.625,-114.695,30.38,0.122488,0.18788,-1.514752,2
2024-06-14 12:18:57.391,5.005,-96.25,30.134999999999998,0.049775999999999994,-0.044407999999999996,-1.308328,2
2024-06-14 12:18:57.396,6.93,-78.295,19.6,0.024644,-0.192272,-1.2685559999999998,2
2024-06-14 12:18:57.401,3.465,-59.92,7.91,0.15006,-0.155916,-1.0584719999999999,2
2024-06-14 12:18:57.405,-2.485,-47.004999999999995,1.75,-0.054655999999999996,-0.058072,-1.332484,2
2024-06-14 12:18:57.410,-3.8149999999999995,-37.905,3.6399999999999997,-0.072712,0.069784,-1.414224,2
2024-06-14 12:18:57.415,-1.365,-31.080000000000002,7.734999999999999,0.099308,0.141032,-1.286124,2
2024-06-14 12:18:57.420,2.205,-28.560000000000002,9.52,0.147376,0.05392399999999999,-1.084336,2
2024-06-14 12:18:57.425,2.5549999999999997,-25.27,6.09,0.049044,-0.031476,-1.138992,2
2024-06-14 12:18:57.429,0.56,-23.03,1.855,0.048068,-0.031232000000000003,-1.090924,2
2024-06-14 12:18:57.434,-1.54,-21.28,-0.735,0.012931999999999999,-0.0014640000000000005,-1.0860439999999998,2
2024-06-14 12:18:57.439,-2.73,-20.125,-0.595,-0.0075639999999999995,0.026108,-1.07116,2
2024-06-14 12:18:57.444,-2.275,-19.845,-0.31499999999999995,-0.01952,0.038308,-1.0482239999999998,2
2024-06-14 12:18:57.449,-0.665,-19.634999999999998,-1.19,-0.020739999999999998,0.033428,-1.0496880000000002,2
2024-06-14 12:18:57.454,0.455,-21.07,-2.625,-0.038308,0.020007999999999998,-1.0531039999999998,2
2024-06-14 12:18:57.458,0.7,-22.54,-2.66,0.04953200000000001,0.031476,-0.999668,2
2024-06-14 12:18:57.463,0.45499999999999996,-24.814999999999998,-3.185,-0.048799999999999996,-0.012444,-1.05408,2
2024-06-14 12:18:57.468,-0.385,-27.125,-2.94,-0.047091999999999995,0.00732,-1.06506,2
2024-06-14 12:18:57.473,-1.7850000000000001,-29.05,-3.395,-0.125904,-0.010003999999999999,-1.1043439999999998,2
2024-06-14 12:18:57.478,-4.0249999999999995,-30.03,-3.605,0.038308,0.032940000000000004,-1.102636,2
2024-06-14 12:18:57.482,-5.285,-32.585,-3.71,0.06612400000000002,-0.018544,-1.0096720000000001,2
2024-06-14 12:18:57.487,-7.035,-34.475,-3.5,0.032208000000000014,-0.015616000000000001,-0.992592,2
2024-06-14 12:18:57.492,-8.434999999999999,-36.47,-3.745,0.025620000000000004,0.019763999999999997,-1.009916,2
2024-06-14 12:18:57.497,-8.89,-38.815,-3.85,0.040504,0.01342,-1.0579839999999998,2
2024-06-14 12:18:57.502,-9.415,-41.09,-4.0600000000000005,-0.05733999999999999,0.030987999999999998,-1.069696,2
2024-06-14 12:18:57.507,-8.785,-44.625,-3.955,0.066612,-0.0034160000000000006,-1.020164,2
2024-06-14 12:18:57.511,-9.275,-46.445,-4.13,-0.16250399999999998,0.009271999999999999,-1.117032,2
2024-06-14 12:18:57.516,-9.135,-48.894999999999996,-4.234999999999999,-0.120048,0.024156,-1.0994639999999998,2
2024-06-14 12:18:57.521,-8.295,-52.64,-4.27,-0.092476,-0.006587999999999998,-1.059936,2
2024-06-14 12:18:57.526,-7.875,-53.34,-4.025,0.10272400000000001,0.03342799999999999,-1.028948,2
2024-06-14 12:18:57.531,-7.525,-56.315,-4.48,-0.072712,0.043188000000000004,-1.044808,2
2024-06-14 12:18:57.536,-5.425,-55.86,-3.955,0.105408,0.016592,-1.01138,2
2024-06-14 12:18:57.540,-1.715,-51.03,-4.0249999999999995,0.082716,0.062464,-0.9933239999999999,2
2024-06-14 12:18:57.545,-1.015,-56.735,-4.165,-0.083204,0.028304,-1.057008,2
2024-06-14 12:18:57.550,-20.544999999999998,-86.52,-7.140000000000001,0.13566399999999998,0.094184,-1.0047920000000001,2
2024-06-14 12:18:57.555,4.550000000000001,-50.015,-4.55,0.07808000000000001,0.011223999999999998,-1.01626,2
2024-06-14 12:18:57.560,2.8,-49.21,-4.62,-0.08954799999999999,0.050752000000000005,-1.0518839999999998,2
2024-06-14 12:18:57.564,9.1,-46.48,-3.71,0.141276,0.052216,-0.962092,2
2024-06-14 12:18:57.569,5.18,-46.34,-4.515,0.069296,0.016592,-1.035292,2
2024-06-14 12:18:57.574,11.48,-44.379999999999995,-5.145,-0.03489199999999999,0.050752,-1.037,2
2024-06-14 12:18:57.579,7.63,-43.33,-5.53,0.105896,0.038552,-0.981124,2
2024-06-14 12:18:57.584,12.004999999999999,-42.105,-4.9,0.07075999999999999,0.017812,-1.02968,2
2024-06-14 12:18:57.589,9.52,-41.72,-5.145,0.0183,0.02196,-1.037732,2
2024-06-14 12:18:57.593,10.71,-40.25,-5.635,0.052704,0.024888,-1.0155279999999998,2
2024-06-14 12:18:57.598,10.115,-38.5,-6.09,0.069296,0.018788,-1.02358,2
2024-06-14 12:18:57.603,11.620000000000001,-39.165,-5.46,0.07905599999999999,0.022203999999999998,-1.04066,2
2024-06-14 12:18:57.608,13.825,-39.06,-5.215,0.07075999999999999,0.020007999999999998,-1.03822,2
2024-06-14 12:18:57.613,13.719999999999999,-42.349999999999994,-5.529999999999999,0.07197999999999999,0.025376,-1.04188,2
2024-06-14 12:18:57.617,14.735,-42.245000000000005,-6.195,0.08295999999999999,0.031232000000000003,-1.0384639999999998,2
2024-06-14 12:18:57.622,15.75,-44.135000000000005,-6.335,0.088084,0.026595999999999998,-1.041392,2
2024-06-14 12:18:57.627,15.855,-45.36,-6.300000000000001,0.093696,0.025863999999999998,-1.04066,2
2024-06-14 12:18:57.632,14.21,-44.519999999999996,-6.859999999999999,0.09345200000000001,-0.003904,-1.026508,3
2024-06-14 12:18:57.637,9.555,-45.64,-6.859999999999999,0.099552,-0.016592,-1.045296,3
2024-06-14 12:18:57.642,5.32,-46.760000000000005,-6.6850000000000005,0.10003999999999999,-0.009760000000000001,-1.081652,3
2024-06-14 12:18:57.646,3.5700000000000003,-47.775,-6.51,0.100528,-0.0019519999999999997,-1.06018,3
2024-06-14 12:18:57.651,1.3650000000000002,-46.305,-6.51,0.094916,0.017812,-1.0799439999999998,3
2024-06-14 12:18:57.656,-0.98,-47.144999999999996,-7.49,0.106872,0.014884000000000001,-1.043344,3
2024-06-14 12:18:57.661,-0.175,-46.585,-7.805,0.10955599999999999,0.031476,-1.0606680000000002,3
2024-06-14 12:18:57.666,-1.6099999999999999,-49.105000000000004,-8.225,0.10980000000000001,0.027083999999999997,-1.069208,3
2024-06-14 12:18:57.670,-0.84,-50.4,-8.504999999999999,0.117364,0.02928,-1.0521280000000002,3
2024-06-14 12:18:57.675,-0.735,-52.64,-8.995000000000001,0.12492799999999998,0.002928,-1.062132,3
2024-06-14 12:18:57.680,1.085,-53.864999999999995,-8.89,0.124196,0.029768000000000003,-1.082628,3
2024-06-14 12:18:57.685,-1.0150000000000001,-59.92,-9.379999999999999,0.11346,0.004636000000000001,-1.1746159999999999,3
2024-06-14 12:18:57.690,1.4,-68.845,-9.835,0.126392,0.07417599999999999,-1.0772599999999999,3
2024-06-14 12:18:57.695,2.065,-70.245,-10.64,0.12322,0.057828000000000004,-1.191452,3
2024-06-14 12:18:57.699,-0.49,-77.0,-12.88,0.11882799999999999,0.07173600000000001,-1.205848,3
2024-06-14 12:18:57.704,0.14,-82.11000000000001,-13.79,0.137372,0.032452,-1.22488,3
2024-06-14 12:18:57.709,-2.4850000000000003,-90.89500000000001,-14.629999999999999,0.132492,0.042944,-1.241716,3
2024-06-14 12:18:57.714,-4.375,-93.1,-15.26,0.142252,0.032208,-1.2661159999999998,3
2024-06-14 12:18:57.719,-6.545,-102.34,-16.205,0.143228,0.008296,-1.254404,3
2024-06-14 12:18:57.723,-7.455,-102.9,-16.310000000000002,0.14273999999999998,0.02928,-1.27856,3
2024-06-14 12:18:57.728,-10.57,-110.88,-17.255,0.144936,0.030988,-1.3297999999999999,3
2024-06-14 12:18:57.733,-10.885,-115.815,-17.64,0.15372,0.047091999999999995,-1.341268,3
2024-06-14 12:18:57.738,-13.23,-123.165,-19.005,0.15176800000000001,0.033428,-1.3549319999999998,3
2024-06-14 12:18:57.743,-12.11,-131.25,-19.495,0.155916,0.007808,-1.377136,3
2024-06-14 12:18:57.748,-11.865,-139.23000000000002,-19.354999999999997,0.16104000000000002,0.035136,-1.361276,3
2024-06-14 12:18:57.752,-15.085,-148.54000000000002,-20.09,0.167872,0.026596,-1.375916,3
2024-06-14 12:18:57.757,-16.729999999999997,-157.255,-20.44,0.160552,-0.0019520000000000002,-1.362252,3
2024-06-14 12:18:57.762,-19.950000000000003,-167.265,-20.825,0.16543199999999997,0.004392,-1.427156,3
2024-06-14 12:18:57.767,-20.72,-176.29500000000002,-21.035,0.17519200000000001,-0.0034159999999999998,-1.422276,3
2024-06-14 12:18:57.772,-21.875,-185.675,-21.105,0.17299599999999998,0.004392,-1.435452,3
2024-06-14 12:18:57.776,-22.785,-198.065,-21.945,0.177388,0.025131999999999998,-1.469856,3
2024-06-14 12:18:57.781,-23.87,-209.3,-23.310000000000002,0.16591999999999998,0.035624,-1.495476,3
2024-06-14 12:18:57.786,-24.884999999999998,-222.285,-24.78,0.21154799999999999,0.049288,-1.499868,3
2024-06-14 12:18:57.791,-24.22,-236.18,-26.215000000000003,0.12492799999999998,0.04489599999999999,-1.5120679999999997,3
2024-06-14 12:18:57.796,-23.905,-249.865,-27.79,0.14493599999999998,0.029036,-1.580876,3
2024-06-14 12:18:57.801,-22.575,-266.66499999999996,-28.735,0.136152,0.016835999999999997,-1.681648,3
2024-06-14 12:18:57.805,-22.994999999999997,-285.42499999999995,-29.96,0.169092,0.051727999999999996,-1.7782719999999999,3
2024-06-14 12:18:57.810,-26.04,-306.355,-31.57,0.19641999999999998,0.12712400000000001,-1.875872,3
2024-06-14 12:18:57.815,-30.625,-326.2,-34.16,0.17446,0.20569199999999999,-2.032764,3
2024-06-14 12:18:57.820,-35.035,-354.06,-39.655,0.133224,0.186172,-1.894904,3
2024-06-14 12:18:57.825,-38.29,-379.53999999999996,-42.91,0.169336,0.120048,-2.13378,3
2024-06-14 12:18:57.829,-45.08,-410.27,-46.129999999999995,0.125172,0.12444,-2.0988879999999996,3
2024-06-14 12:18:57.834,-47.635000000000005,-443.20500000000004,-47.285,0.219356,-0.07905600000000002,-2.5476039999999998,3
2024-06-14 12:18:57.839,-38.64,-475.96500000000003,-41.09,0.273768,-0.077836,-2.88042,3
2024-06-14 12:18:57.844,-41.44,-499.94,-36.68,0.346236,0.151524,-3.1144160000000003,3
2024-06-14 12:18:57.849,-57.995000000000005,-516.635,-33.285,0.5787680000000001,0.19568799999999997,-3.588996,3
2024-06-14 12:18:57.854,-57.260000000000005,-531.755,-31.115000000000002,0.640744,-0.132492,-3.6502399999999997,3
2024-06-14 12:18:57.858,-42.489999999999995,-546.1400000000001,-21.0,0.29865600000000003,0.008540000000000013,-3.8034719999999997,3
2024-06-14 12:18:57.863,-60.900000000000006,-553.875,-19.425,0.18348799999999998,0.293288,-4.030635999999999,3
2024-06-14 12:18:57.868,-73.5,-564.69,-24.01,0.172752,0.081496,-3.9154679999999997,3
2024-06-14 12:18:57.873,-50.75,-574.63,-27.93,0.273036,-0.319152,-3.830556,3
2024-06-14 12:18:57.878,-10.535,-590.625,-20.055,0.08125199999999999,-0.283284,-3.90278,3
2024-06-14 12:18:57.883,2.8,-608.65,-15.155,-0.151036,0.212036,-3.86252,3
2024-06-14 12:18:57.887,4.445,-617.155,-14.035,-0.127368,0.509228,-3.534828,3
2024-06-14 12:18:57.892,3.395,-610.96,-19.6,-0.31476,0.560224,-3.1090479999999996,3
2024-06-14 12:18:57.897,2.2049999999999996,-592.4449999999999,-25.83,-0.720288,0.48556,-2.53394,3
2024-06-14 12:18:57.902,-1.645,-554.4,-39.585,-1.068964,0.8461919999999999,-1.9161320000000002,3
2024-06-14 12:18:57.907,-14.875,-515.41,-40.95,-1.5523279999999997,0.938912,-1.8980759999999999,3
2024-06-14 12:18:57.911,-25.655,-486.605,-57.05,-1.449848,1.275388,-2.600796,3
2024-06-14 12:18:57.916,-60.515,-483.385,-81.48,-1.480836,1.403,-2.867732,3
2024-06-14 12:18:57.921,-117.70500000000001,-447.65,-119.805,-1.30662,1.298568,-2.68644,3
2024-06-14 12:18:57.926,-160.93,-440.96500000000003,-153.72000000000003,-0.671732,1.2099959999999998,-1.8609879999999999,4
2024-06-14 12:18:57.931,-161.7,-441.735,-173.39,-0.64172,0.9516,-1.413736,4
2024-06-14 12:18:57.936,-149.38,-323.33000000000004,-176.505,-1.9280879999999998,0.37942,-1.52134,4
2024-06-14 12:18:57.940,-125.75500000000001,-176.22500000000002,-151.13,-2.4270680000000002,-0.08662,-1.16632,4
2024-06-14 12:18:57.945,-60.585,-55.125,-99.925,-1.941752,-0.4331,-1.05652,4
2024-06-14 12:18:57.950,8.785,49.769999999999996,-47.04,-1.736792,-0.5565640000000001,-1.285636,4
2024-06-14 12:18:57.955,62.370000000000005,137.69,0.7350000000000003,-1.736304,-0.493124,-1.3102800000000001,4
2024-06-14 12:18:57.960,107.1,201.775,38.885,-1.4903520000000001,-0.22643200000000002,-1.238788,4
2024-06-14 12:18:57.964,136.675,244.195,60.269999999999996,-1.244888,0.0002439999999999977,-1.2670919999999999,4
2024-06-14 12:18:57.969,148.26,274.05,69.44,-1.175348,0.182024,-1.211704,4
2024-06-14 12:18:57.974,143.325,301.28,70.875,-1.1394799999999998,0.335988,-1.0816519999999998,4
2024-06-14 12:18:57.979,129.85,323.155,66.15,-1.066524,0.432124,-0.978196,4
2024-06-14 12:18:57.984,110.775,344.57500000000005,56.769999999999996,-0.9982039999999999,0.48238800000000004,-0.96258,4
2024-06-14 12:18:57.989,89.145,363.825,45.254999999999995,-0.926956,0.49751599999999996,-0.9943,4
2024-06-14 12:18:57.993,67.34,379.82000000000005,32.97,-0.8466799999999999,0.47653199999999996,-1.003328,4
2024-06-14 12:18:57.998,47.845,391.78999999999996,20.439999999999998,-0.769088,0.426024,-1.00772,4
2024-06-14 12:18:58.003,32.410000000000004,399.63,8.365,-0.688568,0.36892800000000003,-0.9852719999999999,4
2024-06-14 12:18:58.008,19.88,403.795,-2.485,-0.628788,0.312076,-0.98332,4
2024-06-14 12:18:58.013,10.29,405.23,-11.620000000000001,-0.566324,0.25742,-0.99064,4
2024-06-14 12:18:58.017,3.4299999999999997,405.405,-19.25,-0.511668,0.198128,-1.0140639999999999,4
2024-06-14 12:18:58.022,-1.19,404.88,-25.165,-0.47336,0.129808,-1.03212,4
2024-06-14 12:18:58.027,-3.535,407.57500000000005,-28.91,-0.452864,0.060756,-1.05164,4
2024-06-14 12:18:58.032,-2.625,411.355,-30.205,-0.455304,0.0039040000000000004,-1.0762839999999998,4
2024-06-14 12:18:58.037,2.17,417.06,-29.049999999999997,-0.45554799999999995,-0.041235999999999995,-1.118984,4
2024-06-14 12:18:58.042,10.045,424.58500000000004,-25.795,-0.44334799999999996,-0.072956,-1.16754,4
2024-06-14 12:18:58.046,20.195,433.195,-20.685000000000002,-0.430904,-0.06758800000000001,-1.199992,4
2024-06-14 12:18:58.051,29.61,440.72,-15.295,-0.434808,-0.024644,-1.260016,4
2024-06-14 12:18:58.056,36.085,447.65,-10.92,-0.411872,0.0427,-1.3136959999999998,4
2024-06-14 12:18:58.061,39.585,453.565,-7.595,-0.38795999999999997,0.112728,-1.366644,4
2024-06-14 12:18:58.066,39.165,458.115,-5.6,-0.361852,0.187392,-1.419592,4
2024-06-14 12:18:58.070,35.0,462.315,-4.55,-0.33183999999999997,0.252052,-1.4642439999999999,4
2024-06-14 12:18:58.075,28.14,466.375,-3.815,-0.300608,0.29280000000000006,-1.50182,4
2024-06-14 12:18:58.080,21.07,470.015,-3.325,-0.267424,0.310856,-1.559404,4
2024-06-14 12:18:58.085,12.915,470.57500000000005,-2.52,-0.14762,0.27815999999999996,-1.598932,4
2024-06-14 12:18:58.090,2.24,473.515,-1.6099999999999999,-0.217892,0.42602399999999996,-1.562576,4
2024-06-14 12:18:58.095,-5.04,475.405,-1.155,-0.144448,0.361852,-1.7421600000000002,4
2024-06-14 12:18:58.099,-9.345,474.25,1.0150000000000001,-0.09881999999999999,0.388204,-1.7934,4
2024-06-14 12:18:58.104,-18.235,473.13,2.8,-0.056852,0.399184,-1.8858759999999999,4
2024-06-14 12:18:58.109,-24.325000000000003,471.345,4.935,-0.029523999999999998,0.410408,-1.939068,4
2024-06-14 12:18:58.114,-28.91,468.29999999999995,8.575,0.07929999999999998,0.327204,-1.899296,4
2024-06-14 12:18:58.119,-33.6,467.565,12.04,0.038064,0.427488,-2.0317879999999997,4
2024-06-14 12:18:58.123,-38.745000000000005,465.85,16.134999999999998,0.051484,0.453596,-2.104988,4
2024-06-14 12:18:58.128,-44.205,463.995,20.65,0.065636,0.48409599999999997,-2.181848,4
2024-06-14 12:18:58.133,-50.785,461.72,24.990000000000002,0.08125199999999999,0.506788,-2.258464,4
2024-06-14 12:18:58.138,-57.82,459.48,29.575000000000003,0.081008,0.53558,-2.3380080000000003,4
2024-06-14 12:18:58.143,-65.83500000000001,457.83500000000004,33.53,0.08832799999999999,0.573644,-2.452688,4
2024-06-14 12:18:58.148,-74.62,456.96000000000004,37.555,0.122976,0.593896,-2.604944,4
2024-06-14 12:18:58.152,-80.745,457.31,43.155,0.217648,0.606584,-2.7567120000000003,4
2024-06-14 12:18:58.157,-81.06,459.16499999999996,51.8,0.379664,0.617808,-2.895792,4
2024-06-14 12:18:58.162,-76.195,461.33500000000004,62.790000000000006,0.564616,0.660752,-3.018524,4
2024-06-14 12:18:58.167,-69.265,462.385,73.78,0.74054,0.7590839999999999,-3.140524,4
2024-06-14 12:18:58.172,-64.715,461.755,83.72,0.9630679999999998,0.885964,-3.222264,4
2024-06-14 12:18:58.176,-65.415,459.375,91.595,1.153144,1.0079639999999999,-3.1317399999999997,4
2024-06-14 12:18:58.181,-94.64,453.145,94.00999999999999,1.1995040000000001,1.039196,-3.216896,4
2024-06-14 12:18:58.186,-159.565,445.27,90.93,1.4403320000000002,0.981124,-3.328892,4
2024-06-14 12:18:58.191,-216.825,434.385,88.41,1.7338639999999998,0.75396,-3.3972119999999997,4
2024-06-14 12:18:58.196,-248.85000000000002,420.455,90.055,2.0059240000000003,0.44090799999999997,-3.448208,4
2024-06-14 12:18:58.201,-253.085,406.805,97.125,2.323612,0.11955999999999999,-3.451624,4
2024-06-14 12:18:58.205,-231.35,391.15999999999997,127.715,2.4009599999999995,0.46726,-3.3762280000000002,4
2024-06-14 12:18:58.210,-189.315,371.455,121.38,3.021696,-0.655384,-3.190544,4
2024-06-14 12:18:58.215,-149.765,349.615,133.63,3.285704,-0.36770800000000003,-3.003396,4
2024-06-14 12:18:58.220,-121.345,324.065,141.995,3.634868,-0.324764,-2.8008759999999997,4
2024-06-14 12:18:58.225,-106.855,294.665,143.95499999999998,3.9732959999999995,-0.188124,-2.5854239999999997,4
2024-06-14 12:18:58.229,-105.245,262.815,135.87,4.3078199999999995,-0.024644,-2.392664,4
2024-06-14 12:18:58.234,-113.33,227.39499999999998,115.67500000000001,4.605744,0.12029200000000001,-2.223328,4
2024-06-14 12:18:58.239,-130.06,194.32,84.595,4.996875999999999,0.08295999999999999,-2.2201560000000002,4
2024-06-14 12:18:58.244,-139.405,155.365,48.51,5.337987999999999,-0.187636,-2.0744879999999997,4
2024-06-14 12:18:58.249,-128.485,117.74000000000001,13.405,5.5053719999999995,-0.541436,-1.97884,4
2024-06-14 12:18:58.254,-98.14,81.27000000000001,-15.645,5.6171240000000004,-0.8940159999999999,-1.8853879999999998,4
2024-06-14 12:18:58.258,-52.605000000000004,42.805,-36.575,5.571251999999999,-1.171444,-1.812188,4
2024-06-14 12:18:58.263,-6.23,18.759999999999998,-49.629999999999995,5.387276,-1.293688,-1.7446000000000002,4
2024-06-14 12:18:58.268,41.09,-34.265,-57.435,5.124244,-1.226344,-1.7040959999999998,4
2024-06-14 12:18:58.273,76.265,-69.125,-61.25,4.79826,-1.026752,-1.713368,4
2024-06-14 12:18:58.278,103.07499999999999,-99.82,-63.105000000000004,4.424695999999999,-0.7564,-1.7507,4
2024-06-14 12:18:58.283,123.97,-127.68,-65.135,3.94304,0.14639999999999997,-1.27368,4
