time,gyroscope_x,gyroscope_y,gyroscope_z,accelerometer_x,accelerometer_y,accelerometer_z,phase
2024-06-14 07:26:02.054,78.4,-314.65,23.45,-1.3542,3.1231999999999998,-7.040864,1
2024-06-14 07:26:02.059,72.31,-312.55,29.4,-3.702456,0.38356799999999996,0.6021920000000001,1
2024-06-14 07:26:02.064,79.1,-244.93,19.46,-2.0525279999999997,0.017567999999999997,0.548024,1
2024-06-14 07:26:02.069,148.68,-328.51,13.16,-0.8364320000000001,-0.027816,-0.6056079999999999,1
2024-06-14 07:26:02.074,153.58,-374.92,8.96,0.060512,-0.195688,-1.556232,1
2024-06-14 07:26:02.078,148.05,-398.79,2.87,0.59292,-0.187392,-2.412672,1
2024-06-14 07:26:02.083,121.45,-403.27,4.34,0.751032,-0.040992,-2.812344,1
2024-06-14 07:26:02.088,72.1,-397.74,10.29,0.2928,-0.040504,-2.84504,1
2024-06-14 07:26:02.093,55.3,-388.99,14.35,0.013663999999999999,-0.098088,-2.753784,1
2024-06-14 07:26:02.098,50.89,-362.32,8.96,-0.06978399999999998,-0.171288,-2.631296,2
2024-06-14 07:26:02.102,65.52,-336.35,-1.4,0.052216,-0.206912,-2.336056,2
2024-06-14 07:26:02.107,71.61,-322.63,-12.81,0.047824,-0.11663199999999999,-2.123776,2
2024-06-14 07:26:02.112,64.05,-309.82,-18.9,-0.059048,-0.042455999999999994,-2.0008,2
2024-06-14 07:26:02.117,47.46,-293.16,-21.49,-0.06978399999999998,0.03172,-1.666032,2
2024-06-14 07:26:02.122,36.4,-269.92,-20.51,-0.030744,0.077592,-1.694824,2
2024-06-14 07:26:02.126,41.02,-229.46,-14.98,0.066368,0.11956,-1.663592,2
2024-06-14 07:26:02.131,28.91,-188.72,-9.94,0.06588,0.123464,-1.654808,2
2024-06-14 07:26:02.136,28.49,-154.77,-3.85,0.037576,0.14200800000000002,-1.5142639999999998,2
2024-06-14 07:26:02.141,21.7,-115.08,1.61,0.020496,0.092232,-1.48352,2
2024-06-14 07:26:02.146,15.82,-83.16,5.53,-0.000488,0.073688,-1.274168,2
2024-06-14 07:26:02.151,11.06,-70.14,7.7,-0.02928,0.045384,-1.170224,2
2024-06-14 07:26:02.155,7.56,-60.9,7.0,-0.029768,-0.009272,-1.130696,2
2024-06-14 07:26:02.160,3.22,-52.85,3.71,-0.04636,-0.023912,-1.1067839999999998,2
2024-06-14 07:26:02.165,-1.33,-46.97,-0.56,-0.048312,-0.024887999999999997,-1.0755519999999998,2
2024-06-14 07:26:02.170,-4.69,-41.86,-4.06,-0.040504,0.00732,-1.077016,2
2024-06-14 07:26:02.175,-6.44,-38.71,-5.32,-0.050263999999999996,0.044408,-1.0677439999999998,2
2024-06-14 07:26:02.179,-6.93,-37.31,-4.69,-0.049775999999999994,0.09467199999999999,-1.059936,2
2024-06-14 07:26:02.184,-6.3,-36.47,-1.89,-0.031232,0.10394400000000001,-1.071648,2
2024-06-14 07:26:02.189,-4.83,-34.51,1.12,-0.020496,0.101992,-1.06628,2
2024-06-14 07:26:02.194,-3.29,-33.46,2.38,-0.011712,0.050752,-1.042368,2
2024-06-14 07:26:02.199,-1.68,-30.45,0.91,-0.009272,0.059048,-1.084336,2
2024-06-14 07:26:02.203,-0.7,-26.32,-1.96,0.012199999999999999,0.062464,-1.066768,2
2024-06-14 07:26:02.208,-1.26,-25.34,-1.75,-0.015616,0.032208,-1.04676,2
2024-06-14 07:26:02.213,-2.66,-25.55,-2.03,-0.056608,0.056608,-1.003328,2
2024-06-14 07:26:02.218,-2.52,-25.13,-2.31,-0.05124,0.063928,-0.98576,2
2024-06-14 07:26:02.223,-1.4,-24.71,-2.52,-0.037576,0.06539199999999999,-1.0043039999999999,2
2024-06-14 07:26:02.228,-0.07,-23.1,-2.31,-0.024399999999999998,0.066368,-1.021384,2
2024-06-14 07:26:02.232,0.21,-21.91,-2.03,-0.009272,0.052704,-1.0248,2
2024-06-14 07:26:02.237,-0.56,-21.98,-1.75,-0.045872,0.045384,-1.006744,2
2024-06-14 07:26:02.242,-0.91,-21.49,-2.03,-0.040015999999999996,0.048799999999999996,-0.9940559999999999,2
2024-06-14 07:26:02.247,-0.91,-21.07,-2.38,-0.031232,0.052704,-1.0091839999999999,2
2024-06-14 07:26:02.252,-1.19,-21.21,-2.38,-0.029768,0.05368,-1.016504,2
2024-06-14 07:26:02.256,-1.54,-21.77,-2.24,-0.030256,0.055632,-1.01992,2
2024-06-14 07:26:02.261,-1.96,-22.05,-2.24,-0.030744,0.048799999999999996,-1.018456,2
2024-06-14 07:26:02.266,-2.45,-22.61,-2.59,-0.034159999999999996,0.04636,-1.016992,2
2024-06-14 07:26:02.271,-2.94,-23.59,-2.66,-0.029768,0.051728,-1.016016,2
2024-06-14 07:26:02.276,-3.57,-24.71,-2.8,-0.026352,0.05368,-1.0091839999999999,2
2024-06-14 07:26:02.280,-3.78,-25.62,-2.87,-0.025376,0.053192,-1.008696,2
2024-06-14 07:26:02.285,-4.13,-26.67,-2.94,-0.016592,0.051728,-1.0091839999999999,2
2024-06-14 07:26:02.290,-4.41,-27.23,-3.01,-0.013176,0.052216,-1.0091839999999999,2
2024-06-14 07:26:02.295,-4.97,-27.86,-2.94,-0.016104,0.052216,-1.013088,2
2024-06-14 07:26:02.300,-5.32,-29.19,-2.94,-0.015616,0.053192,-1.0145520000000001,2
2024-06-14 07:26:02.304,-5.53,-30.17,-2.87,-0.0068319999999999995,0.056608,-1.0126,2
2024-06-14 07:26:02.309,-5.53,-29.26,-2.66,-0.000976,0.057583999999999996,-1.013576,2
2024-06-14 07:26:02.314,-5.25,-29.4,-2.52,0.001464,0.061488,-1.007232,2
2024-06-14 07:26:02.319,-4.2,-28.0,-2.59,-0.00244,0.068808,-1.00528,2
2024-06-14 07:26:02.324,-2.87,-28.07,-2.52,0.0034159999999999998,0.068808,-1.0004,2
2024-06-14 07:26:02.329,-1.33,-26.39,-2.52,0.007808,0.07076,-0.99796,2
2024-06-14 07:26:02.333,-0.07,-24.99,-2.52,0.008783999999999998,0.072712,-0.9940559999999999,2
2024-06-14 07:26:02.338,1.61,-23.38,-2.45,0.016104,0.06978399999999998,-0.9911279999999999,2
2024-06-14 07:26:02.343,2.52,-23.45,-2.38,0.012199999999999999,0.07027199999999999,-0.9940559999999999,2
2024-06-14 07:26:02.348,3.36,-21.84,-2.38,0.01952,0.06490399999999999,-0.9969839999999999,2
2024-06-14 07:26:02.353,3.71,-20.3,-2.45,0.01952,0.06344,-0.994544,2
2024-06-14 07:26:02.357,4.13,-29.12,-2.17,0.016104,0.062952,-0.99796,2
2024-06-14 07:26:02.362,4.62,-22.26,-2.45,0.013176,0.06490399999999999,-1.005768,2
2024-06-14 07:26:02.367,5.67,-21.84,-2.59,0.016592,0.068808,-1.005768,2
2024-06-14 07:26:02.372,7.7,-21.91,-2.38,0.02196,0.06978399999999998,-0.999424,2
2024-06-14 07:26:02.377,9.45,-22.26,-2.17,0.022448,0.061488,-0.999424,2
2024-06-14 07:26:02.381,9.52,-22.61,-2.24,0.035624,0.061975999999999996,-0.9921039999999999,2
2024-06-14 07:26:02.386,10.64,-21.7,-2.45,0.024399999999999998,0.064416,-0.998448,2
2024-06-14 07:26:02.391,11.27,-22.68,-2.38,0.03172,0.061,-0.9940559999999999,2
2024-06-14 07:26:02.396,11.48,-30.17,-2.1,0.034159999999999996,0.051728,-0.9964959999999999,2
2024-06-14 07:26:02.399,9.03,-26.88,-2.73,0.030744,0.044896,-1.001376,2
2024-06-14 07:26:02.401,12.25,-26.25,-2.17,0.02928,0.046848,-0.9960079999999999,2
2024-06-14 07:26:02.403,9.87,-27.58,-2.31,0.033184,0.0366,-1.003328,2
2024-06-14 07:26:02.408,7.63,-28.35,-1.89,0.040015999999999996,0.040992,-1.006744,2
2024-06-14 07:26:02.413,7.77,-29.26,-1.54,0.03904,0.050752,-1.00284,2
2024-06-14 07:26:02.418,7.21,-29.33,-1.75,0.045384,0.05368,-1.003328,2
2024-06-14 07:26:02.423,7.14,-29.82,-1.89,0.047824,0.051728,-1.0047920000000001,2
2024-06-14 07:26:02.428,8.05,-29.89,-1.61,0.049288,0.054168,-1.0047920000000001,2
2024-06-14 07:26:02.432,7.98,-29.12,-1.47,0.054655999999999996,0.052216,-1.003328,2
2024-06-14 07:26:02.437,8.75,-28.63,-1.47,0.052704,0.047824,-1.0047920000000001,2
2024-06-14 07:26:02.442,8.61,-30.38,-1.68,0.054655999999999996,0.04392,-1.022848,2
2024-06-14 07:26:02.447,8.4,-30.1,-1.4,0.060024,0.046848,-1.006744,2
2024-06-14 07:26:02.452,7.98,-28.21,-1.4,0.05856,0.047824,-1.01992,2
2024-06-14 07:26:02.457,7.91,-27.72,-1.26,0.059536,0.051728,-1.022848,2
2024-06-14 07:26:02.461,8.75,-28.56,-1.4,0.06539199999999999,0.05368,-1.01748,2
2024-06-14 07:26:02.466,9.31,-28.21,-1.68,0.07076,0.055144,-1.00772,2
2024-06-14 07:26:02.471,9.94,-25.83,-2.03,0.076128,0.05124,-1.0043039999999999,2
2024-06-14 07:26:02.476,9.1,-26.53,-2.17,0.076616,0.035135999999999994,-0.9989359999999999,2
2024-06-14 07:26:02.481,7.49,-26.81,-2.1,0.07076,0.02684,-1.006256,2
2024-06-14 07:26:02.486,6.3,-27.16,-2.17,0.07564,0.025864,-1.0126,2
2024-06-14 07:26:02.490,5.88,-28.63,-1.82,0.066856,0.032695999999999996,-1.0189439999999998,2
2024-06-14 07:26:02.495,6.37,-29.54,-1.75,0.08052,0.052216,-1.018456,2
2024-06-14 07:26:02.500,7.77,-31.85,-1.75,0.081984,0.052704,-1.0360239999999998,2
2024-06-14 07:26:02.505,9.87,-34.51,-1.89,0.06734399999999999,0.048799999999999996,-1.052616,2
2024-06-14 07:26:02.510,11.34,-37.52,-2.17,0.076128,0.047335999999999996,-1.071648,2
2024-06-14 07:26:02.515,12.95,-43.19,-1.96,0.103456,0.071248,-1.050664,2
2024-06-14 07:26:02.520,10.92,-49.56,-2.24,0.096624,0.04636,-1.079944,2
2024-06-14 07:26:02.524,10.71,-55.37,-2.17,0.09759999999999999,0.056119999999999996,-1.098976,2
2024-06-14 07:26:02.529,10.22,-61.04,-2.8,0.102968,0.073688,-1.121912,2
2024-06-14 07:26:02.534,9.45,-67.13,-3.64,0.101504,0.07027199999999999,-1.148752,2
2024-06-14 07:26:02.539,8.89,-72.59,-3.85,0.108336,0.039528,-1.185352,2
2024-06-14 07:26:02.544,7.7,-75.18,-3.85,0.110288,-0.019032,-1.286856,2
2024-06-14 07:26:02.549,2.1,-69.72,-3.36,0.11223999999999999,-0.07564,-1.513288,2
2024-06-14 07:26:02.553,-5.81,-68.81,-3.29,0.119072,-0.009272,-1.276608,2
2024-06-14 07:26:02.558,-9.73,-74.34,-2.73,0.121512,0.000488,-1.341512,2
2024-06-14 07:26:02.563,-12.04,-79.87,-2.1,0.122976,-0.018056000000000003,-1.3327280000000001,3
2024-06-14 07:26:02.568,-14.56,-86.52,-1.33,0.125416,0.0,-1.3585919999999998,3
2024-06-14 07:26:02.573,-18.41,-93.45,-0.77,0.125904,-0.023424,-1.386896,3
2024-06-14 07:26:02.578,-22.19,-101.22,0.35,0.131272,-0.030744,-1.40544,3
2024-06-14 07:26:02.582,-26.32,-109.34,1.33,0.133712,-0.032208,-1.403976,3
2024-06-14 07:26:02.587,-30.66,-117.04,2.24,0.13663999999999998,-0.027327999999999998,-1.44936,3
2024-06-14 07:26:02.592,-33.32,-120.96,2.94,0.14932800000000002,-0.03172,-1.509872,3
2024-06-14 07:26:02.597,-38.57,-126.0,3.71,0.14152,0.010248,-1.456192,3
2024-06-14 07:26:02.602,-40.95,-133.63,3.5,0.14200800000000002,0.022448,-1.541104,3
2024-06-14 07:26:02.607,-40.04,-143.22,2.8,0.149816,0.06490399999999999,-1.56648,3
2024-06-14 07:26:02.612,-38.64,-152.39,1.33,0.13419999999999999,0.12736799999999998,-1.606984,3
2024-06-14 07:26:02.616,-35.84,-162.54,-1.33,0.123464,0.163968,-1.6592,3
2024-06-14 07:26:02.621,-30.1,-172.76,-4.34,0.120048,0.197152,-1.6523679999999998,3
2024-06-14 07:26:02.626,-27.02,-183.61,-8.12,0.106384,0.244976,-1.6357760000000001,3
2024-06-14 07:26:02.631,-24.5,-195.02,-12.46,0.101016,0.252784,-1.667984,3
2024-06-14 07:26:02.636,-21.49,-207.41,-16.87,0.08686400000000001,0.27571999999999997,-1.71776,3
2024-06-14 07:26:02.641,-20.58,-220.57,-21.84,0.07808,0.296704,-1.754848,3
2024-06-14 07:26:02.645,-21.56,-235.06,-26.81,0.07222400000000001,0.243024,-1.809504,3
2024-06-14 07:26:02.650,-24.22,-249.76,-30.38,0.054168,0.144936,-1.906616,3
2024-06-14 07:26:02.655,-26.67,-265.79,-32.69,0.035135999999999994,0.10736,-1.92028,3
2024-06-14 07:26:02.660,-30.1,-282.87,-35.21,0.009272,0.119072,-1.951512,3
2024-06-14 07:26:02.665,-31.36,-301.84,-38.15,-0.01952,0.15176800000000001,-1.99348,3
2024-06-14 07:26:02.670,-34.58,-325.78,-42.07,-0.063928,0.22350399999999998,-1.875872,3
2024-06-14 07:26:02.674,-35.84,-350.7,-46.83,-0.079544,0.26400799999999996,-2.057896,3
2024-06-14 07:26:02.679,-36.61,-377.37,-51.94,-0.105896,0.26108,-2.196488,3
2024-06-14 07:26:02.684,-38.01,-405.23,-56.14,-0.12932,0.24156,-2.266272,3
2024-06-14 07:26:02.689,-41.37,-432.18,-59.29,-0.124928,0.213744,-2.3589919999999998,3
2024-06-14 07:26:02.694,-44.31,-448.0,-60.06,-0.077104,0.202032,-2.550776,3
2024-06-14 07:26:02.699,-47.04,-473.9,-60.48,-0.018544,0.19178399999999998,-2.698152,3
2024-06-14 07:26:02.704,-47.39,-498.4,-59.57,0.10394400000000001,0.325984,-2.83772,3
2024-06-14 07:26:02.708,-48.44,-515.13,-58.94,0.488488,0.25864,-3.019256,3
2024-06-14 07:26:02.713,-48.16,-523.25,-55.23,0.8100799999999999,0.17616800000000002,-3.353536,3
2024-06-14 07:26:02.718,-50.19,-519.75,-53.06,0.876448,0.518744,-3.488712,3
2024-06-14 07:26:02.723,-60.41,-513.8,-55.02,1.016016,0.40211199999999997,-3.38916,3
2024-06-14 07:26:02.728,-62.44,-510.58,-52.78,0.665632,0.47189600000000004,-3.201768,3
2024-06-14 07:26:02.733,-73.71,-497.28,-56.35,0.34745600000000004,0.406992,-3.185176,3
2024-06-14 07:26:02.737,-63.21,-495.6,-61.53,0.304024,-0.044408,-3.1300320000000004,3
2024-06-14 07:26:02.742,-38.01,-504.35,-57.47,0.1464,-0.156648,-2.99876,3
2024-06-14 07:26:02.747,-18.13,-516.32,-63.07,-0.10248,0.11712,-2.903112,3
2024-06-14 07:26:02.752,-1.33,-514.22,-71.54,-0.128832,0.46652799999999994,-2.8469919999999997,3
2024-06-14 07:26:02.757,10.29,-491.47,-76.44,0.01952,0.7817759999999999,-2.902624,3
2024-06-14 07:26:02.762,8.12,-460.74,-81.27,-0.263032,1.041392,-2.495632,3
2024-06-14 07:26:02.766,-6.37,-416.85,-87.43,-0.71492,1.1424079999999999,-1.8773360000000001,3
2024-06-14 07:26:02.771,-22.33,-359.66,-88.97,-1.108736,1.050664,-1.4454559999999999,3
2024-06-14 07:26:02.776,-37.66,-300.72,-88.13,-1.4752239999999999,0.906216,-1.258552,3
2024-06-14 07:26:02.781,-47.04,-236.04,-91.14,-2.3301999999999996,0.725168,-1.06628,3
2024-06-14 07:26:02.786,-53.48,-145.67,-101.36,-3.0256,0.36112,-0.870592,3
2024-06-14 07:26:02.791,-38.29,-78.75,-96.88,-1.0126,0.13468799999999997,-1.00528,4
2024-06-14 07:26:02.795,-16.59,-49.21,-77.98,-1.3785999999999998,0.41236,-1.3327280000000001,4
2024-06-14 07:26:02.800,8.05,47.53,-64.33,-2.016904,0.03904,-1.6206479999999999,4
2024-06-14 07:26:02.805,36.26,127.89,-49.28,-1.8646479999999999,-0.36356,-1.336144,4
2024-06-14 07:26:02.810,53.41,164.71,-33.32,-1.469368,-0.21032800000000001,-1.140944,4
2024-06-14 07:26:02.815,65.24,175.0,-21.77,-1.2536720000000001,0.12736799999999998,-1.15168,4
2024-06-14 07:26:02.820,73.22,179.2,-14.28,-1.130208,0.26644799999999996,-1.139968,4
2024-06-14 07:26:02.825,74.41,180.39,-9.31,-1.054568,0.24888,-1.060424,4
2024-06-14 07:26:02.829,71.33,179.83,-6.3,-1.003328,0.254248,-0.919392,4
2024-06-14 07:26:02.834,67.55,177.66,-5.04,-0.9706319999999999,0.31476,-0.753472,4
2024-06-14 07:26:02.839,64.26,175.7,-4.97,-0.942816,0.35477600000000004,-0.6153679999999999,4
2024-06-14 07:26:02.844,60.55,176.54,-5.6,-0.9174399999999999,0.35477600000000004,-0.5426559999999999,4
2024-06-14 07:26:02.849,55.65,180.67,-6.86,-0.897432,0.356728,-0.522648,4
2024-06-14 07:26:02.854,50.12,187.6,-9.03,-0.895968,0.369416,-0.5021519999999999,4
2024-06-14 07:26:02.858,45.15,197.82,-11.48,-0.907192,0.369416,-0.46848,4
2024-06-14 07:26:02.863,41.44,211.05,-13.51,-0.920368,0.34745600000000004,-0.43724799999999997,4
2024-06-14 07:26:02.868,38.71,226.38,-14.91,-0.924272,0.311832,-0.432368,4
2024-06-14 07:26:02.873,37.1,242.83,-15.89,-0.915488,0.27083999999999997,-0.458232,4
2024-06-14 07:26:02.878,36.47,258.93,-16.03,-0.898408,0.24888,-0.490928,4
2024-06-14 07:26:02.883,36.89,273.49,-15.4,-0.874984,0.23326399999999997,-0.522648,4
2024-06-14 07:26:02.887,37.45,286.37,-13.93,-0.842776,0.22447999999999999,-0.548024,4
2024-06-14 07:26:02.892,37.94,296.87,-11.9,-0.800808,0.23326399999999997,-0.5734,4
2024-06-14 07:26:02.897,38.01,304.85,-9.24,-0.74664,0.23912,-0.601216,4
2024-06-14 07:26:02.902,37.94,309.96,-6.23,-0.698328,0.244488,-0.6344,4
2024-06-14 07:26:02.907,38.29,312.55,-2.8,-0.6417200000000001,0.257664,-0.665632,4
2024-06-14 07:26:02.912,38.29,312.83,0.7,-0.589016,0.29377600000000004,-0.708576,4
2024-06-14 07:26:02.917,37.31,311.57,3.64,-0.56852,0.33183999999999997,-0.74176,4
2024-06-14 07:26:02.921,34.51,310.8,6.23,-0.5690080000000001,0.36844,-0.747616,4
2024-06-14 07:26:02.926,29.4,312.13,8.19,-0.5787680000000001,0.413824,-0.754448,4
2024-06-14 07:26:02.931,22.54,315.07,9.52,-0.588528,0.44944799999999996,-0.789584,4
2024-06-14 07:26:02.936,14.28,319.48,10.57,-0.589992,0.478728,-0.8408239999999999,4
2024-06-14 07:26:02.941,5.74,324.87,11.27,-0.59536,0.48068,-0.8940159999999999,4
2024-06-14 07:26:02.946,-2.8,331.73,11.76,-0.594384,0.476288,-0.9516,4
2024-06-14 07:26:02.950,-10.08,339.64,12.18,-0.594872,0.452376,-1.0189439999999998,4
2024-06-14 07:26:02.955,-15.47,348.11,12.46,-0.5870639999999999,0.416752,-1.082384,4
2024-06-14 07:26:02.960,-18.76,356.58,12.6,-0.574376,0.384544,-1.158512,4
2024-06-14 07:26:02.965,-20.44,364.91,12.25,-0.552904,0.372344,-1.2331759999999998,4
2024-06-14 07:26:02.970,-21.28,372.4,10.85,-0.530456,0.379176,-1.315648,4
2024-06-14 07:26:02.975,-22.61,378.98,8.61,-0.494344,0.403576,-1.394704,4
2024-06-14 07:26:02.979,-24.78,384.16,5.32,-0.462624,0.42944,-1.470344,4
2024-06-14 07:26:02.984,-27.79,388.43,1.05,-0.435296,0.465064,-1.5454959999999998,4
2024-06-14 07:26:02.989,-31.78,391.51,-4.13,-0.40503999999999996,0.488976,-1.621624,4
2024-06-14 07:26:02.994,-37.03,393.68,-10.22,-0.369904,0.503128,-1.703608,4
2024-06-14 07:26:02.999,-42.84,395.01,-17.08,-0.332816,0.50752,-1.7933999999999999,4
2024-06-14 07:26:03.004,-48.72,395.78,-24.15,-0.272792,0.512888,-1.889048,4
2024-06-14 07:26:03.009,-54.39,395.57,-31.01,-0.215696,0.5124,-1.9759120000000001,4
2024-06-14 07:26:03.013,-60.41,394.66,-37.8,-0.14884,0.511424,-2.06424,4
2024-06-14 07:26:03.018,-67.13,392.07,-43.89,-0.07076,0.511424,-2.155984,4
2024-06-14 07:26:03.023,-74.27,387.73,-47.88,0.012199999999999999,0.494344,-2.246264,4
2024-06-14 07:26:03.028,-81.62,381.57,-49.77,0.08247199999999999,0.47433600000000004,-2.3433759999999997,4
2024-06-14 07:26:03.033,-88.97,373.94,-49.14,0.125904,0.44895999999999997,-2.440976,4
2024-06-14 07:26:03.038,-96.18,365.68,-46.83,0.152744,0.42944,-2.548336,4
2024-06-14 07:26:03.042,-103.46,357.98,-44.31,0.14396,0.44944799999999996,-2.670336,4
2024-06-14 07:26:03.047,-112.77,352.24,-41.09,0.13224799999999998,0.508496,-2.784528,4
2024-06-14 07:26:03.052,-123.97,346.29,-38.64,0.11712,0.540216,-2.9128719999999997,4
2024-06-14 07:26:03.057,-137.97,343.42,-37.66,0.10003999999999999,0.56608,-3.034872,4
2024-06-14 07:26:03.062,-153.16,344.19,-37.45,0.110288,0.535336,-3.1466239999999996,4
2024-06-14 07:26:03.067,-167.09,347.41,-36.75,0.152744,0.428464,-3.239344,4
2024-06-14 07:26:03.071,-177.52,352.1,-35.35,0.228872,0.300608,-3.329624,4
2024-06-14 07:26:03.076,-184.31,357.07,-32.76,0.34648,0.15616,-3.4140479999999997,4
2024-06-14 07:26:03.081,-187.74,360.08,-28.84,0.472872,-0.00244,-3.4804159999999995,4
2024-06-14 07:26:03.086,-186.9,361.76,-23.8,0.574376,-0.174704,-3.5199439999999997,4
2024-06-14 07:26:03.091,-181.65,362.74,-17.15,0.660752,-0.350872,-3.522872,4
2024-06-14 07:26:03.096,-172.55,363.3,-9.24,0.720776,-0.488,-3.525312,4
2024-06-14 07:26:03.101,-162.54,364.0,-0.98,0.7817759999999999,-0.5909679999999999,-3.5209200000000003,4
2024-06-14 07:26:03.105,-151.69,365.19,7.91,0.8740079999999999,-0.6783199999999999,-3.473096,4
2024-06-14 07:26:03.110,-139.16,365.4,17.78,0.993568,-0.7481039999999999,-3.374032,4
2024-06-14 07:26:03.115,-127.82,361.97,28.28,1.091168,-0.800808,-3.2105520000000003,4
2024-06-14 07:26:03.120,-127.68,355.6,38.08,1.226832,-0.915976,-3.02316,4
2024-06-14 07:26:03.125,-129.99,350.49,46.48,1.499624,-1.0833599999999999,-2.928976,4
2024-06-14 07:26:03.130,-113.89,341.11,53.83,1.789496,-1.2605039999999998,-2.90604,4
2024-06-14 07:26:03.134,-81.83,326.2,61.74,2.003728,-1.220488,-2.728408,4
2024-06-14 07:26:03.139,-43.05,306.53,68.53,2.17648,-0.859856,-2.473672,4
2024-06-14 07:26:03.144,-13.65,284.97,68.11,2.351672,-0.17812,-2.294088,4
2024-06-14 07:26:03.149,-9.1,264.53,56.0,2.551752,0.5572959999999999,-2.107672,4
2024-06-14 07:26:03.154,-29.54,245.28,31.57,2.848456,1.143872,-1.9139359999999999,4
2024-06-14 07:26:03.159,-65.38,228.62,-2.1,3.2656959999999997,1.392752,-1.7714400000000001,4
2024-06-14 07:26:03.163,-106.96,213.85,-39.76,3.800544,1.230248,-1.702144,4
2024-06-14 07:26:03.168,-149.31,197.47,-72.73,4.379312,0.606096,-1.73972,4
2024-06-14 07:26:03.173,-180.81,174.37,-88.83,4.9532,-0.371856,-1.794376,4
2024-06-14 07:26:03.178,-185.64,141.33,-84.77,5.550024,-1.628456,-1.881728,4
2024-06-14 07:26:03.183,-155.54,96.67,-54.53,5.8228159999999995,-2.609824,-1.9783519999999999,4
2024-06-14 07:26:03.188,-89.18,38.15,-19.46,5.730096,-3.119296,-1.9724959999999998,4
2024-06-14 07:26:03.192,-12.88,-18.69,23.59,5.22648,-2.847968,-1.887096,4
2024-06-14 07:26:03.197,47.53,-65.24,59.08,4.515952,-2.061312,-1.82024,4
2024-06-14 07:26:03.202,78.47,-98.28,81.9,3.759064,-1.2043840000000001,-1.81048,4
2024-06-14 07:26:03.207,83.65,-116.27,93.59,3.0744000000000002,-0.53924,-1.794864,4
2024-06-14 07:26:03.212,76.79,-121.31,98.14,2.545896,-0.171776,-1.741672,4
2024-06-14 07:26:03.217,70.84,-119.14,100.38,2.2301599999999997,-0.079544,-1.7284959999999998,4
2024-06-14 07:26:03.222,72.38,-116.41,103.11,2.0705839999999998,-0.17519200000000001,-1.814384,4
2024-06-14 07:26:03.226,79.66,-117.88,107.38,2.01056,-0.290848,-1.910032,4
2024-06-14 07:26:03.231,97.93,-142.87,99.05,-0.371368,2.494656,-2.399496,4
2024-06-14 07:26:03.236,159.46,-339.08,61.25,-2.667408,-0.25229599999999996,-2.959232,4
2024-06-14 07:26:03.241,98.0,-186.69,74.27,-4.410056,0.002928,1.975424,4
