time,gyroscope_x,gyroscope_y,gyroscope_z,accelerometer_x,accelerometer_y,accelerometer_z,phase
2024-06-14 11:37:38.418,370.37,-419.895,-35.525,6.456728,-3.840804,-4.935876,1
2024-06-14 11:37:38.423,382.27,-360.745,-14.455,0.6078039999999999,0.9730719999999999,0.270596,1
2024-06-14 11:37:38.428,426.125,-316.365,-8.575,-0.8300879999999999,0.417972,-0.256932,1
2024-06-14 11:37:38.432,450.24,-338.135,21.7,1.626748,0.2501,-2.07888,1
2024-06-14 11:37:38.437,342.755,-281.68,45.254999999999995,-1.4161759999999999,-0.19251600000000002,-2.8094159999999997,1
2024-06-14 11:37:38.442,199.15,-279.51,91.105,-0.985516,-0.20593599999999995,-2.645448,1
2024-06-14 11:37:38.447,150.39499999999998,-307.825,116.41,-0.961116,-0.13346799999999998,-1.689212,1
2024-06-14 11:37:38.452,117.94999999999999,-345.94,124.91499999999999,-0.107848,-0.454572,-1.94834,1
2024-06-14 11:37:38.457,126.875,-347.27,126.77000000000001,0.3721,-0.546316,-2.463668,1
2024-06-14 11:37:38.462,74.935,-277.58500000000004,103.005,0.6588,-1.4427720000000002,-3.070984,1
2024-06-14 11:37:38.466,57.61,-240.03,71.085,0.37502800000000003,-0.986248,-2.379488,1
2024-06-14 11:37:38.471,52.36,-200.48,56.175,0.406016,-0.275964,-2.238944,1
2024-06-14 11:37:38.476,34.3,-161.945,51.24,0.324276,-0.33330400000000004,-2.070096,1
2024-06-14 11:37:38.481,41.72,-52.919999999999995,23.275,0.40503999999999996,-0.786168,-2.969724,1
2024-06-14 11:37:38.486,32.06,-7.455,-5.1450000000000005,0.05807200000000001,-0.079056,-1.4791279999999998,1
2024-06-14 11:37:38.491,35.42,-7.49,0.3150000000000004,0.11443599999999998,0.287188,-1.4535079999999998,1
2024-06-14 11:37:38.495,28.805,-9.835,17.22,0.008539999999999997,-0.049532,-1.287344,1
2024-06-14 11:37:38.500,25.865000000000002,-21.525,20.369999999999997,0.08295999999999999,0.032696,-1.236104,1
2024-06-14 11:37:38.505,23.765,-25.025,26.11,0.1708,-0.048555999999999995,-1.118252,1
2024-06-14 11:37:38.510,21.35,-12.774999999999999,21.98,0.025863999999999998,-0.088816,-0.9672160000000001,1
2024-06-14 11:37:38.515,26.145,-4.515000000000001,9.73,0.103212,-0.094916,-1.0006439999999999,1
2024-06-14 11:37:38.520,27.755,-0.385,-1.645,0.051727999999999996,-0.11638799999999999,-1.0213839999999998,1
2024-06-14 11:37:38.524,23.835,0.45499999999999996,-3.675,-0.003172000000000001,-0.18153599999999998,-1.053348,1
2024-06-14 11:37:38.529,18.095,-0.10500000000000001,-0.735,-0.0009759999999999994,-0.069052,-1.04798,1
2024-06-14 11:37:38.534,18.83,0.525,2.73,0.00854,0.024887999999999997,-1.09922,1
2024-06-14 11:37:38.539,24.78,1.6800000000000002,2.1,0.023424,0.02074,-1.1492399999999998,1
2024-06-14 11:37:38.544,25.375,0.7350000000000001,0.77,-0.054412,-0.11345999999999999,-1.0848239999999998,1
2024-06-14 11:37:38.549,20.475,-0.77,0.7,-0.123464,-0.12980799999999998,-1.005036,2
2024-06-14 11:37:38.553,16.169999999999998,-2.94,0.63,-0.09418399999999999,-0.099796,-1.0796999999999999,2
2024-06-14 11:37:38.558,11.76,-8.365,0.28,-0.083204,-0.114436,-1.14314,2
2024-06-14 11:37:38.563,6.58,-14.28,0.42,-0.104432,-0.110532,-1.1272799999999998,2
2024-06-14 11:37:38.568,2.9050000000000002,-19.880000000000003,0.63,-0.12566,-0.08588799999999999,-1.103368,2
2024-06-14 11:37:38.573,0.945,-25.479999999999997,0.315,-0.125416,-0.08491199999999999,-1.076284,2
2024-06-14 11:37:38.578,-1.295,-31.045,0.175,-0.10467599999999999,-0.097112,-1.0765280000000002,2
2024-06-14 11:37:38.582,-4.62,-36.54,0.10500000000000001,-0.07197999999999999,-0.110288,-1.084092,2
2024-06-14 11:37:38.587,-8.504999999999999,-42.035,0.315,-0.071492,-0.107604,-1.0753080000000002,2
2024-06-14 11:37:38.592,-11.34,-46.2,0.21,-0.07930000000000001,-0.086376,-1.073112,2
2024-06-14 11:37:38.597,-12.565000000000001,-49.489999999999995,-0.21,-0.0854,-0.058316,-1.08336,2
2024-06-14 11:37:38.602,-11.69,-53.480000000000004,-0.77,-0.094672,-0.021716000000000003,-1.0860439999999998,2
2024-06-14 11:37:38.607,-9.66,-58.275,-1.645,-0.08125199999999999,-0.032940000000000004,-1.086288,2
2024-06-14 11:37:38.611,-8.75,-60.76,-1.8199999999999998,-0.066856,-0.057828000000000004,-1.065304,2
2024-06-14 11:37:38.616,-9.555,-60.515,-1.6800000000000002,-0.049044000000000004,-0.089792,-1.0460279999999997,2
2024-06-14 11:37:38.621,-11.34,-59.815,-1.54,-0.046848,-0.101504,-1.037,2
2024-06-14 11:37:38.626,-13.335,-59.254999999999995,-1.33,-0.026108,-0.08174,-1.046516,2
2024-06-14 11:37:38.631,-14.629999999999999,-59.535,-1.05,-0.034159999999999996,-0.072468,-1.060424,2
2024-06-14 11:37:38.636,-15.434999999999999,-60.269999999999996,-0.875,-0.035868,-0.067344,-1.036756,2
2024-06-14 11:37:38.640,-20.475,-51.519999999999996,-0.595,-0.026352,-0.066612,-1.048468,2
2024-06-14 11:37:38.645,-8.96,-62.05499999999999,-0.91,-0.026596,-0.057339999999999995,-1.0179679999999998,2
2024-06-14 11:37:38.650,-15.959999999999999,-63.175000000000004,-0.42000000000000004,-0.021716,-0.04758,-1.008208,2
2024-06-14 11:37:38.655,-20.93,-71.33,-0.175,-0.005855999999999999,-0.049776,-1.0152839999999999,2
2024-06-14 11:37:38.660,-2.765,-85.225,0.17500000000000004,0.001464,-0.057828000000000004,-1.016992,2
2024-06-14 11:37:38.665,-11.655000000000001,-63.735,0.03500000000000003,0.021716,-0.06612399999999999,-1.0179679999999998,2
2024-06-14 11:37:38.670,-10.045,-66.42999999999999,0.56,0.00976,-0.041235999999999995,-1.004792,2
2024-06-14 11:37:38.674,-10.079999999999998,-58.31,0.665,-0.01464,-0.036112,-1.01138,2
2024-06-14 11:37:38.679,-7.7,-61.144999999999996,0.77,0.022692,-0.031232000000000003,-1.0309,2
2024-06-14 11:37:38.684,-10.36,-61.6,0.175,0.023424,-0.026596,-1.0128439999999999,2
2024-06-14 11:37:38.689,-7.91,-59.010000000000005,0.10499999999999998,0.012443999999999998,-0.033184,-1.0421239999999998,2
2024-06-14 11:37:38.694,-18.27,-53.375,-1.225,0.019763999999999997,-0.027327999999999998,-1.0836039999999998,2
2024-06-14 11:37:38.699,-14.91,-50.504999999999995,-0.98,0.033671999999999994,-0.033672,-1.034072,2
2024-06-14 11:37:38.703,-13.86,-48.545,-1.295,0.032452,-0.037576,-1.037,2
2024-06-14 11:37:38.708,-10.465,-47.635000000000005,-0.98,0.038552,-0.039040000000000005,-1.0194320000000001,2
2024-06-14 11:37:38.713,-10.36,-45.745,-0.245,0.048312,-0.040260000000000004,-1.042612,2
2024-06-14 11:37:38.718,-10.955,-43.995000000000005,0.7,0.044163999999999995,-0.035624,-1.028216,2
2024-06-14 11:37:38.723,-8.54,-42.665,0.63,0.043432,-0.024888,-1.02968,2
2024-06-14 11:37:38.728,-4.97,-40.67,0.13999999999999999,0.050752,-0.021228,-0.9969840000000001,2
2024-06-14 11:37:38.732,1.05,-41.265,-0.28,0.053436,-0.034404000000000004,-1.02724,2
2024-06-14 11:37:38.737,-0.14,-38.955,-0.63,0.06368399999999999,-0.03782,-1.019188,2
2024-06-14 11:37:38.742,1.505,-36.575,-0.595,0.063196,-0.050019999999999995,-1.0206520000000001,2
2024-06-14 11:37:38.747,3.1500000000000004,-30.17,-0.8400000000000001,0.06466,-0.04489599999999999,-1.017968,2
2024-06-14 11:37:38.752,3.885,-29.68,-1.0150000000000001,0.06758799999999998,-0.033428,-1.006256,2
2024-06-14 11:37:38.757,3.7800000000000002,-29.015,-1.33,0.07344400000000001,-0.04514,-1.013332,2
2024-06-14 11:37:38.761,2.38,-28.595,-1.575,0.08125199999999999,-0.045384,-1.012356,2
2024-06-14 11:37:38.766,2.17,-27.615000000000002,-1.6800000000000002,0.08979200000000001,-0.052216,-0.98576,2
2024-06-14 11:37:38.771,1.365,-25.935000000000002,-1.855,0.08979200000000001,-0.044652000000000004,-0.990884,2
2024-06-14 11:37:38.777,0.595,-24.604999999999997,-1.9249999999999998,0.0915,-0.053192,-0.97844,2
2024-06-14 11:37:38.782,0.175,-23.03,-2.03,0.095648,-0.049532,-0.96868,2
2024-06-14 11:37:38.787,-0.175,-20.895,-2.135,0.098576,-0.050752,-0.96746,2
2024-06-14 11:37:38.791,-0.315,-18.619999999999997,-2.0999999999999996,0.094916,-0.040748,-0.9638,2
2024-06-14 11:37:38.796,0.28,-17.5,-2.59,0.091988,-0.029767999999999996,-0.97844,2
2024-06-14 11:37:38.801,0.9450000000000001,-16.59,-2.905,0.09296399999999999,-0.026596,-0.986736,2
2024-06-14 11:37:38.806,2.5549999999999997,-16.345,-3.2199999999999998,0.088328,-0.02318,-0.998936,2
2024-06-14 11:37:38.811,4.0600000000000005,-16.869999999999997,-3.745,0.08784,-0.022935999999999998,-1.0157720000000001,2
2024-06-14 11:37:38.816,5.18,-18.165,-4.025,0.083204,-0.033672,-1.040904,2
2024-06-14 11:37:38.820,6.37,-19.6,-4.165,0.084424,-0.043432,-1.05408,2
2024-06-14 11:37:38.825,6.615,-21.244999999999997,-4.234999999999999,0.087108,-0.04367599999999999,-1.074088,2
2024-06-14 11:37:38.830,6.86,-23.205,-3.9899999999999998,0.081984,-0.057828,-1.107516,2
2024-06-14 11:37:38.835,6.79,-26.215,-3.605,0.08174,-0.04636,-1.134112,2
2024-06-14 11:37:38.840,6.965,-30.03,-3.4299999999999997,0.083448,-0.050508,-1.157292,2
2024-06-14 11:37:38.845,6.51,-33.985,-2.975,0.08271599999999998,-0.059536,-1.185108,2
2024-06-14 11:37:38.849,5.18,-36.925,-2.6950000000000003,0.08296,-0.06417199999999999,-1.228296,2
2024-06-14 11:37:38.854,3.255,-43.015,-2.4850000000000003,0.09101200000000001,-0.049288,-1.2153639999999999,3
2024-06-14 11:37:38.859,0.3500000000000001,-46.795,-2.24,0.099552,-0.06953999999999999,-1.2087759999999999,3
2024-06-14 11:37:38.864,-2.135,-50.504999999999995,-1.75,0.106384,-0.083448,-1.223172,3
2024-06-14 11:37:38.869,-5.705,-53.025,-1.295,0.10833599999999999,-0.08418,-1.238544,3
2024-06-14 11:37:38.873,-8.75,-56.84,-0.63,0.106628,-0.107848,-1.252452,3
2024-06-14 11:37:38.878,-12.04,-59.535,0.24500000000000002,0.10345599999999999,-0.116144,-1.2709959999999998,3
2024-06-14 11:37:38.883,-15.399999999999999,-62.3,0.98,0.10492,-0.091012,-1.2856359999999998,3
2024-06-14 11:37:38.888,-18.585,-65.66,1.8199999999999998,0.104188,-0.112728,-1.352492,3
2024-06-14 11:37:38.893,-19.46,-71.75,2.87,0.100528,-0.086864,-1.403,3
2024-06-14 11:37:38.898,-21.0,-79.66,3.8150000000000004,0.101748,-0.077104,-1.439356,3
2024-06-14 11:37:38.902,-21.175,-88.16499999999999,4.69,0.089548,-0.08296,-1.452776,3
2024-06-14 11:37:38.907,-17.815,-94.78,5.915,0.08271599999999998,-0.11565600000000001,-1.4971839999999998,3
2024-06-14 11:37:38.912,-13.719999999999999,-106.36500000000001,7.665,0.099552,-0.04026,-1.440576,3
2024-06-14 11:37:38.917,-18.515,-115.465,6.93,0.125172,-0.042456,-1.4095879999999998,3
2024-06-14 11:37:38.922,-24.15,-122.255,7.140000000000001,0.121756,-0.11541199999999999,-1.428864,3
2024-06-14 11:37:38.927,-30.310000000000002,-130.655,8.05,0.11346,-0.126636,-1.485716,3
2024-06-14 11:37:38.931,-35.525,-140.28,8.61,0.10711599999999999,-0.111752,-1.5547680000000001,3
2024-06-14 11:37:38.936,-37.975,-151.69,8.82,0.093696,-0.056119999999999996,-1.635044,3
2024-06-14 11:37:38.941,-39.165000000000006,-166.18,8.54,0.077104,-0.048799999999999996,-1.687504,3
2024-06-14 11:37:38.946,-38.709999999999994,-183.05,7.91,0.06270799999999999,0.030743999999999997,-1.733376,3
2024-06-14 11:37:38.951,-38.01,-201.04000000000002,6.16,0.056608,0.044652,-1.7550919999999999,3
2024-06-14 11:37:38.956,-37.24,-220.57,4.375,0.034648,0.035379999999999995,-1.822924,3
2024-06-14 11:37:38.960,-37.239999999999995,-238.245,2.765,0.032452,0.0060999999999999995,-1.925404,3
2024-06-14 11:37:38.965,-32.83,-258.3,1.33,0.053192,-0.0017080000000000003,-2.083516,3
2024-06-14 11:37:38.970,-39.655,-272.475,0.385,-0.021716,0.000732,-2.146224,3
2024-06-14 11:37:38.975,-42.875,-296.45,-1.4,-0.02684,0.027816,-2.0927879999999996,3
2024-06-14 11:37:38.980,-45.254999999999995,-324.485,-2.87,-0.058804,0.014884,-2.252364,3
2024-06-14 11:37:38.985,-48.825,-348.53,-4.9350000000000005,-0.080276,0.058072,-2.326784,3
2024-06-14 11:37:38.989,-49.665,-376.95000000000005,-8.084999999999999,-0.08662,0.122,-2.4797719999999996,3
2024-06-14 11:37:38.994,-49.07,-405.895,-11.515,-0.088816,0.12346399999999999,-2.8216159999999997,3
2024-06-14 11:37:38.999,-52.78,-431.095,-14.489999999999998,-0.10370000000000001,0.13786,-2.9931479999999997,3
2024-06-14 11:37:39.004,-53.305,-461.65,-19.355,-0.111508,0.21423199999999998,-3.2408079999999995,3
2024-06-14 11:37:39.009,-53.165,-482.895,-22.505000000000003,-0.019031999999999993,0.11077599999999999,-3.634136,3
2024-06-14 11:37:39.013,-64.61,-509.28499999999997,-19.81,0.0244,0.280844,-3.862764,3
2024-06-14 11:37:39.018,-78.19,-535.5350000000001,-29.400000000000002,0.062708,0.5492440000000001,-3.7158759999999997,3
2024-06-14 11:37:39.023,-89.845,-554.2249999999999,-35.56,0.178608,0.246684,-4.086512,3
2024-06-14 11:37:39.028,-97.755,-566.9649999999999,-37.59,0.146888,0.116388,-4.337832,3
2024-06-14 11:37:39.033,-92.365,-582.75,-37.905,0.047336,-0.065636,-4.220468,3
2024-06-14 11:37:39.038,-80.745,-594.58,-38.29,0.03172,-0.12102399999999999,-4.439579999999999,3
2024-06-14 11:37:39.042,-56.875,-605.29,-41.335,-0.146644,-0.09638,-4.5689,3
2024-06-14 11:37:39.047,-18.235,-610.505,-43.19,-0.44822799999999996,-0.086376,-4.145072,3
2024-06-14 11:37:39.052,22.435,-603.2249999999999,-46.515,-0.7876320000000001,-0.063928,-3.759308,3
2024-06-14 11:37:39.057,66.955,-579.11,-44.695,-1.071892,-0.132004,-3.5785039999999997,3
2024-06-14 11:37:39.062,110.88,-544.6700000000001,-37.87,-1.737768,0.043676,-3.1180759999999994,3
2024-06-14 11:37:39.067,142.135,-510.825,-32.83,-2.3955919999999997,0.332572,-2.704008,4
2024-06-14 11:37:39.071,170.73000000000002,-491.435,-31.395000000000003,-2.8045359999999997,0.747616,-2.602748,4
2024-06-14 11:37:39.076,179.55,-466.515,-40.705,-2.9341,1.2331759999999998,-1.6042999999999998,4
2024-06-14 11:37:39.081,169.645,-438.865,-63.94499999999999,-2.8582159999999996,1.7714400000000001,-0.33940400000000004,4
2024-06-14 11:37:39.086,171.185,-432.145,-75.95,-1.697264,2.2274760000000002,1.141432,4
2024-06-14 11:37:39.091,107.31,-361.16499999999996,-88.19999999999999,-1.2663600000000002,2.0671679999999997,-1.015772,4
2024-06-14 11:37:39.096,-36.96,-203.20999999999998,-126.315,-1.5811199999999999,2.409256,-1.930284,4
2024-06-14 11:37:39.100,-120.92500000000001,-94.5,-162.47,-2.227232,1.877824,-1.24318,4
2024-06-14 11:37:39.105,-164.29,0.45500000000000007,-173.25,-2.63764,0.9211,-0.776896,4
2024-06-14 11:37:39.110,-176.995,93.625,-165.48000000000002,-2.4041319999999997,0.43822399999999995,-1.003328,4
2024-06-14 11:37:39.115,-156.45,162.155,-151.935,-1.86904,0.025375999999999996,-1.016504,4
2024-06-14 11:37:39.120,-107.345,200.235,-132.685,-1.511336,-0.44164000000000003,-1.05652,4
2024-06-14 11:37:39.125,-44.205,217.56,-107.80000000000001,-1.3681079999999999,-0.646844,-1.135576,4
2024-06-14 11:37:39.129,21.35,223.195,-80.78,-1.239032,-0.6378159999999999,-1.0243120000000001,4
2024-06-14 11:37:39.134,74.27,225.89,-55.405,-1.1114199999999999,-0.454816,-0.840336,4
2024-06-14 11:37:39.139,114.905,227.39499999999998,-34.125,-1.018456,-0.205936,-0.749568,4
2024-06-14 11:37:39.144,140.66500000000002,229.28500000000003,-17.57,-0.93818,0.005855999999999997,-0.69296,4
2024-06-14 11:37:39.149,149.94,232.855,-5.25,-0.868884,0.19373600000000002,-0.62342,4
2024-06-14 11:37:39.154,143.85000000000002,238.595,3.605,-0.8235,0.38552,-0.569008,4
2024-06-14 11:37:39.158,126.66499999999999,246.26,9.379999999999999,-0.7908040000000001,0.550708,-0.5368,4
2024-06-14 11:37:39.163,101.465,255.255,11.655000000000001,-0.7583519999999999,0.689056,-0.5133759999999999,4
2024-06-14 11:37:39.168,70.7,264.565,10.955,-0.7219960000000001,0.772016,-0.5182559999999999,4
2024-06-14 11:37:39.173,36.995000000000005,273.875,8.33,-0.695156,0.786412,-0.540948,4
2024-06-14 11:37:39.178,2.7299999999999995,282.73,4.76,-0.6587999999999999,0.75762,-0.57706,4
2024-06-14 11:37:39.182,-28.84,291.44500000000005,1.54,-0.6112200000000001,0.693692,-0.626104,4
2024-06-14 11:37:39.187,-55.58,299.775,-0.63,-0.5590040000000001,0.601948,-0.67954,4
2024-06-14 11:37:39.192,-76.86,307.265,-1.54,-0.50752,0.48019199999999995,-0.744688,4
2024-06-14 11:37:39.197,-92.61,314.37,-1.085,-0.454816,0.36014399999999996,-0.8076399999999999,4
2024-06-14 11:37:39.202,-102.27,321.195,0.91,-0.406016,0.237168,-0.8723000000000001,4
2024-06-14 11:37:39.207,-105.77000000000001,326.935,4.41,-0.370636,0.12248800000000001,-0.936472,4
2024-06-14 11:37:39.211,-103.81,332.045,9.135,-0.348676,0.024888,-0.997228,4
2024-06-14 11:37:39.216,-98.525,336.63,14.875,-0.32330000000000003,-0.039284,-1.0460279999999997,4
2024-06-14 11:37:39.221,-91.49,341.425,20.65,-0.310612,-0.075152,-1.0811639999999998,4
2024-06-14 11:37:39.226,-83.51,346.675,26.284999999999997,-0.304512,-0.086864,-1.119472,4
2024-06-14 11:37:39.231,-76.125,352.625,31.255,-0.29987600000000003,-0.082716,-1.1641240000000002,4
2024-06-14 11:37:39.236,-69.86,358.645,35.105,-0.293532,-0.062464,-1.2148759999999998,4
2024-06-14 11:37:39.240,-65.835,364.63,37.8,-0.27547599999999994,-0.02928,-1.271484,4
2024-06-14 11:37:39.245,-64.08500000000001,370.195,39.13,-0.26034799999999997,0.0021959999999999996,-1.340048,4
2024-06-14 11:37:39.250,-64.295,375.34000000000003,39.269999999999996,-0.23497200000000001,0.045872,-1.4015360000000001,4
2024-06-14 11:37:39.255,-66.955,380.24,38.045,-0.21179199999999998,0.082472,-1.4593639999999999,4
2024-06-14 11:37:39.260,-70.49000000000001,384.82500000000005,35.805,-0.18446400000000002,0.10638399999999999,-1.513532,4
2024-06-14 11:37:39.265,-74.75999999999999,389.095,32.655,-0.164456,0.11956,-1.569896,4
2024-06-14 11:37:39.269,-78.715,392.45500000000004,29.085,-0.142252,0.125904,-1.632848,4
2024-06-14 11:37:39.274,-81.935,395.18499999999995,24.990000000000002,-0.11834,0.1281,-1.6943359999999998,4
2024-06-14 11:37:39.279,-84.385,397.28499999999997,20.58,-0.09882,0.12029200000000001,-1.770952,4
2024-06-14 11:37:39.284,-86.13499999999999,399.245,16.275,-0.07417599999999999,0.117364,-1.846104,4
2024-06-14 11:37:39.289,-86.83500000000001,400.89,12.18,-0.039284,0.10736000000000001,-1.920524,4
2024-06-14 11:37:39.294,-86.94,402.46500000000003,8.61,-0.009028,0.09296399999999999,-1.991284,4
2024-06-14 11:37:39.298,-86.555,404.18,6.055,0.014395999999999999,0.09418399999999999,-2.0537479999999997,4
2024-06-14 11:37:39.303,-86.905,406.105,4.27,0.03294,0.099796,-2.118164,4
2024-06-14 11:37:39.308,-88.55,407.365,3.01,0.048556,0.12248799999999999,-2.1923399999999997,4
2024-06-14 11:37:39.313,-91.91,408.065,1.9249999999999998,0.072468,0.14884,-2.293844,4
2024-06-14 11:37:39.318,-96.81,407.96,1.085,0.102968,0.16787200000000002,-2.4173080000000002,4
2024-06-14 11:37:39.323,-102.16499999999999,407.155,1.12,0.14713199999999999,0.190564,-2.5463839999999998,4
2024-06-14 11:37:39.327,-107.03,405.405,2.1,0.202276,0.19519999999999998,-2.6952239999999996,4
2024-06-14 11:37:39.332,-110.88,403.515,5.18,0.267668,0.187636,-2.82064,4
2024-06-14 11:37:39.337,-114.555,402.185,10.36,0.327936,0.190076,-2.935076,4
2024-06-14 11:37:39.342,-118.475,400.68,18.025,0.424072,0.19666399999999998,-3.056832,4
2024-06-14 11:37:39.347,-122.57,399.385,27.895,0.523624,0.187636,-3.170048,4
2024-06-14 11:37:39.351,-127.015,397.53,39.725,0.6536759999999999,0.16348,-3.288144,4
2024-06-14 11:37:39.356,-131.74,394.905,52.605000000000004,0.798368,0.15176800000000001,-3.3830599999999995,4
2024-06-14 11:37:39.361,-135.555,391.51,65.94,0.96624,0.13395599999999996,-3.451868,4
2024-06-14 11:37:39.366,-138.25,388.36,79.695,1.165588,0.11346,-3.4857839999999998,4
2024-06-14 11:37:39.371,-138.775,385.105,93.38,1.4015360000000001,0.09638,-3.489688,4
2024-06-14 11:37:39.376,-136.57,381.99,105.7,1.6591999999999998,0.084912,-3.4350319999999996,4
2024-06-14 11:37:39.380,-120.82,373.94,116.97,2.2506559999999998,0.061488,-3.738568,4
2024-06-14 11:37:39.385,-100.73,348.005,124.67,2.422676,-0.213744,-2.714744,4
2024-06-14 11:37:39.390,-112.315,371.14,123.655,2.223084,0.35331199999999996,-2.312388,4
2024-06-14 11:37:39.395,-99.435,361.40999999999997,119.66499999999999,2.995832,0.321104,-2.785504,4
2024-06-14 11:37:39.400,-90.58,351.4,111.72,3.812988,0.39015599999999995,-2.678632,4
2024-06-14 11:37:39.405,-92.82,339.04499999999996,94.08000000000001,4.507412,0.467748,-2.4051080000000002,4
2024-06-14 11:37:39.409,-100.625,321.86,67.83,5.127416,0.405528,-2.0244679999999997,4
2024-06-14 11:37:39.414,-107.555,295.61,37.24,5.663971999999999,0.213988,-1.6243079999999999,4
2024-06-14 11:37:39.419,-108.255,257.6,4.795,6.02802,0.006832000000000001,-1.337608,4
2024-06-14 11:37:39.424,-97.72,205.83499999999998,-27.615000000000002,6.216632000000001,-0.207156,-1.3966560000000001,4
2024-06-14 11:37:39.429,-77.84,146.44,-56.665,6.465268,-0.48311999999999994,-1.462292,4
2024-06-14 11:37:39.434,-53.34,82.42500000000001,-79.45,6.560916000000001,-0.727608,-1.5067,4
2024-06-14 11:37:39.438,-13.615,13.615000000000002,-93.8,6.72708,-0.983564,-1.560136,4
2024-06-14 11:37:39.443,131.91500000000002,-168.21,-77.66499999999999,7.0472079999999995,-2.3546,-2.97192,0
2024-06-14 11:37:39.448,222.11,-261.1,-57.4,6.216876000000001,-1.9856719999999999,-1.2578200000000002,0
2024-06-14 11:37:39.453,321.44,-313.21500000000003,-39.62,5.281136,-1.5994199999999998,-0.8679079999999999,0
2024-06-14 11:37:39.458,414.53999999999996,-374.57000000000005,-28.91,4.223396,-0.433588,-1.0104039999999999,0
2024-06-14 11:37:39.463,459.83,-384.545,-23.555,0.636352,0.110044,-1.2246359999999998,0
2024-06-14 11:37:39.467,458.255,-329.98,-0.8400000000000007,0.8173999999999999,0.057583999999999996,-1.693848,0
2024-06-14 11:37:39.472,449.96,-350.14,36.33,0.35257999999999995,0.277672,-4.269512000000001,0
2024-06-14 11:37:39.477,253.505,-275.41499999999996,72.31,-1.035536,-0.671244,-2.455372,0
2024-06-14 11:37:39.482,154.56,-280.595,108.815,-0.49971200000000005,-0.055875999999999995,-2.491484,0
2024-06-14 11:37:39.487,111.89500000000001,-312.79499999999996,122.99000000000001,-0.747616,-0.26718000000000003,-1.7141,0
2024-06-14 11:37:39.491,105.735,-334.495,131.14499999999998,0.14981599999999998,-0.49141599999999996,-2.680828,0
