time,gyroscope_x,gyroscope_y,gyroscope_z,accelerometer_x,accelerometer_y,accelerometer_z,phase
2024-06-14 10:36:40.188,-43.61,-152.25,-80.71,8.795712,0.362584,-8.006128,1
2024-06-14 10:36:40.192,154.0,-53.69,-57.33,7.536184,0.174216,4.347592,1
2024-06-14 10:36:40.197,143.22,-241.71,-80.71,3.3481680000000003,-0.06831999999999999,-1.8426879999999999,1
2024-06-14 10:36:40.202,134.68,-435.82,-65.52,0.86864,-0.045384,-3.357928,1
2024-06-14 10:36:40.207,45.36,-527.31,-43.33,-1.269776,0.522648,-3.368176,1
2024-06-14 10:36:40.212,-37.45,-498.61,-1.75,-1.156072,0.3782,-3.241784,1
2024-06-14 10:36:40.217,-73.85,-487.48,34.51,0.9774639999999999,0.372344,-3.283752,1
2024-06-14 10:36:40.221,-85.19,-481.53,48.79,1.292224,0.31964,-3.4882239999999998,1
2024-06-14 10:36:40.226,-81.55,-479.92,53.13,0.686616,0.30012,-2.729384,1
2024-06-14 10:36:40.231,-72.73,-441.84,57.68,-0.07027199999999999,-0.122,-2.3067759999999997,1
2024-06-14 10:36:40.236,-61.88,-372.05,59.85,0.07222400000000001,-0.20496,-2.451712,1
2024-06-14 10:36:40.241,-60.69,-317.52,52.01,0.20788800000000002,-0.158112,-2.03252,1
2024-06-14 10:36:40.246,-54.67,-315.63,38.85,0.08247199999999999,-0.183976,-1.809504,1
2024-06-14 10:36:40.250,-34.86,-317.59,25.13,0.14347200000000002,-0.093208,-2.10328,1
2024-06-14 10:36:40.255,-12.46,-300.37,16.59,0.125904,-0.09272,-1.6616399999999998,1
2024-06-14 10:36:40.260,-0.21,-219.94,14.42,0.27864799999999995,0.084424,-2.001776,1
2024-06-14 10:36:40.265,-2.45,-56.63,11.62,0.40992,0.182024,-1.552816,1
2024-06-14 10:36:40.270,-7.14,-1.96,4.34,0.365024,0.27913599999999994,-1.304424,2
2024-06-14 10:36:40.274,2.38,-0.28,13.79,0.525576,0.283528,-1.233664,2
2024-06-14 10:36:40.279,9.1,-12.11,16.52,0.183,-0.045384,-1.138992,2
2024-06-14 10:36:40.284,6.72,-11.55,5.18,-0.088328,-0.142984,-0.9813679999999999,2
2024-06-14 10:36:40.289,2.03,-6.16,-1.89,-0.007808,-0.016592,-0.9969839999999999,2
2024-06-14 10:36:40.294,0.14,-6.3,-2.45,0.07564,0.041968,-1.012112,2
2024-06-14 10:36:40.299,-1.33,-7.98,-0.42,0.026352,0.020007999999999998,-1.023336,2
2024-06-14 10:36:40.303,-1.96,-9.24,0.28,0.004391999999999999,0.032695999999999996,-1.016504,2
2024-06-14 10:36:40.308,-0.98,-9.03,-1.12,-0.022448,0.040504,-1.027728,2
2024-06-14 10:36:40.313,0.21,-11.06,-2.45,-0.0034159999999999998,0.032208,-1.0360239999999998,2
2024-06-14 10:36:40.318,-0.14,-13.51,-2.45,0.001952,0.024887999999999997,-1.01016,2
2024-06-14 10:36:40.323,-0.07,-13.37,-2.1,0.0034159999999999998,0.018056000000000003,-1.001864,2
2024-06-14 10:36:40.328,-0.7,-14.07,-1.82,-0.00244,0.020496,-1.01016,2
2024-06-14 10:36:40.332,-0.84,-16.38,-2.1,-0.000976,0.024399999999999998,-1.018456,2
2024-06-14 10:36:40.337,-1.05,-18.76,-2.45,0.004391999999999999,0.022936,-1.021872,2
2024-06-14 10:36:40.342,-1.33,-21.91,-2.24,-0.002928,0.017079999999999998,-1.020896,2
2024-06-14 10:36:40.347,-1.33,-23.87,-1.96,-0.00488,0.027816,-1.015528,2
2024-06-14 10:36:40.352,-1.4,-26.6,-2.1,-0.000976,0.025864,-1.008696,2
2024-06-14 10:36:40.356,-0.91,-29.05,-2.52,0.004391999999999999,0.025864,-1.010648,2
2024-06-14 10:36:40.361,-0.21,-28.84,-2.38,0.006344,0.02196,-1.013576,2
2024-06-14 10:36:40.366,0.07,-30.87,-2.03,0.012199999999999999,0.019032,-1.011136,2
2024-06-14 10:36:40.371,0.91,-30.38,-2.03,0.005856,0.022936,-1.018456,2
2024-06-14 10:36:40.376,4.06,-26.25,-1.75,0.001464,0.028304,-1.011624,2
2024-06-14 10:36:40.381,4.06,-26.32,-1.61,0.010248,0.029768,-1.008208,2
2024-06-14 10:36:40.385,2.45,-28.63,-1.68,0.007808,0.034159999999999996,-1.016016,2
2024-06-14 10:36:40.390,2.38,-7.0,-1.89,0.011712,0.032208,-0.998448,2
2024-06-14 10:36:40.395,1.47,-2.38,-0.49,0.021472,0.027327999999999998,-1.0047920000000001,2
2024-06-14 10:36:40.400,-0.28,-11.97,0.42,0.02196,0.026352,-1.0047920000000001,2
2024-06-14 10:36:40.405,-3.22,-21.91,-1.05,0.024887999999999997,0.022936,-1.018456,2
2024-06-14 10:36:40.410,-4.13,-24.78,-2.52,0.027327999999999998,0.033671999999999994,-1.016016,2
2024-06-14 10:36:40.414,-10.01,-36.61,-2.24,0.028791999999999998,0.038064,-1.017968,2
2024-06-14 10:36:40.419,-5.74,-41.16,-1.61,0.029768,0.048799999999999996,-1.0267519999999999,2
2024-06-14 10:36:40.424,-4.97,-42.91,-2.31,0.02684,0.046848,-1.0711600000000001,2
2024-06-14 10:36:40.429,-1.19,-40.95,-3.36,0.027816,0.055144,-1.0262639999999998,2
2024-06-14 10:36:40.434,-0.91,-47.18,-3.99,0.057583999999999996,0.047335999999999996,-1.069696,2
2024-06-14 10:36:40.438,-6.16,-52.08,-4.41,0.018544,0.050263999999999996,-1.03456,2
2024-06-14 10:36:40.443,-2.31,-46.41,-5.18,0.053192,0.041479999999999996,-1.047248,2
2024-06-14 10:36:40.448,-2.94,-45.64,-5.74,0.059536,0.047824,-1.023336,2
2024-06-14 10:36:40.453,2.31,-42.91,-6.09,0.06539199999999999,0.049288,-1.020896,2
2024-06-14 10:36:40.458,13.86,-37.1,-5.88,0.066856,0.042455999999999994,-0.9335439999999999,2
2024-06-14 10:36:40.463,9.03,-33.11,-6.44,0.07027199999999999,0.044408,-0.9569679999999999,2
2024-06-14 10:36:40.467,6.79,-28.49,-6.79,0.074176,0.032695999999999996,-0.9569679999999999,2
2024-06-14 10:36:40.472,6.3,-22.82,-6.79,0.08539999999999999,0.009272,-1.02724,2
2024-06-14 10:36:40.477,6.3,-15.68,-6.86,0.08930400000000001,0.020496,-0.891088,2
2024-06-14 10:36:40.482,6.65,-14.42,-6.86,0.083936,0.034648,-0.947696,2
2024-06-14 10:36:40.487,5.74,-14.77,-7.28,0.081984,0.041479999999999996,-0.905728,2
2024-06-14 10:36:40.492,5.67,-14.42,-7.91,0.08539999999999999,0.034159999999999996,-0.946232,2
2024-06-14 10:36:40.496,6.23,-12.25,-7.7,0.096624,0.018056000000000003,-0.945256,2
2024-06-14 10:36:40.501,7.63,-10.85,-7.35,0.09467199999999999,0.006344,-0.951112,2
2024-06-14 10:36:40.506,7.98,-8.12,-7.0,0.098576,0.00488,-0.9472079999999999,2
2024-06-14 10:36:40.511,8.68,-5.53,-6.3,0.108824,-0.016104,-0.9516,2
2024-06-14 10:36:40.516,7.49,-3.71,-5.81,0.116144,-0.003904,-0.914024,2
2024-06-14 10:36:40.520,6.65,-2.17,-5.67,0.10736,-0.002928,-0.977952,2
2024-06-14 10:36:40.525,6.16,-1.75,-5.18,0.101016,0.0,-0.993568,2
2024-06-14 10:36:40.530,6.09,-1.82,-5.04,0.093208,0.011224,-0.998448,2
2024-06-14 10:36:40.535,5.6,-5.39,-5.32,0.07564,0.00976,-1.044808,2
2024-06-14 10:36:40.540,7.91,-1.19,-4.97,0.083448,0.01464,-1.029192,2
2024-06-14 10:36:40.545,8.96,-3.92,-4.9,0.08784,0.017567999999999997,-1.054568,2
2024-06-14 10:36:40.549,10.22,-6.37,-4.69,0.085888,0.010736,-1.069696,2
2024-06-14 10:36:40.554,11.55,-10.01,-4.69,0.08686400000000001,0.020496,-1.0853119999999998,2
2024-06-14 10:36:40.559,13.51,-13.65,-4.69,0.078568,0.022448,-1.109224,2
2024-06-14 10:36:40.564,15.82,-18.2,-4.97,0.066856,0.04636,-1.1253279999999999,2
2024-06-14 10:36:40.569,16.87,-20.86,-5.6,0.060024,0.104432,-1.2341520000000001,2
2024-06-14 10:36:40.574,18.55,-17.29,-7.35,0.06588,0.13176,-1.0365119999999999,2
2024-06-14 10:36:40.578,5.88,-31.15,-10.92,0.07564,0.14396,-1.070672,2
2024-06-14 10:36:40.583,-2.38,-36.54,-14.14,0.088816,0.113704,-1.211704,2
2024-06-14 10:36:40.588,-3.64,-39.27,-16.1,0.10052799999999999,0.056608,-1.276608,2
2024-06-14 10:36:40.593,-11.34,-42.28,-16.52,0.09955199999999999,-0.045872,-1.5435439999999998,2
2024-06-14 10:36:40.598,-7.63,-50.4,-14.49,0.10052799999999999,-0.069296,-1.50304,2
2024-06-14 10:36:40.602,-8.05,-57.75,-13.16,0.101016,-0.041479999999999996,-1.3888479999999999,3
2024-06-14 10:36:40.607,-22.89,-67.9,-11.97,0.13176,-0.125416,-1.578192,3
2024-06-14 10:36:40.612,-8.19,-74.62,-9.17,0.092232,0.00244,-1.582096,3
2024-06-14 10:36:40.617,-14.84,-85.61,-8.89,0.092232,-0.045384,-1.511824,3
2024-06-14 10:36:40.622,-21.35,-96.81,-7.91,0.076128,-0.093696,-1.646512,3
2024-06-14 10:36:40.627,-23.59,-109.97,-5.39,0.091744,-0.081008,-1.71776,3
2024-06-14 10:36:40.631,-25.62,-123.06,-4.69,0.061,0.009272,-1.569408,3
2024-06-14 10:36:40.636,-32.97,-138.18,-4.9,0.063928,-0.055632,-1.66408,3
2024-06-14 10:36:40.641,-36.4,-152.11,-3.36,0.062952,-0.090768,-1.683112,3
2024-06-14 10:36:40.646,-44.59,-171.57,-2.73,0.050263999999999996,-0.054655999999999996,-1.7568,3
2024-06-14 10:36:40.651,-48.72,-192.43,-2.1,0.040992,-0.093208,-1.808528,3
2024-06-14 10:36:40.656,-57.82,-214.41,-0.84,0.027816,-0.09516,-1.8763599999999998,3
2024-06-14 10:36:40.660,-52.15,-233.45,0.42,0.0034159999999999998,-0.037088,-1.99836,3
2024-06-14 10:36:40.665,-52.85,-258.58,0.21,-0.016592,-0.002928,-1.941752,3
2024-06-14 10:36:40.670,-58.1,-284.48,-0.35,-0.034159999999999996,-0.016592,-2.043256,3
2024-06-14 10:36:40.675,-63.98,-310.8,-0.35,-0.050752,-0.047335999999999996,-2.22284,3
2024-06-14 10:36:40.680,-69.93,-339.5,0.07,-0.054168,-0.11956,-2.4248719999999997,3
2024-06-14 10:36:40.684,-81.97,-367.36,2.03,-0.048799999999999996,-0.27376799999999996,-2.650816,3
2024-06-14 10:36:40.688,-87.08,-395.22,6.79,-0.064416,-0.327936,-2.79868,3
2024-06-14 10:36:40.693,-92.4,-421.89,11.06,-0.048799999999999996,-0.172264,-3.020232,3
2024-06-14 10:36:40.698,-108.64,-450.59,12.11,-0.051728,-0.01952,-3.410632,3
2024-06-14 10:36:40.703,-120.33,-480.34,10.92,-0.121024,0.01952,-3.487248,3
2024-06-14 10:36:40.708,-125.58,-507.71,9.73,-0.267424,0.156648,-3.5736239999999997,3
2024-06-14 10:36:40.712,-143.71,-534.03,4.41,-0.25864,0.20447200000000001,-3.85276,3
2024-06-14 10:36:40.717,-152.53,-557.76,0.14,-0.263032,0.102968,-4.102616,3
2024-06-14 10:36:40.722,-142.87,-583.38,-3.22,-0.099064,-0.09711199999999999,-4.331,3
2024-06-14 10:36:40.727,-134.61,-597.73,-1.68,-0.170312,-0.035135999999999994,-4.684312,3
2024-06-14 10:36:40.732,-128.52,-605.43,-6.72,-0.26839999999999997,-0.07027199999999999,-4.9898,3
2024-06-14 10:36:40.737,-109.9,-598.85,-7.07,-0.420168,0.108824,-4.72872,3
2024-06-14 10:36:40.741,-101.29,-570.64,-10.99,-0.940376,0.38112799999999997,-4.232912000000001,3
2024-06-14 10:36:40.746,-119.63,-536.83,-23.03,-1.5713599999999999,0.303048,-3.915224,3
2024-06-14 10:36:40.751,-120.12,-507.22,-39.2,-2.880664,0.623664,-3.717584,3
2024-06-14 10:36:40.756,-140.49,-520.03,-50.54,-3.6917199999999997,0.370392,-3.5175039999999997,3
2024-06-14 10:36:40.761,-119.14,-556.57,-68.25,-4.15044,0.195688,-0.9569679999999999,4
2024-06-14 10:36:40.766,-166.88,-520.66,-109.83,-3.406728,-0.37332,2.094496,4
2024-06-14 10:36:40.770,4.27,-436.94,-103.18,-2.033984,0.11516799999999999,0.364048,4
2024-06-14 10:36:40.775,-37.31,-300.93,-62.44,-2.4068159999999996,0.102968,-3.688304,4
2024-06-14 10:36:40.780,78.54,-93.38,-36.47,-2.44976,-0.344528,-2.046672,4
2024-06-14 10:36:40.785,56.07,11.55,-10.85,-2.802584,-0.018544,-1.31028,4
2024-06-14 10:36:40.790,111.23,73.85,0.56,-2.323368,-0.07808,-1.67628,4
2024-06-14 10:36:40.795,103.25,90.58,-2.45,-1.661152,0.06344,-1.7123920000000001,4
2024-06-14 10:36:40.799,138.39,75.25,-9.94,-1.489376,0.202032,-1.5513519999999998,4
2024-06-14 10:36:40.804,138.67,59.43,-17.92,-1.52012,0.14396,-1.233664,4
2024-06-14 10:36:40.809,146.3,57.75,-30.66,-1.601616,0.112728,-0.920368,4
2024-06-14 10:36:40.814,146.72,67.55,-42.49,-1.65432,0.133712,-0.859856,4
2024-06-14 10:36:40.819,139.65,86.73,-50.33,-1.7284959999999998,0.108336,-0.787632,4
2024-06-14 10:36:40.824,131.6,113.82,-54.32,-1.813408,0.056119999999999996,-0.6822239999999999,4
2024-06-14 10:36:40.828,123.69,145.25,-56.0,-1.833416,0.000488,-0.603168,4
2024-06-14 10:36:40.833,117.25,177.38,-56.07,-1.7875439999999998,-0.062952,-0.5787680000000001,4
2024-06-14 10:36:40.838,115.85,206.5,-54.46,-1.704096,-0.120536,-0.5787680000000001,4
2024-06-14 10:36:40.843,115.92,231.21,-51.94,-1.602104,-0.145424,-0.58804,4
2024-06-14 10:36:40.848,120.47,251.16,-49.07,-1.5049919999999999,-0.14347200000000002,-0.6202479999999999,4
2024-06-14 10:36:40.852,123.83,266.98,-46.9,-1.4093440000000002,-0.122488,-0.655384,4
2024-06-14 10:36:40.857,120.89,279.23,-45.15,-1.308328,-0.079544,-0.720776,4
2024-06-14 10:36:40.862,122.71,291.13,-43.75,-1.21268,-0.033184,-0.729072,4
2024-06-14 10:36:40.867,120.33,302.33,-43.61,-1.13704,-0.005856,-0.7768959999999999,4
2024-06-14 10:36:40.872,112.42,312.69,-44.45,-1.0555439999999998,0.040504,-0.808128,4
2024-06-14 10:36:40.877,101.99,322.77,-45.71,-0.98088,0.075152,-0.840336,4
2024-06-14 10:36:40.881,90.79,332.78,-47.04,-0.912072,0.085888,-0.869616,4
2024-06-14 10:36:40.886,79.31,342.79,-48.37,-0.8408239999999999,0.08686400000000001,-0.901336,4
2024-06-14 10:36:40.891,70.07,352.66,-49.28,-0.785192,0.08686400000000001,-0.934032,4
2024-06-14 10:36:40.896,62.16,362.67,-49.77,-0.7178479999999999,0.081496,-0.984784,4
2024-06-14 10:36:40.901,57.47,372.26,-49.77,-0.655384,0.091256,-1.039928,4
2024-06-14 10:36:40.906,50.05,380.31,-49.07,-0.58316,0.096136,-1.0970239999999998,4
2024-06-14 10:36:40.910,44.94,386.61,-47.88,-0.526552,0.10736,-1.155096,4
2024-06-14 10:36:40.915,39.69,392.77,-46.13,-0.478728,0.110776,-1.219512,4
2024-06-14 10:36:40.920,34.65,399.07,-44.03,-0.435296,0.11858400000000001,-1.282952,4
2024-06-14 10:36:40.925,30.38,405.86,-41.37,-0.40259999999999996,0.12688,-1.350784,4
2024-06-14 10:36:40.930,26.46,412.02,-38.36,-0.373808,0.13712799999999997,-1.4259359999999999,4
2024-06-14 10:36:40.935,22.33,417.06,-35.14,-0.33232799999999996,0.150304,-1.4976720000000001,4
2024-06-14 10:36:40.939,17.36,420.63,-31.57,-0.283528,0.16982399999999997,-1.570872,4
2024-06-14 10:36:40.944,12.39,422.31,-27.86,-0.232288,0.186416,-1.654808,4
2024-06-14 10:36:40.949,8.89,422.73,-23.52,-0.188856,0.18934399999999998,-1.735816,4
2024-06-14 10:36:40.954,5.53,421.61,-18.41,-0.155184,0.19666399999999998,-1.8177999999999999,4
2024-06-14 10:36:40.959,1.82,418.67,-12.32,-0.122488,0.203984,-1.914912,4
2024-06-14 10:36:40.964,-3.01,414.89,-5.67,-0.09272,0.20105599999999998,-2.0183679999999997,4
2024-06-14 10:36:40.968,-10.71,410.2,1.26,-0.056119999999999996,0.2196,-2.126704,4
2024-06-14 10:36:40.973,-21.98,404.32,7.35,-0.005856,0.240584,-2.237968,4
2024-06-14 10:36:40.978,-34.65,399.07,12.04,0.060512,0.264984,-2.3175120000000002,4
2024-06-14 10:36:40.983,-48.79,394.87,14.7,0.125904,0.27864799999999995,-2.395104,4
2024-06-14 10:36:40.988,-62.86,391.3,15.96,0.177632,0.27425599999999994,-2.4614719999999997,4
2024-06-14 10:36:40.993,-76.09,388.36,16.8,0.213256,0.246928,-2.533696,4
2024-06-14 10:36:40.997,-84.98,386.19,18.41,0.243512,0.186416,-2.594208,4
2024-06-14 10:36:41.002,-87.71,385.91,21.07,0.25912799999999997,0.113704,-2.6522799999999997,4
2024-06-14 10:36:41.007,-84.28,387.66,24.29,0.28059999999999996,0.056119999999999996,-2.7181599999999997,4
2024-06-14 10:36:41.012,-75.04,391.65,27.44,0.337696,0.027327999999999998,-2.793312,4
2024-06-14 10:36:41.017,-64.68,397.67,29.82,0.420168,0.026352,-2.8469919999999997,4
2024-06-14 10:36:41.021,-55.51,405.51,30.45,0.542168,0.039528,-2.8792,4
2024-06-14 10:36:41.026,-48.86,413.21,29.26,0.693448,0.049288,-2.9016480000000002,4
2024-06-14 10:36:41.031,-42.84,418.81,26.46,0.859856,0.061975999999999996,-2.8923759999999996,4
2024-06-14 10:36:41.036,-35.91,420.7,23.03,1.024312,0.06588,-2.87432,4
2024-06-14 10:36:41.041,-29.54,416.85,19.39,1.190232,0.081008,-2.865536,4
2024-06-14 10:36:41.046,-23.52,407.75,15.61,1.397632,0.10736,-2.906528,4
2024-06-14 10:36:41.050,-18.48,394.45,12.18,1.6108879999999999,0.13566399999999998,-2.936296,4
2024-06-14 10:36:41.055,-15.61,379.33,13.02,1.702144,0.382104,-2.9728959999999995,4
2024-06-14 10:36:41.060,-20.44,361.9,28.28,2.419016,-0.318664,-2.9758240000000002,4
2024-06-14 10:36:41.065,-19.74,344.96,5.53,2.3882719999999997,0.252784,-2.9392240000000003,4
2024-06-14 10:36:41.070,-21.35,328.09,4.13,2.646424,0.30256,-2.8713919999999997,4
2024-06-14 10:36:41.075,-24.08,307.37,1.19,3.02804,0.354288,-2.905064,4
2024-06-14 10:36:41.079,-22.68,282.1,-1.61,3.410632,0.445544,-2.763544,4
2024-06-14 10:36:41.084,-24.64,252.21,-4.69,3.8703279999999998,0.512888,-2.58152,4
2024-06-14 10:36:41.089,-32.69,217.07,-10.15,4.353936,0.57828,-2.419504,4
2024-06-14 10:36:41.094,-46.06,176.75,-16.66,4.76776,0.57584,-2.2896959999999997,4
2024-06-14 10:36:41.099,-62.44,134.82,-22.12,5.1342479999999995,0.470432,-2.0964479999999996,4
2024-06-14 10:36:41.104,-74.76,96.32,-25.83,5.4168,0.304024,-1.908568,4
2024-06-14 10:36:41.108,-76.72,62.37,-27.79,5.574424,0.08247199999999999,-1.753384,4
2024-06-14 10:36:41.113,-67.62,30.31,-27.58,5.654456,-0.11516799999999999,-1.6479759999999999,4
2024-06-14 10:36:41.118,-46.55,-2.52,-26.39,5.60468,-0.26156799999999997,-1.545984,4
2024-06-14 10:36:41.123,-15.96,-38.29,-25.69,5.362632,-0.343064,-1.559648,4
2024-06-14 10:36:41.128,18.62,-73.64,-26.6,5.0195680000000005,-0.33964799999999995,-1.540128,4
2024-06-14 10:36:41.133,47.11,-105.14,-30.1,4.605744,-0.223992,-1.538176,4
2024-06-14 10:36:41.137,-10.78,-414.82,-37.73,7.517639999999999,-0.183,-7.9524479999999995,4
