time,gyroscope_x,gyroscope_y,gyroscope_z,accelerometer_x,accelerometer_y,accelerometer_z,phase
2024-06-14 09:44:31.623,-155.19,-139.72,-89.32,-4.853648,-0.740784,2.097912,1
2024-06-14 09:44:31.628,-192.71,-274.89,-60.76,-4.248528,0.003904,0.243024,1
2024-06-14 09:44:31.633,-226.45,-370.16,-42.98,-1.572336,0.19178399999999998,-2.246264,1
2024-06-14 09:44:31.637,-178.92,-372.75,-46.83,0.50996,-0.319152,-2.546872,1
2024-06-14 09:44:31.642,-117.18,-360.36,-69.79,2.4902640000000003,-0.16494399999999998,-1.687992,1
2024-06-14 09:44:31.647,-64.19,-358.4,-94.01,1.93736,-0.079544,-1.843664,1
2024-06-14 09:44:31.652,10.36,-338.24,-105.77,0.31232,-0.09272,-2.38388,1
2024-06-14 09:44:31.657,45.71,-312.13,-109.27,-0.73444,0.35624,-2.225768,1
2024-06-14 09:44:31.662,43.26,-304.01,-91.98,-0.455792,0.783728,-2.1642799999999998,1
2024-06-14 09:44:31.666,20.79,-309.54,-60.76,0.051728,0.8110559999999999,-2.099376,1
2024-06-14 09:44:31.671,2.52,-316.12,-31.15,0.270352,0.586576,-1.9134479999999998,1
2024-06-14 09:44:31.676,-0.07,-289.45,-8.47,0.031232,0.440664,-1.726056,1
2024-06-14 09:44:31.681,-12.46,-267.89,5.67,-0.131272,0.186416,-1.739232,1
2024-06-14 09:44:31.686,-16.17,-250.46,11.27,-0.040504,-0.119072,-1.571848,1
2024-06-14 09:44:31.691,-20.3,-234.99,2.8,0.00732,-0.39967199999999997,-1.626992,1
2024-06-14 09:44:31.696,-25.13,-209.02,-17.43,0.047824,-0.438224,-1.567456,1
2024-06-14 09:44:31.700,-19.04,-179.2,-36.82,0.050752,-0.23424,-1.594784,1
2024-06-14 09:44:31.705,-14.77,-133.49,-47.18,0.096624,0.00244,-1.471808,1
2024-06-14 09:44:31.710,-22.05,-97.44,-39.97,0.083448,0.571448,-1.4669279999999998,1
2024-06-14 09:44:31.715,-19.46,-69.79,-22.61,0.056608,-0.153232,-1.2566,1
2024-06-14 09:44:31.720,-14.49,-57.68,-16.24,0.159576,0.169336,-1.24928,1
2024-06-14 09:44:31.725,-7.0,-40.04,-15.05,0.023912,-0.029768,-1.10044,1
2024-06-14 09:44:31.729,-5.04,-34.51,-12.46,-0.078568,0.005856,-1.029192,2
2024-06-14 09:44:31.734,-5.6,-29.26,-9.66,-0.076616,-0.025864,-1.0126,2
2024-06-14 09:44:31.739,-5.46,-25.69,-7.77,-0.031232,-0.003904,-1.037488,2
2024-06-14 09:44:31.744,-4.2,-21.56,-6.72,-0.015128,-0.0034159999999999998,-1.044808,2
2024-06-14 09:44:31.749,-3.29,-19.11,-5.74,-0.03172,-0.01464,-1.0287039999999998,2
2024-06-14 09:44:31.754,-2.73,-17.64,-5.11,-0.049775999999999994,-0.018056000000000003,-1.0189439999999998,2
2024-06-14 09:44:31.759,-2.59,-16.59,-4.41,-0.054655999999999996,-0.022448,-1.013576,2
2024-06-14 09:44:31.763,-2.87,-17.15,-3.64,-0.053192,-0.03904,-1.013576,2
2024-06-14 09:44:31.768,-2.66,-16.1,-3.29,-0.041479999999999996,-0.035135999999999994,-1.02236,2
2024-06-14 09:44:31.773,-2.38,-13.44,-2.31,-0.060512,-0.03172,-1.010648,2
2024-06-14 09:44:31.778,-2.8,-14.98,-1.05,-0.036112000000000005,0.01464,-1.0248,2
2024-06-14 09:44:31.783,-2.45,-14.84,-1.33,-0.051728,-0.024887999999999997,-1.0091839999999999,2
2024-06-14 09:44:31.788,-3.08,-15.26,-1.4,-0.050263999999999996,-0.03904,-1.01016,2
2024-06-14 09:44:31.792,-3.71,-16.24,-1.12,-0.047335999999999996,-0.029768,-1.01016,2
2024-06-14 09:44:31.797,-4.06,-17.08,-0.63,-0.05124,-0.02684,-1.013088,2
2024-06-14 09:44:31.802,-4.69,-17.92,-0.28,-0.05368,-0.035624,-1.0047920000000001,2
2024-06-14 09:44:31.807,-5.11,-18.76,0.0,-0.053192,-0.038064,-1.001376,2
2024-06-14 09:44:31.812,-5.18,-19.81,0.07,-0.041968,-0.033671999999999994,-1.007232,2
2024-06-14 09:44:31.817,-4.9,-20.93,0.0,-0.036112000000000005,-0.024399999999999998,-1.01016,2
2024-06-14 09:44:31.822,-4.76,-21.63,-0.07,-0.035135999999999994,-0.02196,-1.011624,2
2024-06-14 09:44:31.826,-4.69,-22.68,-0.07,-0.035135999999999994,-0.024399999999999998,-1.011136,2
2024-06-14 09:44:31.831,-4.76,-23.24,-0.07,-0.033184,-0.023912,-1.013088,2
2024-06-14 09:44:31.836,-4.69,-25.62,0.0,-0.035624,-0.02684,-1.011136,2
2024-06-14 09:44:31.841,-5.04,-26.46,-0.14,-0.035135999999999994,-0.025864,-1.016016,2
2024-06-14 09:44:31.846,-5.25,-24.85,-0.07,-0.031232,-0.023424,-1.01504,2
2024-06-14 09:44:31.851,-6.72,-19.81,0.0,-0.02684,-0.023912,-1.0189439999999998,2
2024-06-14 09:44:31.855,-6.58,-23.94,0.28,-0.023424,-0.025864,-1.01992,2
2024-06-14 09:44:31.860,-6.58,-27.09,0.49,-0.023912,-0.034159999999999996,-1.0140639999999999,2
2024-06-14 09:44:31.865,0.35,-10.43,0.7,-0.022448,-0.02684,-1.021384,2
2024-06-14 09:44:31.870,-7.49,-15.47,0.63,-0.018056000000000003,-0.033671999999999994,-1.01016,2
2024-06-14 09:44:31.875,-8.12,-14.14,1.4,-0.012199999999999999,-0.028304,-1.008696,2
2024-06-14 09:44:31.880,-6.09,-17.01,2.24,-0.011224,-0.020007999999999998,-1.008696,2
2024-06-14 09:44:31.885,-7.77,-19.53,2.1,-0.006344,-0.021472,-1.005768,2
2024-06-14 09:44:31.889,-7.84,-20.51,1.33,-0.005856,-0.022936,-1.0091839999999999,2
2024-06-14 09:44:31.894,-7.28,-23.03,0.84,-0.005856,-0.025864,-1.00284,2
2024-06-14 09:44:31.899,-8.54,-24.57,1.26,-0.001952,-0.018056000000000003,-1.007232,2
2024-06-14 09:44:31.904,-8.12,-24.29,1.96,-0.0034159999999999998,-0.027816,-0.999912,2
2024-06-14 09:44:31.909,-8.96,-23.59,2.38,0.0,-0.030256,-1.005768,2
2024-06-14 09:44:31.914,-9.52,-22.47,2.31,0.0034159999999999998,-0.030256,-0.99796,2
2024-06-14 09:44:31.918,-9.24,-21.98,2.1,0.00732,-0.028304,-0.999424,2
2024-06-14 09:44:31.923,-10.29,-20.79,2.38,0.004391999999999999,-0.028791999999999998,-0.9989359999999999,2
2024-06-14 09:44:31.928,-10.22,-19.39,2.94,0.003904,-0.038064,-0.999424,2
2024-06-14 09:44:31.933,-10.36,-18.48,3.64,-0.004391999999999999,-0.047824,-0.9964959999999999,2
2024-06-14 09:44:31.938,-10.36,-16.52,4.2,0.024399999999999998,-0.017079999999999998,-0.999912,2
2024-06-14 09:44:31.943,-10.08,-15.82,4.41,0.011712,-0.033671999999999994,-0.99796,2
2024-06-14 09:44:31.948,-10.01,-15.05,4.62,0.018056000000000003,-0.020496,-1.0004,2
2024-06-14 09:44:31.952,-9.8,-14.77,5.18,0.018056000000000003,-0.032208,-1.002352,2
2024-06-14 09:44:31.957,-9.66,-14.98,5.95,0.019032,-0.020496,-1.005768,2
2024-06-14 09:44:31.962,-9.8,-16.24,6.58,0.017567999999999997,-0.022448,-1.01016,2
2024-06-14 09:44:31.967,-10.15,-16.59,6.79,0.018544,-0.013176,-1.007232,2
2024-06-14 09:44:31.972,-10.43,-18.13,6.72,0.017567999999999997,-0.011712,-1.015528,2
2024-06-14 09:44:31.977,-16.52,-18.2,5.81,0.022936,0.010248,-1.01992,2
2024-06-14 09:44:31.981,-15.82,-21.98,6.02,0.027816,-0.005368,-1.020896,2
2024-06-14 09:44:31.986,-16.03,-26.11,5.95,0.02196,0.002928,-1.0384639999999998,2
2024-06-14 09:44:31.991,-16.38,-30.59,5.95,0.020007999999999998,-0.017567999999999997,-1.0482239999999998,2
2024-06-14 09:44:31.996,-17.36,-37.38,6.09,0.018544,-0.024887999999999997,-1.054568,2
2024-06-14 09:44:32.001,-15.82,-42.0,6.44,0.022448,0.006344,-1.058472,2
2024-06-14 09:44:32.006,-14.98,-47.11,5.74,0.029768,0.038064,-1.082872,2
2024-06-14 09:44:32.011,-12.39,-54.81,5.39,0.025864,0.013663999999999999,-1.097512,2
2024-06-14 09:44:32.015,-6.44,-60.55,5.18,0.033671999999999994,0.062464,-1.1643679999999998,2
2024-06-14 09:44:32.020,6.51,-54.81,4.97,0.022936,0.120048,-1.264896,2
2024-06-14 09:44:32.025,13.79,-60.69,3.85,0.03172,0.066368,-1.159488,2
2024-06-14 09:44:32.030,19.39,-63.0,3.22,0.045384,0.043432000000000005,-1.131672,2
2024-06-14 09:44:32.035,24.5,-65.38,2.8,0.05124,0.045384,-1.153632,2
2024-06-14 09:44:32.040,29.4,-69.3,2.66,0.042455999999999994,0.043432000000000005,-1.1751040000000001,3
2024-06-14 09:44:32.044,35.21,-73.08,2.31,0.034648,0.045872,-1.235616,3
2024-06-14 09:44:32.049,41.51,-78.61,2.31,0.040504,0.0,-1.2536720000000001,3
2024-06-14 09:44:32.054,44.52,-84.14,2.87,0.03172,0.0068319999999999995,-1.282952,3
2024-06-14 09:44:32.059,45.43,-91.21,3.36,0.033184,0.001464,-1.3981199999999998,3
2024-06-14 09:44:32.064,49.35,-99.05,3.78,0.037576,-0.040504,-1.37128,3
2024-06-14 09:44:32.069,50.61,-107.1,4.76,0.035135999999999994,-0.03172,-1.4161759999999999,3
2024-06-14 09:44:32.074,43.96,-115.22,5.18,0.020496,0.0,-1.451312,3
2024-06-14 09:44:32.078,45.43,-125.58,6.65,0.032208,-0.021472,-1.5001120000000001,3
2024-06-14 09:44:32.083,47.32,-133.56,7.14,0.07076,-0.091256,-1.536712,3
2024-06-14 09:44:32.088,47.88,-143.15,4.97,0.035624,-0.07076,-1.545984,3
2024-06-14 09:44:32.093,50.12,-152.6,6.51,0.033671999999999994,-0.09516,-1.517192,3
2024-06-14 09:44:32.098,51.38,-160.65,7.63,0.034648,-0.04392,-1.5259759999999998,3
2024-06-14 09:44:32.103,51.52,-171.36,7.77,0.040504,-0.021472,-1.515728,3
2024-06-14 09:44:32.107,52.22,-182.63,7.63,0.039528,-0.017079999999999998,-1.520608,3
2024-06-14 09:44:32.112,56.49,-194.46,7.7,0.0366,0.013663999999999999,-1.570872,3
2024-06-14 09:44:32.117,59.22,-207.06,6.86,0.029768,0.02196,-1.5713599999999999,3
2024-06-14 09:44:32.122,66.15,-215.53,7.28,0.009272,0.000976,-1.635288,3
2024-06-14 09:44:32.127,67.62,-233.8,7.49,0.014152,-0.014152,-1.6430960000000001,3
2024-06-14 09:44:32.132,71.82,-250.6,8.68,-0.0068319999999999995,-0.071248,-1.675792,3
2024-06-14 09:44:32.137,75.74,-269.15,10.78,-0.027816,-0.079544,-1.698728,3
2024-06-14 09:44:32.141,78.33,-288.68,12.95,-0.034648,-0.120536,-1.7192239999999999,3
2024-06-14 09:44:32.146,81.13,-309.89,16.59,-0.048312,-0.196176,-1.77388,3
2024-06-14 09:44:32.151,86.66,-332.57,21.0,-0.073688,-0.11467999999999999,-1.907592,3
2024-06-14 09:44:32.156,87.99,-357.56,22.61,-0.07466400000000001,-0.048799999999999996,-2.0291040000000002,3
2024-06-14 09:44:32.161,87.43,-384.09,23.17,-0.08247199999999999,-0.116144,-2.065704,3
2024-06-14 09:44:32.166,86.87,-409.5,25.55,-0.081984,-0.17519200000000001,-2.077904,3
2024-06-14 09:44:32.170,87.01,-436.24,29.12,-0.011712,-0.202032,-2.1354879999999996,3
2024-06-14 09:44:32.175,88.76,-459.41,32.13,0.064416,-0.223016,-2.311656,3
2024-06-14 09:44:32.180,92.47,-478.24,33.6,0.177144,-0.16835999999999998,-2.5341839999999998,3
2024-06-14 09:44:32.185,97.44,-491.19,31.64,0.38112799999999997,-0.003904,-2.9548400000000004,3
2024-06-14 09:44:32.190,90.86,-498.68,23.31,0.381616,0.157136,-3.075376,3
2024-06-14 09:44:32.195,81.34,-509.88,15.47,0.25912799999999997,0.088816,-3.070496,3
2024-06-14 09:44:32.200,71.61,-515.83,5.46,0.191296,0.024399999999999998,-3.222264,3
2024-06-14 09:44:32.204,70.42,-521.92,-2.45,0.150304,-0.21032800000000001,-3.065616,3
2024-06-14 09:44:32.209,78.19,-525.56,1.75,0.073688,-0.406016,-3.0987999999999998,3
2024-06-14 09:44:32.214,82.53,-534.45,7.0,0.096136,-0.29865600000000003,-2.977288,3
2024-06-14 09:44:32.219,78.4,-532.14,10.99,0.274744,-0.33964799999999995,-3.097824,3
2024-06-14 09:44:32.224,70.84,-539.21,12.25,0.19178399999999998,-0.305,-2.9528879999999997,3
2024-06-14 09:44:32.229,73.15,-544.11,15.68,0.26693599999999995,-0.344528,-2.790872,3
2024-06-14 09:44:32.233,84.42,-543.76,24.57,0.157136,-0.32452,-2.9563040000000003,3
2024-06-14 09:44:32.238,78.47,-539.07,27.93,0.076128,-0.34550400000000003,-3.0768400000000002,3
2024-06-14 09:44:32.243,76.72,-522.62,28.7,-0.289872,-0.488976,-2.921168,3
2024-06-14 09:44:32.248,80.08,-492.38,34.44,-0.777384,-0.59536,-2.6366639999999997,3
2024-06-14 09:44:32.253,77.7,-438.76,40.6,-1.3273599999999999,-0.525576,-2.273104,3
2024-06-14 09:44:32.258,82.18,-370.37,50.05,-1.813408,-0.430416,-1.700192,3
2024-06-14 09:44:32.263,80.43,-307.51,59.57,-2.307264,-0.325984,-1.317112,3
2024-06-14 09:44:32.267,67.06,-242.41,73.08,-2.406328,-0.09467199999999999,-1.230248,4
2024-06-14 09:44:32.272,51.8,-186.41,89.74,-1.341512,-0.290848,-1.016016,4
2024-06-14 09:44:32.277,-1.05,-198.17,81.13,-0.657824,-0.301584,-0.84668,4
2024-06-14 09:44:32.282,-36.47,-121.03,65.73,-1.5337839999999998,-0.145424,-2.0159279999999997,4
2024-06-14 09:44:32.287,-40.18,-11.83,52.85,-2.0374,0.013176,-1.527928,4
2024-06-14 09:44:32.292,-48.23,49.84,43.82,-1.685552,0.018056000000000003,-1.08824,4
2024-06-14 09:44:32.296,-77.28,86.59,33.95,-1.4278879999999998,-0.20007999999999998,-1.308328,4
2024-06-14 09:44:32.301,-97.58,120.82,28.42,-1.370304,-0.305976,-1.470832,4
2024-06-14 09:44:32.306,-96.11,143.5,28.77,-1.3000319999999999,-0.36112,-1.374696,4
2024-06-14 09:44:32.311,-85.61,157.43,32.69,-1.211704,-0.38795999999999997,-1.198528,4
2024-06-14 09:44:32.316,-77.14,169.19,36.54,-1.159976,-0.350872,-1.053104,4
2024-06-14 09:44:32.321,-71.89,179.9,39.27,-1.1228879999999999,-0.306952,-0.9516,4
2024-06-14 09:44:32.326,-67.69,192.22,41.58,-1.091168,-0.249856,-0.8662,4
2024-06-14 09:44:32.330,-65.8,206.64,42.91,-1.08092,-0.183,-0.782264,4
2024-06-14 09:44:32.335,-66.71,224.14,43.19,-1.0574959999999998,-0.122,-0.711504,4
2024-06-14 09:44:32.340,-71.19,241.92,42.63,-1.0248,-0.08052,-0.673928,4
2024-06-14 09:44:32.345,-77.35,259.84,41.86,-0.960384,-0.05856,-0.667096,4
2024-06-14 09:44:32.350,-84.28,276.64,40.81,-0.944768,-0.046848,-0.671976,4
2024-06-14 09:44:32.355,-89.53,293.16,40.74,-0.892552,-0.04636,-0.675392,4
2024-06-14 09:44:32.359,-94.57,307.86,41.23,-0.833016,-0.0366,-0.70028,4
2024-06-14 09:44:32.364,-99.96,321.16,41.79,-0.772992,-0.028304,-0.730048,4
2024-06-14 09:44:32.369,-104.93,333.06,42.7,-0.7227279999999999,-0.022936,-0.765184,4
2024-06-14 09:44:32.374,-109.55,343.98,44.03,-0.674904,-0.031232,-0.798368,4
2024-06-14 09:44:32.379,-112.84,353.71,45.85,-0.632936,-0.052216,-0.8315520000000001,4
2024-06-14 09:44:32.384,-114.94,363.23,48.23,-0.5958479999999999,-0.07222400000000001,-0.854976,4
2024-06-14 09:44:32.389,-115.36,372.26,51.24,-0.559248,-0.10248,-0.88816,4
2024-06-14 09:44:32.393,-113.05,380.94,55.09,-0.529968,-0.142984,-0.925248,4
2024-06-14 09:44:32.398,-107.87,389.41,59.64,-0.5021519999999999,-0.17372800000000002,-0.960872,4
2024-06-14 09:44:32.403,-100.66,396.9,64.4,-0.467504,-0.193736,-1.000888,4
2024-06-14 09:44:32.408,-91.84,404.18,69.16,-0.44895999999999997,-0.210816,-1.050176,4
2024-06-14 09:44:32.413,-82.74,410.41,73.71,-0.41821600000000003,-0.20984,-1.10044,4
2024-06-14 09:44:32.418,-74.27,416.36,77.42,-0.39820799999999995,-0.18934399999999998,-1.15168,4
2024-06-14 09:44:32.422,-67.2,420.84,80.29,-0.3782,-0.17372800000000002,-1.2014559999999999,4
2024-06-14 09:44:32.427,-61.25,424.69,82.18,-0.35038400000000003,-0.159576,-1.258064,4
2024-06-14 09:44:32.432,-55.3,427.14,83.51,-0.23277599999999998,-0.16006399999999998,-1.344928,4
2024-06-14 09:44:32.437,-54.95,425.04,83.23,-0.25473599999999996,-0.081496,-1.375184,4
2024-06-14 09:44:32.442,-46.41,425.32,84.0,-0.28694400000000003,-0.20447200000000001,-1.413248,4
2024-06-14 09:44:32.447,-40.67,428.26,84.7,-0.26937599999999995,-0.176656,-1.491816,4
2024-06-14 09:44:32.452,-33.67,429.8,84.49,-0.23082399999999997,-0.17568,-1.5713599999999999,4
2024-06-14 09:44:32.456,-21.7,432.53,85.12,-0.20154399999999997,-0.225456,-1.6694479999999998,4
2024-06-14 09:44:32.461,-13.3,434.28,84.98,-0.17372800000000002,-0.22691999999999998,-1.69336,4
2024-06-14 09:44:32.466,-3.5,434.14,84.42,-0.166408,-0.235704,-1.801696,4
2024-06-14 09:44:32.471,6.79,433.86,83.86,-0.15176800000000001,-0.249368,-1.870992,4
2024-06-14 09:44:32.476,17.22,432.81,83.02,-0.138592,-0.250344,-1.9510239999999999,4
2024-06-14 09:44:32.481,27.02,431.62,81.76,-0.14054399999999997,-0.235704,-2.048624,4
2024-06-14 09:44:32.485,36.47,431.27,80.01,-0.14054399999999997,-0.22204,-2.148176,4
2024-06-14 09:44:32.490,44.59,431.76,77.7,-0.148352,-0.203496,-2.2677359999999998,4
2024-06-14 09:44:32.495,51.8,433.09,75.53,-0.157624,-0.196176,-2.3912,4
2024-06-14 09:44:32.500,58.73,434.84,73.71,-0.144936,-0.206424,-2.555168,4
2024-06-14 09:44:32.505,65.94,437.22,72.59,-0.093208,-0.2074,-2.72548,4
2024-06-14 09:44:32.510,72.31,439.67,71.33,-0.022936,-0.215696,-2.87188,4
2024-06-14 09:44:32.515,77.77,441.28,69.37,0.089792,-0.220088,-2.9758240000000002,4
2024-06-14 09:44:32.519,82.53,441.56,66.5,0.22204,-0.215696,-3.0719600000000002,4
2024-06-14 09:44:32.524,88.62,439.88,62.09,0.38308,-0.179096,-3.1105119999999995,4
2024-06-14 09:44:32.529,99.68,435.54,56.21,0.50264,-0.164456,-3.216408,4
2024-06-14 09:44:32.534,113.05,429.59,50.19,0.654408,-0.14932800000000002,-3.3306,4
2024-06-14 09:44:32.539,124.6,422.73,42.84,0.82228,-0.095648,-3.409168,4
2024-06-14 09:44:32.544,133.77,415.24,33.46,0.957456,-0.042455999999999994,-3.4945679999999997,4
2024-06-14 09:44:32.548,141.68,408.31,22.68,1.126792,0.011712,-3.5745999999999998,4
2024-06-14 09:44:32.553,147.49,401.38,10.85,1.316624,0.06783199999999999,-3.631696,4
2024-06-14 09:44:32.558,152.11,394.24,-2.17,1.542568,0.138592,-3.671712,4
2024-06-14 09:44:32.563,156.24,386.82,-15.68,1.833416,0.19178399999999998,-3.667808,4
2024-06-14 09:44:32.568,161.07,377.93,-28.63,2.162328,0.246928,-3.618032,4
2024-06-14 09:44:32.573,164.29,366.03,-41.58,2.539552,0.304024,-3.50628,4
2024-06-14 09:44:32.578,161.49,349.09,-55.58,2.9348319999999997,0.37332,-3.352072,4
2024-06-14 09:44:32.582,151.34,327.18,-70.98,3.3593919999999997,0.42456,-3.13052,4
2024-06-14 09:44:32.587,132.86,299.11,-86.31,3.682448,0.41577600000000003,-2.844552,4
2024-06-14 09:44:32.592,109.62,267.05,-99.05,4.00404,0.325984,-2.48392,4
2024-06-14 09:44:32.597,89.95,231.56,-105.35,4.24316,0.16250399999999998,-2.1554960000000003,4
2024-06-14 09:44:32.602,89.11,198.24,-100.73,4.5232719999999995,0.059048,-1.914912,4
2024-06-14 09:44:32.607,111.65,171.08,-87.22,4.815583999999999,-0.003904,-1.7519200000000001,4
2024-06-14 09:44:32.611,133.49,142.17,-70.84,4.97028,0.095648,-1.670424,4
2024-06-14 09:44:32.616,145.95,112.98,-56.21,5.159624,0.355752,-1.6103999999999998,4
2024-06-14 09:44:32.621,147.42,84.7,-45.01,5.359215999999999,0.5675439999999999,-1.62748,4
2024-06-14 09:44:32.626,134.89,51.45,-37.52,5.388008,0.827648,-1.6972639999999999,4
2024-06-14 09:44:32.631,116.06,14.28,-34.58,5.252832000000001,1.038952,-1.7206879999999998,4
2024-06-14 09:44:32.636,91.7,-25.62,-36.68,5.0415280000000005,1.1721759999999999,-1.740696,4
2024-06-14 09:44:32.641,61.25,-67.41,-44.38,4.6887039999999995,1.202432,-1.743136,4
2024-06-14 09:44:32.645,29.4,-106.33,-55.86,4.2797600000000005,1.123376,-1.765584,4
2024-06-14 09:44:32.650,-161.14,-299.11,-74.34,4.66284,-0.190808,-6.530416,4
