time,gyroscope_x,gyroscope_y,gyroscope_z,accelerometer_x,accelerometer_y,accelerometer_z,phase
2024-06-14 10:25:03.039,-293.58000000000004,-284.725,-32.69,4.554504,3.115148,-1.8243880000000001,1
2024-06-14 10:25:03.043,-390.425,-310.625,-60.83,-0.1400559999999999,-1.076772,0.554368,1
2024-06-14 10:25:03.048,-290.64,-275.485,-46.900000000000006,-0.421632,0.538996,-1.350296,1
2024-06-14 10:25:03.053,-270.76,-287.84000000000003,-67.865,-0.168848,0.031964,-0.776896,1
2024-06-14 10:25:03.058,-210.07,-296.135,-92.4,-1.2168279999999998,0.04636,-0.92476,1
2024-06-14 10:25:03.063,-142.485,-327.25,-104.545,-0.167384,0.249124,-1.698728,1
2024-06-14 10:25:03.068,-96.075,-361.48,-103.70500000000001,-0.025863999999999984,0.6104879999999999,-2.309704,1
2024-06-14 10:25:03.072,-59.955,-380.345,-89.18,0.422364,0.908168,-2.818688,1
2024-06-14 10:25:03.077,-28.735,-384.72,-72.03,0.339404,0.5748639999999999,-2.9319040000000003,1
2024-06-14 10:25:03.082,-29.47,-367.32500000000005,-60.41,0.316224,0.41602,-3.073424,1
2024-06-14 10:25:03.087,-24.43,-292.39,-42.980000000000004,0.384788,0.36722,-3.103436,2
2024-06-14 10:25:03.092,-35.455,-211.95999999999998,-21.805,0.420168,0.19544399999999998,-2.3106799999999996,2
2024-06-14 10:25:03.096,-31.43,-155.26,-10.01,0.26913200000000004,0.040504,-1.695556,2
2024-06-14 10:25:03.101,-18.025,-118.82499999999999,-11.445,0.158112,-0.05856,-1.383724,2
2024-06-14 10:25:03.106,-4.725,-86.17,-16.134999999999998,0.077104,-0.023179999999999996,-1.244644,2
2024-06-14 10:25:03.111,-3.8850000000000002,-68.11,-17.605,-0.06709999999999999,-0.0017080000000000003,-1.0323639999999998,2
2024-06-14 10:25:03.116,-7.49,-59.709999999999994,-14.594999999999999,-0.07344400000000001,0.04782399999999999,-1.031388,2
2024-06-14 10:25:03.121,-15.61,-38.08,-8.82,-0.01708,0.08832799999999999,-1.053592,2
2024-06-14 10:25:03.125,-21.21,-21.385,-1.4700000000000002,0.02562,0.071492,-1.0848239999999998,2
2024-06-14 10:25:03.130,-17.08,-3.045,3.325,0.04513999999999999,0.018544,-1.0801880000000001,2
2024-06-14 10:25:03.135,-7.875,8.469999999999999,4.095000000000001,0.072712,-0.030988,-1.070672,2
2024-06-14 10:25:03.140,-5.355,12.39,0.875,0.084424,-0.037576,-1.073356,2
2024-06-14 10:25:03.145,-3.465,11.83,-2.4499999999999997,0.06831999999999999,-0.024888,-1.0592039999999998,2
2024-06-14 10:25:03.150,-2.275,7.385,-3.325,0.020252,-0.003904,-1.0372439999999998,2
2024-06-14 10:25:03.154,-2.625,7.0,-2.065,0.01342,0.021716,-1.0262639999999998,2
2024-06-14 10:25:03.159,-1.6800000000000002,3.92,-0.9099999999999999,-0.000732,0.035136,-1.019432,2
2024-06-14 10:25:03.164,-1.155,2.0300000000000002,-0.9099999999999999,-0.010735999999999999,0.015128,-1.0169920000000001,2
2024-06-14 10:25:03.168,-1.05,0.0,-1.05,-0.010248,-0.005611999999999999,-1.0152839999999999,2
2024-06-14 10:25:03.173,-0.9450000000000001,-1.47,-1.645,-0.015372,-0.0060999999999999995,-1.0133320000000001,2
2024-06-14 10:25:03.178,-1.12,-2.7649999999999997,-1.9949999999999999,-0.0305,-0.0046359999999999995,-1.012112,2
2024-06-14 10:25:03.182,-1.295,-4.865,-1.6099999999999999,-0.031476,0.000732,-1.009428,2
2024-06-14 10:25:03.187,-1.47,-6.37,-1.33,-0.025863999999999998,-0.000488,-1.011868,2
2024-06-14 10:25:03.192,-1.295,-8.015,-1.085,-0.024644,0.005368,-1.011868,2
2024-06-14 10:25:03.197,-1.12,-9.24,-1.12,-0.027816,-0.001952,-1.009428,2
2024-06-14 10:25:03.202,-0.875,-10.92,-1.12,-0.036356,0.0026839999999999998,-1.004548,2
2024-06-14 10:25:03.207,-0.525,-12.18,-1.085,-0.034648,-0.000732,-1.005036,2
2024-06-14 10:25:03.211,-0.45499999999999996,-12.81,-1.0150000000000001,-0.03904,-0.005124,-1.0023520000000001,2
2024-06-14 10:25:03.216,-0.595,-13.825,-1.12,-0.04026,-0.005856,-1.002352,2
2024-06-14 10:25:03.221,-0.5599999999999999,-14.559999999999999,-0.9450000000000001,-0.039284,-0.005612,-1.003816,2
2024-06-14 10:25:03.226,-0.91,-15.12,-0.5599999999999999,-0.044163999999999995,-0.0060999999999999995,-1.0035720000000001,2
2024-06-14 10:25:03.231,-0.9450000000000001,-15.469999999999999,-0.385,-0.020007999999999998,0.0029279999999999996,-1.001864,2
2024-06-14 10:25:03.236,-1.05,-15.995000000000001,-0.14,-0.015615999999999998,0.0034159999999999998,-1.0055239999999999,2
2024-06-14 10:25:03.240,-1.085,-15.925,0.10500000000000001,-0.019520000000000003,-0.002196,-1.003328,2
2024-06-14 10:25:03.245,-0.9450000000000001,-15.155,0.27999999999999997,-0.017568,0.000488,-1.004548,2
2024-06-14 10:25:03.250,-0.9450000000000001,-14.105,0.315,-0.016592,0.0017079999999999999,-1.0060120000000001,2
2024-06-14 10:25:03.255,-0.735,-14.49,0.385,-0.012688,0.00048800000000000004,-1.004792,2
2024-06-14 10:25:03.260,-0.595,-14.49,0.42,-0.013176,0.0,-1.0035720000000001,2
2024-06-14 10:25:03.265,-0.665,-13.825,0.49,-0.016592000000000003,-0.0039039999999999995,-1.001376,2
2024-06-14 10:25:03.269,-1.0150000000000001,-13.195,0.63,-0.014152,-0.002928,-1.0030839999999999,2
2024-06-14 10:25:03.274,-1.26,-12.705,0.665,-0.016104,-0.0060999999999999995,-1.0035720000000001,2
2024-06-14 10:25:03.279,-1.75,-13.125,0.735,-0.013663999999999999,-0.004392,-0.998204,2
2024-06-14 10:25:03.284,-1.19,-11.864999999999998,0.945,-0.01952,-0.000732,-1.0035720000000001,2
2024-06-14 10:25:03.289,-3.08,-12.67,0.9450000000000001,-0.028303999999999996,-0.010736,-0.999668,2
2024-06-14 10:25:03.294,-2.4850000000000003,-13.65,0.8400000000000001,-0.018788,-0.0026839999999999998,-1.000156,2
2024-06-14 10:25:03.299,-3.255,-12.915,0.77,-0.017568,0.001464,-1.0011320000000001,2
2024-06-14 10:25:03.303,-3.7800000000000002,-11.9,0.875,-0.015616000000000001,-0.005612,-1.0030839999999999,2
2024-06-14 10:25:03.308,-3.885,-12.67,1.0499999999999998,-0.013663999999999999,-0.006588,-1.004304,2
2024-06-14 10:25:03.313,-4.515,-14.175,1.3650000000000002,-0.010003999999999999,-0.002196,-0.9974719999999999,2
2024-06-14 10:25:03.318,-4.375,-15.085,1.6099999999999999,-0.005856,-0.0012200000000000002,-1.003572,2
2024-06-14 10:25:03.323,-4.445,-13.510000000000002,1.54,0.00024399999999999997,0.0021959999999999996,-1.0011320000000001,2
2024-06-14 10:25:03.328,-4.234999999999999,-13.79,1.645,0.0060999999999999995,0.0053679999999999995,-1.003328,2
2024-06-14 10:25:03.332,-4.095000000000001,-13.965,1.7149999999999999,0.002196,-0.00976,-1.006256,2
2024-06-14 10:25:03.337,-4.865,-13.405000000000001,1.96,0.002928,-0.00366,-1.005768,2
2024-06-14 10:25:03.342,-5.18,-13.72,2.065,0.0060999999999999995,0.009271999999999999,-1.004548,2
2024-06-14 10:25:03.347,-4.865,-13.79,2.3449999999999998,0.011712,0.010003999999999999,-1.003816,2
2024-06-14 10:25:03.352,-5.53,-19.985,2.38,-0.0024400000000000003,0.00024399999999999986,-1.0055239999999999,2
2024-06-14 10:25:03.357,-5.984999999999999,-15.295,2.66,-0.0002440000000000003,0.006832,-0.9982039999999999,2
2024-06-14 10:25:03.361,-6.404999999999999,-14.7,2.8,-0.000976,-0.007319999999999999,-1.006988,2
2024-06-14 10:25:03.366,-6.965,-12.425,3.01,0.0053679999999999995,0.008052,-1.004548,2
2024-06-14 10:25:03.371,-7.279999999999999,-16.87,3.395,0.013908,0.011224,-1.0043039999999999,2
2024-06-14 10:25:03.376,-5.984999999999999,-17.255,3.5,0.0014639999999999998,0.015616,-1.01626,2
2024-06-14 10:25:03.381,-6.4399999999999995,-20.265,3.185,0.0075639999999999995,0.030011999999999997,-1.0230920000000001,2
2024-06-14 10:25:03.386,-6.16,-24.36,3.255,0.017324,-0.0004879999999999997,-1.020164,2
2024-06-14 10:25:03.390,-6.23,-28.945,3.92,0.004148,-0.009028,-1.029192,2
2024-06-14 10:25:03.395,-8.68,-33.879999999999995,4.305,0.010003999999999999,-0.01098,-1.022848,2
2024-06-14 10:25:03.400,-9.065,-40.635000000000005,4.9350000000000005,0.012688000000000001,-0.0183,-1.0201639999999998,2
2024-06-14 10:25:03.405,-11.129999999999999,-47.39,4.970000000000001,0.016836,0.0024399999999999995,-1.041148,2
2024-06-14 10:25:03.410,-12.32,-53.725,4.9350000000000005,0.016836,-0.008295999999999998,-1.0604239999999998,2
2024-06-14 10:25:03.415,-14.175,-58.870000000000005,5.25,0.019764,-0.0183,-1.0643280000000002,2
2024-06-14 10:25:03.419,-17.29,-63.28,5.74,0.02806,-0.028791999999999998,-1.0967799999999999,2
2024-06-14 10:25:03.424,-19.845,-66.185,6.79,0.044163999999999995,-0.034648,-1.114836,2
2024-06-14 10:25:03.429,-19.494999999999997,-57.225,8.155,0.034404000000000004,-0.11809599999999999,-1.0765280000000002,2
2024-06-14 10:25:03.434,-17.29,-79.275,9.030000000000001,0.042456,-0.150548,-1.188524,2
2024-06-14 10:25:03.439,-17.045,-72.205,13.23,0.084668,-0.172264,-1.232932,2
2024-06-14 10:25:03.444,-5.145,-67.515,17.15,0.08710799999999999,-0.089304,-1.272704,2
2024-06-14 10:25:03.448,9.205,-58.275,20.195,0.07661599999999999,0.202032,-1.499136,2
2024-06-14 10:25:03.453,3.255,-63.0,15.61,0.03782,0.199836,-1.3915320000000002,3
2024-06-14 10:25:03.458,7.875,-70.17500000000001,11.69,0.048312,0.12224399999999999,-1.3298,3
2024-06-14 10:25:03.463,10.465,-74.69,9.975000000000001,0.066856,0.106628,-1.36396,3
2024-06-14 10:25:03.468,13.195,-83.93,8.54,0.040504,0.09223200000000001,-1.4813239999999999,3
2024-06-14 10:25:03.473,17.884999999999998,-90.65,7.455,0.061487999999999994,0.094916,-1.53232,3
2024-06-14 10:25:03.477,15.05,-104.265,7.245,0.072712,-0.016347999999999998,-1.41154,3
2024-06-14 10:25:03.482,16.1,-108.85,7.0,0.051972000000000004,0.048312,-1.3595679999999999,3
2024-06-14 10:25:03.487,15.575,-116.55000000000001,5.390000000000001,0.057095999999999994,0.13419999999999999,-1.444968,3
2024-06-14 10:25:03.492,20.02,-128.065,2.87,0.06344,0.128588,-1.4510679999999998,3
2024-06-14 10:25:03.497,24.009999999999998,-139.16,1.225,0.054412,0.08784,-1.45424,3
2024-06-14 10:25:03.502,27.09,-150.115,0.14,0.044652,0.11882799999999999,-1.467416,3
2024-06-14 10:25:03.507,31.115000000000002,-164.465,-1.33,0.059292,0.09272,-1.5189,3
2024-06-14 10:25:03.511,28.560000000000002,-184.765,-1.33,0.0732,0.045383999999999994,-1.5437880000000002,3
2024-06-14 10:25:03.516,31.185,-200.76,-1.155,0.046848,0.032940000000000004,-1.569652,3
2024-06-14 10:25:03.521,33.355000000000004,-218.26,-1.8900000000000001,0.055144,0.016104,-1.613084,3
2024-06-14 10:25:03.526,29.89,-239.68,-1.785,0.055144,0.019764,-1.6848200000000002,3
2024-06-14 10:25:03.531,29.54,-259.35,-1.12,0.042212,0.006832,-1.764608,3
2024-06-14 10:25:03.536,27.685000000000002,-278.565,-0.7,0.033671999999999994,0.007076,-1.7933999999999999,3
2024-06-14 10:25:03.540,26.494999999999997,-299.81,-0.595,0.024888,0.019275999999999998,-1.955172,3
2024-06-14 10:25:03.545,26.32,-320.775,-0.49,0.024155999999999997,0.048556,-2.065216,3
2024-06-14 10:25:03.550,23.520000000000003,-343.66499999999996,-1.33,0.03782,0.06368399999999999,-2.233088,3
2024-06-14 10:25:03.555,23.59,-362.03999999999996,-2.31,0.020252,-0.001464,-2.393884,3
2024-06-14 10:25:03.560,26.18,-381.22,-1.96,0.0793,-0.0427,-2.485628,3
2024-06-14 10:25:03.565,27.265,-402.08000000000004,-1.435,0.130052,-0.018788,-2.6415439999999997,3
2024-06-14 10:25:03.569,30.17,-417.305,-2.17,0.15738,-0.127368,-3.014864,3
2024-06-14 10:25:03.574,35.349999999999994,-440.05499999999995,-0.385,0.11565599999999998,-0.190808,-3.207136,3
2024-06-14 10:25:03.579,44.03,-461.82500000000005,1.12,0.08003199999999999,-0.169336,-3.404288,3
2024-06-14 10:25:03.584,48.894999999999996,-492.975,2.9050000000000002,-0.004148000000000001,-0.170068,-3.5575200000000002,3
2024-06-14 10:25:03.589,54.915000000000006,-513.415,3.3600000000000003,-0.001464,-0.220576,-3.598024,3
2024-06-14 10:25:03.594,59.114999999999995,-540.575,7.49,-0.109556,-0.255712,-3.7510119999999993,3
2024-06-14 10:25:03.598,58.59,-563.605,11.795,-0.12858799999999998,-0.280112,-3.8066440000000004,3
2024-06-14 10:25:03.603,54.635,-571.8299999999999,16.03,-0.060756,-0.34111199999999997,-4.16264,4
2024-06-14 10:25:03.608,63.385000000000005,-571.2349999999999,19.95,0.105164,-0.537288,-4.373944,4
2024-06-14 10:25:03.613,69.265,-565.81,31.255000000000003,-0.05758400000000001,-0.622444,-4.702611999999999,4
2024-06-14 10:25:03.618,66.955,-557.41,42.21,-0.532652,-0.6902759999999999,-4.740675999999999,4
2024-06-14 10:25:03.623,61.95,-544.985,54.53,-1.319308,-0.683932,-4.177768,4
2024-06-14 10:25:03.627,65.38,-520.24,65.695,-2.096936,-0.555344,-3.144428,4
2024-06-14 10:25:03.632,60.129999999999995,-502.95,73.745,-2.308972,-0.39039999999999997,-2.056676,4
2024-06-14 10:25:03.637,36.224999999999994,-515.4100000000001,71.505,-2.789896,-0.347456,-1.349808,4
2024-06-14 10:25:03.642,-33.845,-540.54,38.57,-3.0126679999999997,0.26474000000000003,-0.726876,4
2024-06-14 10:25:03.647,-117.11,-508.515,6.859999999999999,-1.9368720000000001,0.522892,0.328912,4
2024-06-14 10:25:03.652,-112.385,-318.85,-42.875,-2.016416,-0.237412,-2.064484,4
2024-06-14 10:25:03.656,-109.34,-170.275,-98.84,-2.2989680000000003,-0.660508,-2.490264,4
2024-06-14 10:25:03.661,-81.305,-18.235,-145.88,-2.728408,-0.661728,-1.342244,4
2024-06-14 10:25:03.666,-66.325,74.025,-160.335,-2.538088,-0.624884,-1.780712,4
2024-06-14 10:25:03.671,-47.6,119.35,-149.625,-1.88978,-0.6910080000000001,-1.5960039999999998,4
2024-06-14 10:25:03.676,-40.425,119.0,-133.20999999999998,-1.494256,-0.815448,-1.3615199999999998,4
2024-06-14 10:25:03.681,-32.55,97.055,-111.755,-1.407148,-0.6958880000000001,-1.176324,4
2024-06-14 10:25:03.685,-27.72,75.32,-83.65,-1.4242279999999998,-0.5860879999999999,-0.88816,4
2024-06-14 10:25:03.690,-23.205,64.82,-58.765,-1.5633080000000001,-0.457988,-0.667828,4
2024-06-14 10:25:03.695,-17.5,67.305,-39.235,-1.74216,-0.333548,-0.524356,4
2024-06-14 10:25:03.700,-12.635000000000002,86.975,-26.565,-1.9139359999999999,-0.19861600000000001,-0.371612,4
2024-06-14 10:25:03.705,-10.079999999999998,119.66499999999999,-17.5,-2.040572,-0.033428000000000006,-0.302804,4
2024-06-14 10:25:03.710,-12.215,156.94,-9.1,-2.0749760000000004,0.077592,-0.22814,4
2024-06-14 10:25:03.716,-18.725,192.99,-5.285,-2.02032,0.10125999999999999,-0.294508,4
2024-06-14 10:25:03.720,-29.085,231.7,-4.62,-1.94468,0.10369999999999999,-0.37380800000000003,4
2024-06-14 10:25:03.725,-39.445,268.275,-4.970000000000001,-1.848544,0.084424,-0.44822799999999996,4
2024-06-14 10:25:03.730,-48.125,300.37,-5.390000000000001,-1.718492,0.049044000000000004,-0.521184,4
2024-06-14 10:25:03.735,-53.795,326.9,-4.9,-1.5740439999999998,0.017568,-0.592432,4
2024-06-14 10:25:03.740,-56.91,347.935,-3.885,-1.412028,-0.014152,-0.655384,4
2024-06-14 10:25:03.744,-59.045,363.685,-2.835,-1.266848,-0.027815999999999997,-0.733708,4
2024-06-14 10:25:03.749,-61.915,375.83,-3.955,-1.094828,-0.058072,-0.8252079999999999,4
2024-06-14 10:25:03.754,-66.815,386.43499999999995,-7.77,-0.953796,-0.071492,-0.920368,4
2024-06-14 10:25:03.759,-71.225,394.765,-12.25,-0.855952,-0.06734399999999999,-0.9201239999999999,4
2024-06-14 10:25:03.764,-73.92,402.46500000000003,-17.115000000000002,-0.77104,-0.07808,-0.963556,4
2024-06-14 10:25:03.769,-75.565,411.39,-22.715,-0.657824,-0.111996,-1.053104,4
2024-06-14 10:25:03.773,-76.055,419.86,-28.875,-0.528016,-0.15811199999999997,-1.17242,4
2024-06-14 10:25:03.778,-74.62,427.35,-35.735,-0.419436,-0.19764,-1.272704,4
2024-06-14 10:25:03.783,-71.295,434.80499999999995,-42.7,-0.322812,-0.230092,-1.3644479999999999,4
2024-06-14 10:25:03.788,-68.005,441.7,-49.42,-0.235216,-0.25254,-1.451068,4
2024-06-14 10:25:03.793,-64.12,447.475,-55.335,-0.159576,-0.277916,-1.518168,4
2024-06-14 10:25:03.798,-59.849999999999994,450.24,-59.955,-0.08418,-0.31500399999999995,-1.573556,4
2024-06-14 10:25:03.802,-55.370000000000005,449.47,-63.315,-0.006588000000000001,-0.359168,-1.636264,4
2024-06-14 10:25:03.807,-49.245000000000005,444.885,-64.785,0.072712,-0.40626,-1.6970199999999998,4
2024-06-14 10:25:03.812,-41.58,436.94,-64.36500000000001,0.141764,-0.441396,-1.733864,4
2024-06-14 10:25:03.817,-32.655,427.105,-62.685,0.19739600000000002,-0.46921199999999996,-1.7602159999999998,4
2024-06-14 10:25:03.822,-23.485,416.5,-59.5,0.24156,-0.48653599999999997,-1.802184,4
2024-06-14 10:25:03.827,-14.455,406.385,-55.405,0.27181599999999995,-0.5002,-1.8453719999999998,4
2024-06-14 10:25:03.831,-6.825,397.355,-51.03,0.293288,-0.49092800000000003,-1.8849,4
2024-06-14 10:25:03.836,-0.9099999999999999,390.46000000000004,-46.515,0.312808,-0.46994400000000003,-1.926624,4
2024-06-14 10:25:03.841,4.9,385.49,-42.14,0.3233,-0.45505999999999996,-1.989332,4
2024-06-14 10:25:03.846,11.48,383.03999999999996,-37.275,0.34233199999999997,-0.425048,-1.9986039999999998,4
2024-06-14 10:25:03.851,16.835,382.095,-32.375,0.27157200000000004,-0.404064,-2.087664,4
2024-06-14 10:25:03.856,17.465,380.345,-27.335,0.277428,-0.328424,-2.120848,4
2024-06-14 10:25:03.860,17.990000000000002,380.135,-22.995,0.31476,-0.32208,-2.145492,4
2024-06-14 10:25:03.865,17.045,380.345,-19.285,0.319396,-0.28669999999999995,-2.209664,4
2024-06-14 10:25:03.870,16.1,380.16999999999996,-16.240000000000002,0.370148,-0.24766,-2.23504,4
2024-06-14 10:25:03.875,13.370000000000001,379.71500000000003,-14.315,0.451156,-0.220576,-2.284084,4
2024-06-14 10:25:03.880,9.870000000000001,378.41999999999996,-13.055,0.542656,-0.216428,-2.3162920000000002,4
2024-06-14 10:25:03.884,7.07,376.28499999999997,-11.969999999999999,0.639524,-0.227408,-2.3209280000000003,4
2024-06-14 10:25:03.889,6.965,372.78499999999997,-10.5,0.731756,-0.25351599999999996,-2.328736,4
2024-06-14 10:25:03.894,8.96,366.94,-8.190000000000001,0.8349679999999999,-0.27571999999999997,-2.323124,4
2024-06-14 10:25:03.899,13.125,359.45,-4.69,0.913292,-0.29890000000000005,-2.307264,4
2024-06-14 10:25:03.904,18.130000000000003,349.78999999999996,-0.10499999999999998,0.966728,-0.303292,-2.289452,4
2024-06-14 10:25:03.909,23.134999999999998,338.83500000000004,5.845,1.0140639999999999,-0.27767200000000003,-2.2745680000000004,4
2024-06-14 10:25:03.913,25.62,326.795,12.425,1.0675,-0.248392,-2.2716399999999997,4
2024-06-14 10:25:03.918,24.71,314.72,19.04,1.153876,-0.21594000000000002,-2.305556,4
2024-06-14 10:25:03.923,22.05,303.485,25.515,1.2441559999999998,-0.191784,-2.314096,4
2024-06-14 10:25:03.928,19.564999999999998,294.245,31.814999999999998,1.3268719999999998,-0.172752,-2.309704,4
2024-06-14 10:25:03.933,19.04,286.65,37.94,1.4274,-0.140544,-2.30458,4
2024-06-14 10:25:03.938,19.215,280.595,43.155,1.544276,-0.10369999999999999,-2.283596,4
2024-06-14 10:25:03.942,18.62,274.505,47.39,1.678476,-0.06831999999999999,-2.284572,4
2024-06-14 10:25:03.947,17.009999999999998,266.7,50.644999999999996,1.8483,-0.048556,-2.289696,4
2024-06-14 10:25:03.952,15.155000000000001,256.13,53.445,2.0374,-0.052948,-2.289208,4
2024-06-14 10:25:03.957,16.205,244.055,56.595,2.2460199999999997,-0.072468,-2.225524,4
2024-06-14 10:25:03.962,17.990000000000002,230.44,60.55,2.4795279999999997,-0.092476,-2.1489079999999996,4
2024-06-14 10:25:03.967,20.545,215.775,65.205,2.741828,-0.124196,-2.0964479999999996,4
2024-06-14 10:25:03.971,22.995,199.36,71.12,3.0465839999999997,-0.161528,-2.036912,4
2024-06-14 10:25:03.976,26.285,180.075,78.855,3.3606119999999997,-0.206424,-1.95322,4
2024-06-14 10:25:03.981,29.26,158.26999999999998,89.07499999999999,3.632428,-0.220332,-1.817556,4
2024-06-14 10:25:03.986,31.185000000000002,134.47,101.88499999999999,3.816404,-0.209596,-1.766804,4
2024-06-14 10:25:03.991,30.835,109.305,116.515,3.9957439999999997,-0.14274,-1.74094,4
2024-06-14 10:25:03.996,26.915,82.985,130.585,4.178744,-0.002440000000000001,-1.713612,4
2024-06-14 10:25:04.000,17.85,56.07,141.64499999999998,4.3236799999999995,0.15323199999999998,-1.6958,4
2024-06-14 10:25:04.005,3.64,27.299999999999997,149.1,4.419328,0.30744000000000005,-1.692384,4
2024-06-14 10:25:04.010,-10.325,-2.975,152.425,4.479108,0.44920400000000005,-1.699948,4
2024-06-14 10:25:04.015,-24.71,-36.61,149.94,4.479352,0.535092,-1.679208,4
2024-06-14 10:25:04.020,-36.855000000000004,-71.925,139.79,4.4078599999999994,0.6039,-1.708976,4
2024-06-14 10:25:04.025,-93.17,-144.34,117.005,4.4683720000000005,1.7006800000000002,-2.495144,4
