time,gyroscope_x,gyroscope_y,gyroscope_z,accelerometer_x,accelerometer_y,accelerometer_z,phase
2024-06-14 10:25:04.029,-285.18,-335.3,23.45,6.264944,1.891488,-3.5101839999999993,1
2024-06-14 10:25:04.034,-394.24,-378.21000000000004,9.905,-0.483608,-0.922808,0.620248,1
2024-06-14 10:25:04.039,-368.515,-367.605,14.385000000000002,0.28303999999999996,0.022447999999999996,-2.448052,1
2024-06-14 10:25:04.044,-334.845,-347.79499999999996,-21.91,-0.427,-0.5855999999999999,-1.1592440000000002,1
2024-06-14 10:25:04.049,-244.195,-361.305,-61.67,-1.524024,-0.641964,-1.626992,1
2024-06-14 10:25:04.053,-154.035,-379.155,-98.21000000000001,-0.336476,-0.32622799999999996,-1.935896,1
2024-06-14 10:25:04.058,-95.58500000000001,-386.71500000000003,-124.005,0.183244,0.16714,-2.343864,1
2024-06-14 10:25:04.063,-55.195,-389.445,-131.635,0.599752,0.525332,-2.605188,1
2024-06-14 10:25:04.068,-15.785,-382.34000000000003,-124.11,0.535336,0.7256560000000001,-2.628612,1
2024-06-14 10:25:04.073,-2.38,-362.18,-107.24000000000001,0.168848,0.7693319999999999,-2.7206,1
2024-06-14 10:25:04.078,-10.045,-324.38,-76.125,0.19202799999999998,0.884012,-2.782576,1
2024-06-14 10:25:04.082,-11.83,-259.805,-31.99,0.291824,0.7439560000000001,-2.423896,1
2024-06-14 10:25:04.087,-14.420000000000002,-217.07,6.895,0.25180800000000003,0.37429599999999996,-2.038132,1
2024-06-14 10:25:04.092,-25.095,-182.77,25.515,0.171288,0.038796,-1.637972,1
2024-06-14 10:25:04.097,-20.545,-161.665,25.2,0.039284,-0.13102799999999998,-1.3298,1
2024-06-14 10:25:04.102,-16.625,-137.865,13.44,0.071492,-0.261568,-1.2456200000000002,1
2024-06-14 10:25:04.107,-7.805,-98.14,-0.49,0.051484,-0.203984,-1.219756,1
2024-06-14 10:25:04.111,-11.48,-78.53999999999999,-9.695,0.018788,-0.07588400000000001,-1.1555840000000002,1
2024-06-14 10:25:04.116,-23.695,-42.525000000000006,-10.43,0.09735599999999998,0.060268,-1.167052,1
2024-06-14 10:25:04.121,-26.495,-20.369999999999997,-3.08,0.070516,0.11565600000000001,-1.1480199999999998,1
2024-06-14 10:25:04.126,-11.795,4.095,7.0,0.084668,0.07686,-1.095072,1
2024-06-14 10:25:04.131,-8.33,11.48,9.695,0.07002799999999999,0.018056,-1.0772599999999999,2
2024-06-14 10:25:04.136,-5.215,11.34,7.175000000000001,0.063196,-0.03294,-1.058716,2
2024-06-14 10:25:04.140,-3.535,8.995000000000001,1.225,0.06953999999999999,-0.062708,-1.0518839999999998,2
2024-06-14 10:25:04.145,-3.5700000000000003,4.9350000000000005,-5.39,0.053436,-0.04660399999999999,-1.047492,2
2024-06-14 10:25:04.150,-3.6399999999999997,-0.14,-6.79,0.017324,0.02806,-1.037976,2
2024-06-14 10:25:04.155,-3.5,-1.82,-4.585,-0.00976,0.037332000000000004,-1.0182120000000001,2
2024-06-14 10:25:04.160,-2.66,-0.91,-3.675,-0.027816,0.037088,-1.0084520000000001,2
2024-06-14 10:25:04.165,-2.66,-2.45,-2.555,-0.017568,0.009028,-1.013576,2
2024-06-14 10:25:04.169,-3.045,-4.725,-3.01,-0.013908,-0.00366,-1.0126,2
2024-06-14 10:25:04.174,-3.29,-6.824999999999999,-3.01,-0.02074,0.010248,-1.0116239999999999,2
2024-06-14 10:25:04.179,-3.185,-8.504999999999999,-2.38,-0.02318,0.021716,-1.0096720000000001,2
2024-06-14 10:25:04.184,-2.87,-10.57,-1.75,-0.024888,0.019275999999999998,-1.009428,2
2024-06-14 10:25:04.189,-2.38,-12.844999999999999,-1.8199999999999998,-0.02196,0.008052,-1.0091839999999999,2
2024-06-14 10:25:04.193,-2.17,-15.435,-1.96,-0.026596,0.007808,-1.005036,2
2024-06-14 10:25:04.198,-2.065,-17.185,-1.9949999999999999,-0.03172,0.009271999999999999,-1.003572,2
2024-06-14 10:25:04.203,-1.7850000000000001,-19.005000000000003,-1.7149999999999999,-0.032208,0.015372,-1.00894,2
2024-06-14 10:25:04.208,-1.505,-20.405,-1.505,-0.022935999999999998,0.010492,-1.0133320000000001,2
2024-06-14 10:25:04.213,-1.295,-20.93,-1.4,-0.011712,0.017324,-1.01016,2
2024-06-14 10:25:04.218,-0.91,-19.880000000000003,-1.225,-0.020007999999999998,0.00976,-1.0084520000000001,2
2024-06-14 10:25:04.222,-0.595,-17.990000000000002,-1.085,-0.003903999999999999,0.005612000000000001,-1.007964,2
2024-06-14 10:25:04.227,-0.595,-16.869999999999997,-0.9450000000000001,-0.01708,0.008296000000000001,-1.005524,2
2024-06-14 10:25:04.232,-0.735,-16.064999999999998,-0.7,-0.008296,-0.004880000000000001,-1.0018639999999999,2
2024-06-14 10:25:04.237,-0.98,-15.365,-0.595,-0.009028000000000001,0.00122,-1.0055239999999999,2
2024-06-14 10:25:04.242,-1.085,-15.085,-0.35,-0.0060999999999999995,0.0034160000000000006,-1.001376,2
2024-06-14 10:25:04.247,-1.505,-14.175,-0.245,-0.019276,-0.004391999999999999,-1.005036,2
2024-06-14 10:25:04.251,-1.4700000000000002,-14.735,-0.035,0.009272,0.0019519999999999997,-1.001376,2
2024-06-14 10:25:04.256,-1.855,-12.565,0.175,-0.034892,-0.007808,-1.0023520000000001,2
2024-06-14 10:25:04.261,-1.1549999999999998,-15.995000000000001,0.21000000000000002,-0.011712,0.018299999999999997,-1.003328,2
2024-06-14 10:25:04.268,-1.19,-13.265,0.665,0.0122,0.010492,-0.993324,2
2024-06-14 10:25:04.273,-1.3649999999999998,-11.48,0.875,0.017811999999999998,0.0004879999999999997,-0.995764,2
2024-06-14 10:25:04.278,-2.1,-11.969999999999999,0.8400000000000001,-0.0036599999999999996,-0.0053679999999999995,-0.997716,2
2024-06-14 10:25:04.282,-3.5,-12.88,0.525,-0.014152,0.0026839999999999998,-1.00528,2
2024-06-14 10:25:04.287,-4.025,-13.72,0.56,0.00488,0.017324,-0.99796,2
2024-06-14 10:25:04.292,-4.234999999999999,-12.25,0.665,-0.012688,0.001708,-0.9964959999999999,2
2024-06-14 10:25:04.297,-4.165,-9.695,0.875,0.014152,0.0029279999999999996,-0.993568,2
2024-06-14 10:25:04.302,-6.300000000000001,-11.235,0.9450000000000001,-0.013908,0.0053679999999999995,-0.9977159999999999,2
2024-06-14 10:25:04.306,-6.51,-10.99,0.91,0.011956,0.016348,-0.9943,2
2024-06-14 10:25:04.311,-6.37,-12.25,0.84,0.010492,0.023424,-0.9945439999999999,2
2024-06-14 10:25:04.316,-5.915,-8.854999999999999,0.9450000000000001,0.00976,0.012199999999999999,-0.999668,2
2024-06-14 10:25:04.321,-5.109999999999999,-7.91,1.155,0.014152000000000001,0.017568,-0.99918,2
2024-06-14 10:25:04.326,-5.109999999999999,-1.5399999999999991,1.05,0.009028,0.015615999999999998,-0.997716,2
2024-06-14 10:25:04.330,-4.515000000000001,-5.809999999999999,1.1199999999999999,0.004148,0.010248,-1.000156,2
2024-06-14 10:25:04.335,-4.025,-6.37,1.19,0.00732,0.013176,-1.000156,2
2024-06-14 10:25:04.340,-3.85,-7.245,1.295,0.01098,0.019031999999999997,-1.00406,2
2024-06-14 10:25:04.345,-3.99,-8.785,1.225,0.00122,0.016592000000000003,-1.004548,2
2024-06-14 10:25:04.350,-3.745,-11.165,1.47,0.002684,0.01586,-1.003328,2
2024-06-14 10:25:04.354,-3.605,-9.59,1.645,-0.0029280000000000005,0.00122,-1.0060120000000001,2
2024-06-14 10:25:04.359,-7.0,-21.63,2.0300000000000002,-0.015616,0.008539999999999999,-0.9921040000000001,2
2024-06-14 10:25:04.364,-4.865,-18.235,2.205,0.0,-0.0002440000000000003,-1.017236,2
2024-06-14 10:25:04.369,-6.3,-21.35,2.38,0.013663999999999999,0.009515999999999998,-1.015528,2
2024-06-14 10:25:04.374,-6.335,-25.865000000000002,2.625,0.014395999999999999,0.015127999999999999,-1.0218720000000001,2
2024-06-14 10:25:04.379,-2.45,-31.009999999999998,3.2199999999999998,0.02196,0.010003999999999999,-1.0291919999999999,2
2024-06-14 10:25:04.383,-7.805,-38.325,2.94,0.015372,0.011712,-1.040172,2
2024-06-14 10:25:04.388,-7.035,-48.370000000000005,3.01,0.022448,-0.005124,-1.045052,2
2024-06-14 10:25:04.393,-8.225,-58.38,3.325,0.02318,-0.0014639999999999992,-1.061644,2
2024-06-14 10:25:04.398,-9.31,-65.485,3.675,0.036356,-0.011712,-1.080188,2
2024-06-14 10:25:04.403,-10.675,-71.47,4.095,0.035624,0.002928,-1.1040999999999999,2
2024-06-14 10:25:04.407,-12.145,-73.60499999999999,4.445,0.049532,0.0060999999999999995,-1.137528,2
2024-06-14 10:25:04.412,-11.690000000000001,-142.66000000000003,4.654999999999999,0.06588,0.062464,-1.130696,2
2024-06-14 10:25:04.417,-16.73,-79.41499999999999,3.5,0.057583999999999996,0.013908,-1.231224,2
2024-06-14 10:25:04.422,-9.379999999999999,-71.64500000000001,4.9,0.0549,-0.042944,-1.246352,2
2024-06-14 10:25:04.427,4.27,-62.05500000000001,11.27,0.0732,-0.024155999999999997,-1.4935239999999999,2
2024-06-14 10:25:04.431,11.025,-59.605,10.15,0.051727999999999996,0.058316,-1.430084,2
2024-06-14 10:25:04.436,8.084999999999999,-65.8,8.715,0.045628,0.031964,-1.437892,2
2024-06-14 10:25:04.441,8.68,-75.63499999999999,8.469999999999999,0.052216,0.009272,-1.454728,2
2024-06-14 10:25:04.446,10.675,-84.14,8.504999999999999,0.062708,0.014152,-1.48962,2
2024-06-14 10:25:04.451,13.719999999999999,-87.535,8.925,0.060024,0.021228,-1.479372,2
2024-06-14 10:25:04.456,12.739999999999998,-98.315,8.89,0.052947999999999995,0.12663599999999997,-1.5750199999999999,2
2024-06-14 10:25:04.460,9.905000000000001,-120.12,6.51,0.10369999999999999,0.079544,-1.568432,2
2024-06-14 10:25:04.465,9.94,-123.165,5.145,0.049288,0.08295999999999999,-1.3232119999999998,3
2024-06-14 10:25:04.470,15.75,-130.13,3.7800000000000002,0.06490399999999999,0.119804,-1.464,3
2024-06-14 10:25:04.475,19.145,-142.59,1.6099999999999999,0.060511999999999996,0.139812,-1.508896,3
2024-06-14 10:25:04.480,24.045,-155.19,0.13999999999999996,0.05782799999999999,0.07808,-1.495964,3
2024-06-14 10:25:04.484,30.205000000000002,-169.925,-0.28,0.048556,0.08588799999999999,-1.4396,3
2024-06-14 10:25:04.489,30.590000000000003,-187.32,-0.5249999999999999,0.066612,0.12370799999999998,-1.4910839999999999,3
2024-06-14 10:25:04.494,32.269999999999996,-207.095,-1.645,0.038552,0.078568,-1.6555399999999998,3
2024-06-14 10:25:04.499,36.96,-221.865,-2.4850000000000003,0.049776,0.04196799999999999,-1.6826240000000001,3
2024-06-14 10:25:04.504,33.74,-243.985,-2.835,0.045384,0.051972000000000004,-1.849764,3
2024-06-14 10:25:04.508,31.185000000000002,-266.66499999999996,-2.7649999999999997,0.014152,-0.0041480000000000015,-1.978596,3
2024-06-14 10:25:04.513,27.23,-292.88,-2.065,-0.0029279999999999996,-0.021472,-2.118896,3
2024-06-14 10:25:04.518,26.005,-320.075,-0.875,-0.03294,-0.033184,-2.283352,3
2024-06-14 10:25:04.523,24.22,-347.725,-0.77,-0.018056,0.068564,-2.4309719999999997,3
2024-06-14 10:25:04.528,20.3,-374.85,-1.9249999999999998,-0.020252,0.051484,-2.577372,3
2024-06-14 10:25:04.532,21.77,-399.385,-2.31,0.0060999999999999995,-0.037332,-2.8313759999999997,3
2024-06-14 10:25:04.537,24.009999999999998,-426.15999999999997,-2.17,0.02928,-0.017568,-3.033652,3
2024-06-14 10:25:04.542,27.615000000000002,-447.78999999999996,-2.1,0.0732,-0.113216,-3.388184,3
2024-06-14 10:25:04.547,29.4,-474.005,-0.56,0.016835999999999997,-0.11907199999999998,-3.5563,3
2024-06-14 10:25:04.552,32.095,-499.905,-0.665,-0.005611999999999999,-0.078812,-3.9398679999999997,3
2024-06-14 10:25:04.557,31.815,-530.46,0.315,-0.08637600000000001,-0.018056,-4.016728,3
2024-06-14 10:25:04.561,26.95,-556.1500000000001,-0.525,-0.044896,-0.075884,-4.213636,3
2024-06-14 10:25:04.566,16.17,-581.5250000000001,3.64,-0.16835999999999998,-0.20910800000000002,-4.142875999999999,3
2024-06-14 10:25:04.571,2.73,-591.395,8.05,-0.12370799999999998,-0.256444,-4.412495999999999,3
2024-06-14 10:25:04.576,0.6299999999999999,-605.885,12.88,-0.045384,-0.41358,-4.8236360000000005,3
2024-06-14 10:25:04.581,-12.285,-577.5699999999999,16.205,-0.15298799999999999,-0.540216,-5.086180000000001,3
2024-06-14 10:25:04.585,-15.75,-564.76,23.52,-0.832772,-0.724924,-5.140592,3
2024-06-14 10:25:04.590,-27.93,-541.0999999999999,30.520000000000003,-1.7053159999999998,-0.761036,-4.433479999999999,3
2024-06-14 10:25:04.595,-24.009999999999998,-510.37,38.15,-2.656672,-0.814228,-3.318156,3
2024-06-14 10:25:04.600,-27.72,-482.195,48.370000000000005,-3.039996,-0.74786,-1.894904,3
2024-06-14 10:25:04.605,-53.864999999999995,-495.25,62.614999999999995,-3.446256,-0.730048,-0.994056,3
2024-06-14 10:25:04.609,-122.78,-532.735,78.08500000000001,-2.7354839999999996,-0.7517640000000001,-0.233264,3
2024-06-14 10:25:04.614,-110.005,-387.8,75.81,-2.477576,-0.867176,-1.114592,3
2024-06-14 10:25:04.619,-58.275,-227.745,66.64,-3.1009960000000003,-1.125572,-2.403644,4
2024-06-14 10:25:04.624,3.1149999999999998,-80.22,46.269999999999996,-2.7415839999999996,-1.021628,-1.703852,4
2024-06-14 10:25:04.629,-4.445,10.254999999999999,23.695,-2.541748,-0.630496,-1.612352,4
2024-06-14 10:25:04.634,-14.875,61.39,9.555,-2.328736,-0.31476,-1.6230879999999999,4
2024-06-14 10:25:04.638,-45.36,80.465,-0.2450000000000001,-1.94834,-0.203008,-1.327604,4
2024-06-14 10:25:04.643,-77.21000000000001,83.86,-8.085,-1.77632,-0.16958,-1.1809599999999998,4
2024-06-14 10:25:04.648,-101.675,82.38999999999999,-13.754999999999999,-1.723128,-0.217892,-0.906948,4
2024-06-14 10:25:04.653,-109.48,86.065,-16.555,-1.7916919999999998,-0.315492,-0.687592,4
2024-06-14 10:25:04.658,-100.52,99.96000000000001,-17.045,-1.865624,-0.389668,-0.476776,4
2024-06-14 10:25:04.662,-77.875,121.695,-16.380000000000003,-1.918816,-0.404552,-0.364048,4
2024-06-14 10:25:04.667,-49.63,147.07,-16.17,-1.9136920000000002,-0.357948,-0.244,4
2024-06-14 10:25:04.672,-25.515,173.565,-16.555,-1.8714799999999998,-0.245952,-0.226432,4
2024-06-14 10:25:04.677,-10.885,199.04500000000002,-18.655,-1.790228,-0.11346,-0.223992,4
2024-06-14 10:25:04.682,-4.97,221.69,-21.98,-1.6850640000000001,-0.006832,-0.236924,4
2024-06-14 10:25:04.686,-5.355,241.29000000000002,-26.46,-1.5591599999999999,0.06953999999999999,-0.293288,4
2024-06-14 10:25:04.691,-8.435,258.15999999999997,-31.43,-1.43716,0.10369999999999999,-0.35087199999999996,4
2024-06-14 10:25:04.696,-11.375,272.78999999999996,-36.295,-1.333216,0.107116,-0.407724,4
2024-06-14 10:25:04.701,-12.635,285.95000000000005,-40.39,-1.234396,0.09638,-0.460184,4
2024-06-14 10:25:04.706,-11.024999999999999,297.64,-43.260000000000005,-1.1287439999999997,0.061244,-0.52704,4
2024-06-14 10:25:04.710,-7.63,308.385,-45.64,-1.016016,0.034648,-0.61488,4
2024-06-14 10:25:04.715,-2.59,318.01,-47.565,-0.891088,0.0068319999999999995,-0.6707559999999999,4
2024-06-14 10:25:04.720,2.2750000000000004,327.635,-49.385000000000005,-0.818376,0.00122,-0.712236,4
2024-06-14 10:25:04.725,6.475,338.38,-50.785,-0.7366360000000001,0.01464,-0.7522519999999999,4
2024-06-14 10:25:04.730,9.975000000000001,348.495,-51.38,-0.654652,0.020984000000000003,-0.8288679999999999,4
2024-06-14 10:25:04.735,12.145,356.58000000000004,-51.31,-0.5570519999999999,0.01342,-0.9269559999999999,4
2024-06-14 10:25:04.739,11.620000000000001,365.68,-52.325,-0.46652799999999994,-0.013664000000000003,-1.029192,4
2024-06-14 10:25:04.744,10.745000000000001,373.975,-53.2,-0.383812,-0.024399999999999998,-1.097512,4
2024-06-14 10:25:04.749,10.045,379.505,-52.99,-0.305,-0.04148,-1.169004,4
2024-06-14 10:25:04.754,9.765,381.99,-52.254999999999995,-0.216184,-0.04953200000000001,-1.238544,4
2024-06-14 10:25:04.759,9.695,382.34000000000003,-51.275000000000006,-0.143228,-0.066612,-1.30662,4
2024-06-14 10:25:04.763,8.785,380.87,-50.015,-0.07686,-0.078812,-1.3705479999999999,4
2024-06-14 10:25:04.768,7.3149999999999995,378.41999999999996,-48.754999999999995,-0.020739999999999998,-0.093208,-1.429352,4
2024-06-14 10:25:04.773,5.39,375.235,-47.18,0.024887999999999997,-0.11834,-1.489864,4
2024-06-14 10:25:04.778,3.85,372.12,-45.150000000000006,0.055875999999999995,-0.149084,-1.5337839999999998,4
2024-06-14 10:25:04.783,3.2199999999999998,369.005,-42.455,0.08247199999999999,-0.183,-1.5816080000000001,4
2024-06-14 10:25:04.787,4.025,366.73,-38.955,0.113948,-0.21838000000000002,-1.634556,4
2024-06-14 10:25:04.792,5.8100000000000005,365.435,-34.72,0.137372,-0.242048,-1.6950679999999998,4
2024-06-14 10:25:04.797,7.0,364.735,-30.310000000000002,0.176412,-0.24424400000000002,-1.742404,4
2024-06-14 10:25:04.802,8.785,364.945,-26.04,0.21667199999999998,-0.239852,-1.835124,4
2024-06-14 10:25:04.807,9.135,365.12,-22.505000000000003,0.28059999999999996,-0.229604,-1.90686,4
2024-06-14 10:25:04.809,11.795000000000002,364.35,-19.705,0.273524,-0.26571599999999995,-2.01178,4
2024-06-14 10:25:04.813,10.08,363.825,-17.675,0.34038,-0.17202,-1.998116,4
2024-06-14 10:25:04.818,10.605,362.985,-17.009999999999998,0.364292,-0.241316,-2.08498,4
2024-06-14 10:25:04.823,9.485,360.535,-16.310000000000002,0.424316,-0.22472399999999998,-2.13988,4
2024-06-14 10:25:04.828,12.04,358.05,-15.89,0.469944,-0.25839599999999996,-2.162084,4
2024-06-14 10:25:04.833,17.080000000000002,357.455,-15.645,0.5333840000000001,-0.292312,-2.191364,4
2024-06-14 10:25:04.838,23.765,357.63,-15.295,0.5851120000000001,-0.29499600000000004,-2.1996599999999997,4
2024-06-14 10:25:04.842,30.240000000000002,358.61,-14.945,0.649772,-0.288652,-2.210884,4
2024-06-14 10:25:04.847,36.715,359.555,-14.175,0.7090639999999999,-0.286212,-2.2094199999999997,4
2024-06-14 10:25:04.852,42.525,360.29,-13.09,0.762744,-0.272304,-2.2213760000000002,4
2024-06-14 10:25:04.857,45.815,359.41499999999996,-11.795,0.81618,-0.25546800000000003,-2.228208,4
2024-06-14 10:25:04.862,46.69,356.72,-9.59,0.8630279999999999,-0.24278,-2.241628,4
2024-06-14 10:25:04.867,45.465,352.16999999999996,-6.3,0.911584,-0.23936400000000002,-2.268956,4
2024-06-14 10:25:04.871,43.260000000000005,346.255,-1.7850000000000001,0.98088,-0.24204799999999999,-2.30214,4
2024-06-14 10:25:04.876,40.18,339.605,3.85,1.0772599999999999,-0.258884,-2.329712,4
2024-06-14 10:25:04.881,37.94,332.85,10.57,1.2016999999999998,-0.273524,-2.368996,4
2024-06-14 10:25:04.886,38.045,326.585,18.34,1.3468799999999999,-0.27669599999999994,-2.3948599999999995,4
2024-06-14 10:25:04.891,41.335,321.055,26.634999999999998,1.498648,-0.257664,-2.3924199999999995,4
2024-06-14 10:25:04.896,46.62,315.595,35.595,1.666764,-0.224236,-2.3650919999999998,4
2024-06-14 10:25:04.900,51.415,309.71500000000003,44.485,1.849276,-0.173728,-2.3436199999999996,4
2024-06-14 10:25:04.905,53.9,302.08500000000004,52.815,2.03008,-0.10272400000000001,-2.331664,4
2024-06-14 10:25:04.910,53.55,291.935,60.44499999999999,2.2325999999999997,-0.038551999999999996,-2.3228800000000005,4
2024-06-14 10:25:04.915,50.435,278.145,67.095,2.463424,-0.002928,-2.332396,4
2024-06-14 10:25:04.920,47.285,261.345,73.745,2.757688,-0.005368,-2.286524,4
2024-06-14 10:25:04.925,47.18,241.60500000000002,81.55,3.03536,-0.007076000000000001,-2.162084,4
2024-06-14 10:25:04.929,51.135,220.04500000000002,90.16,3.2859480000000003,-0.011956,-2.0866879999999997,4
2024-06-14 10:25:04.934,54.285,195.23,98.77000000000001,3.530436,0.025376000000000003,-2.007876,4
2024-06-14 10:25:04.939,51.730000000000004,168.98000000000002,106.785,3.7390559999999997,0.082228,-1.906372,4
2024-06-14 10:25:04.944,40.04,140.98000000000002,113.715,3.8971679999999997,0.134444,-1.8392719999999998,4
2024-06-14 10:25:04.949,21.7,112.66499999999999,119.42,4.0321,0.1647,-1.763388,4
2024-06-14 10:25:04.954,2.17,85.4,123.58500000000001,4.125552,0.161528,-1.645292,4
2024-06-14 10:25:04.958,-12.600000000000001,58.345,126.21000000000001,4.20412,0.11297199999999999,-1.657248,4
2024-06-14 10:25:04.963,-21.945,31.009999999999998,126.945,4.278051999999999,0.08784,-1.5679439999999998,4
2024-06-14 10:25:04.968,-24.955,3.3599999999999994,125.055,4.265608,0.111264,-1.521828,4
2024-06-14 10:25:04.973,-25.305,-24.185,119.175,4.20534,0.18348799999999998,-1.4888879999999998,4
2024-06-14 10:25:04.978,-26.354999999999997,-51.38,108.71000000000001,4.09676,0.275964,-1.4827880000000002,4
2024-06-14 10:25:04.983,-22.855,-77.805,94.15,3.91132,0.349408,-1.553792,4
2024-06-14 10:25:04.987,-25.445,-103.46000000000001,75.67,3.6673199999999997,0.477752,-1.561112,4
2024-06-14 10:25:04.992,-31.36,-124.005,53.864999999999995,3.3574399999999995,0.502396,-1.519876,4
2024-06-14 10:25:04.997,-41.16,-137.69,30.240000000000002,2.39242,0.749568,-1.122644,4
