time,gyroscope_x,gyroscope_y,gyroscope_z,accelerometer_x,accelerometer_y,accelerometer_z,phase
2024-06-14 12:34:59.049,-224.91,-602.735,54.495,7.785551999999999,1.8666,-8.372128,1
2024-06-14 12:34:59.054,-88.025,-36.33,32.305,-2.119872,0.16469999999999999,5.450716,1
2024-06-14 12:34:59.059,-129.99,-34.824999999999996,59.045,0.32208,-1.016992,0.563396,1
2024-06-14 12:34:59.063,-22.89,-42.35,48.72,-2.195512,-0.236192,-2.3687519999999997,1
2024-06-14 12:34:59.068,-38.535,-80.28999999999999,17.955000000000002,-2.036912,-0.18129199999999995,-1.942728,1
2024-06-14 12:34:59.073,-65.345,-105.14,-9.380000000000003,-0.16982400000000003,-0.4819,-1.913204,1
2024-06-14 12:34:59.078,-45.465,-162.225,-31.255,1.2807559999999998,-0.160308,-2.5976239999999997,1
2024-06-14 12:34:59.083,-34.51,-177.38,-47.74,1.584292,0.511668,-3.240808,1
2024-06-14 12:34:59.088,-7.455,-281.54,-45.92,0.8930400000000001,0.640744,-3.431128,1
2024-06-14 12:34:59.092,-30.695,-314.405,-22.189999999999998,0.136152,0.5167919999999999,-3.345728,1
2024-06-14 12:34:59.097,-16.73,-239.32999999999998,8.925,0.225456,0.606096,-2.9101879999999998,1
2024-06-14 12:34:59.102,-20.615,-198.275,38.22,0.454816,0.462136,-2.5171040000000002,1
2024-06-14 12:34:59.107,-35.175,-132.37,56.209999999999994,0.352824,0.076372,-1.960296,1
2024-06-14 12:34:59.112,-9.555,-115.255,48.44,0.19739600000000002,-0.20910799999999996,-1.65066,1
2024-06-14 12:34:59.116,-4.9350000000000005,-109.27,20.335,0.097844,-0.358192,-1.44204,1
2024-06-14 12:34:59.121,8.47,-100.24,-7.665,0.119316,-0.345016,-1.2932,1
2024-06-14 12:34:59.126,12.04,-89.565,-22.575000000000003,0.09930800000000001,-0.23228800000000002,-1.107028,2
2024-06-14 12:34:59.131,-0.14,-77.49000000000001,-21.21,0.06539199999999999,-0.06221999999999999,-1.02968,2
2024-06-14 12:34:59.136,0.385,-63.525,-10.955,0.054412,0.022448,-0.972828,2
2024-06-14 12:34:59.141,-5.81,-53.06,0.0,0.051972,0.025863999999999998,-1.017724,2
2024-06-14 12:34:59.145,-7.734999999999999,-45.255,5.215,0.08027599999999999,-0.032452,-1.066768,2
2024-06-14 12:34:59.150,-4.025,-42.0,3.115,0.08588799999999999,-0.083692,-1.135088,2
2024-06-14 12:34:59.155,-5.25,-39.83,-2.52,0.108824,-0.10125999999999999,-1.147532,2
2024-06-14 12:34:59.160,-3.255,-37.94,-6.93,0.088084,-0.077104,-1.133868,2
2024-06-14 12:34:59.165,-4.235,-36.435,-6.965,0.026596,-0.04392,-1.113616,2
2024-06-14 12:34:59.169,-5.390000000000001,-35.769999999999996,-4.795,0.0,-0.0036599999999999996,-1.087264,2
2024-06-14 12:34:59.174,-2.975,-35.105000000000004,-2.3449999999999998,-0.0009759999999999999,0.024156,-1.069696,2
2024-06-14 12:34:59.179,-1.645,-34.545,-1.33,-0.0026839999999999998,-0.016104,-1.058472,2
2024-06-14 12:34:59.184,0.03499999999999999,-35.035,-1.085,0.004636,-0.02806,-1.0477359999999998,2
2024-06-14 12:34:59.189,0.63,-35.105000000000004,-1.155,-0.00244,-0.034159999999999996,-1.041636,2
2024-06-14 12:34:59.194,0.455,-35.385,-0.63,-0.023424,-0.00732,-1.0409039999999998,2
2024-06-14 12:34:59.198,1.12,-35.56,-0.1050000000000001,-0.00732,-0.02318,-1.043588,2
2024-06-14 12:34:59.203,1.225,-35.0,0.525,-0.015127999999999999,-0.001464,-1.028948,2
2024-06-14 12:34:59.208,1.7149999999999999,-34.79,0.84,0.009759999999999998,-0.03172,-1.035292,2
2024-06-14 12:34:59.213,2.205,-34.825,1.2249999999999999,0.013176,-0.046116000000000004,-1.037488,2
2024-06-14 12:34:59.218,1.645,-35.07,1.225,-0.013663999999999999,-0.042456,-1.03578,2
2024-06-14 12:34:59.222,1.33,-35.91,1.435,-0.024399999999999998,-0.04758,-1.038708,2
2024-06-14 12:34:59.227,0.35,-37.03,1.61,-0.032695999999999996,-0.050996,-1.02846,2
2024-06-14 12:34:59.232,-0.56,-38.605000000000004,1.75,-0.015616,-0.052704,-1.0335839999999998,2
2024-06-14 12:34:59.237,-1.26,-39.515,1.96,-0.005612000000000001,-0.040504,-1.02602,2
2024-06-14 12:34:59.242,-1.47,-41.685,2.275,0.0012199999999999997,-0.050019999999999995,-1.020896,2
2024-06-14 12:34:59.247,-2.9050000000000002,-40.355000000000004,2.38,0.004148,-0.034892,-1.0091839999999999,2
2024-06-14 12:34:59.251,-3.29,-36.47,1.96,0.012688,-0.050996,-1.0047920000000001,2
2024-06-14 12:34:59.256,-4.83,-40.6,1.7850000000000001,0.009028,-0.040504,-0.999424,2
2024-06-14 12:34:59.261,-5.6,-40.775,2.2750000000000004,0.023667999999999998,-0.050264,-1.006012,2
2024-06-14 12:34:59.266,-5.845000000000001,-38.465,2.5549999999999997,0.028059999999999998,-0.034892000000000006,-1.002108,2
2024-06-14 12:34:59.271,-7.07,-38.92,2.835,0.038796,-0.040504,-1.004304,2
2024-06-14 12:34:59.275,-7.525,-38.535,2.94,0.043432,-0.036112,-0.99674,2
2024-06-14 12:34:59.280,-3.325,-24.325,3.1500000000000004,0.055631999999999994,-0.034159999999999996,-0.9921039999999999,2
2024-06-14 12:34:59.285,-7.56,-35.455,3.2199999999999998,0.048311999999999994,-0.043432,-0.991616,2
2024-06-14 12:34:59.290,-9.415,-34.825,3.605,0.041724,-0.04636,-0.9913719999999999,2
2024-06-14 12:34:59.295,-10.955,-32.27,3.6399999999999997,0.048068,-0.051972,-1.0030839999999999,2
2024-06-14 12:34:59.300,-13.545,-31.045,4.305,0.053192,-0.045627999999999995,-0.9925919999999999,2
2024-06-14 12:34:59.304,-14.245000000000001,-32.235,4.515000000000001,0.060756000000000004,-0.044652,-0.9862479999999999,2
2024-06-14 12:34:59.309,-58.239999999999995,-122.46499999999999,4.97,0.06466,-0.033915999999999995,-0.987468,2
2024-06-14 12:34:59.314,-8.05,-34.3,4.48,0.071004,-0.030987999999999998,-0.984296,2
2024-06-14 12:34:59.319,-17.009999999999998,-33.53,4.795,0.066368,-0.027572,-0.993568,2
2024-06-14 12:34:59.324,-17.5,-33.6,4.445,0.070516,-0.012199999999999999,-0.9882,2
2024-06-14 12:34:59.328,-9.17,-34.615,3.745,0.071004,0.000976,-0.9913719999999999,2
2024-06-14 12:34:59.333,-16.134999999999998,-34.405,3.045,0.078324,0.004636,-1.003816,2
2024-06-14 12:34:59.338,-9.030000000000001,-35.49,2.625,0.072224,0.010735999999999999,-1.0030839999999999,2
2024-06-14 12:34:59.343,-9.309999999999999,-36.295,2.135,0.072956,0.004636,-1.005768,2
2024-06-14 12:34:59.348,-10.115,-36.575,1.6800000000000002,0.073932,0.000732,-1.0126,2
2024-06-14 12:34:59.353,-6.37,-37.1,0.9450000000000001,0.076372,0.0,-1.003572,2
2024-06-14 12:34:59.357,-8.504999999999999,-37.24,0.45499999999999996,0.077592,-0.005368,-1.004548,2
2024-06-14 12:34:59.362,-6.93,-36.435,0.13999999999999999,0.084912,-0.013663999999999999,-1.0084520000000001,2
2024-06-14 12:34:59.367,-7.035,-37.415000000000006,0.42000000000000004,0.084668,-0.020496,-1.00772,2
2024-06-14 12:34:59.372,-10.184999999999999,-39.025000000000006,0.56,0.088084,-0.033916,-1.000156,2
2024-06-14 12:34:59.377,-7.945,-38.010000000000005,0.77,0.09662399999999999,-0.035136,-1.0018639999999999,2
2024-06-14 12:34:59.381,-9.8,-38.465,0.77,0.09759999999999999,-0.030988,-1.002108,2
2024-06-14 12:34:59.386,-8.190000000000001,-37.415,0.84,0.097112,-0.029036,-1.0084520000000001,2
2024-06-14 12:34:59.391,-9.205,-37.835,1.085,0.1037,-0.022935999999999998,-1.001376,2
2024-06-14 12:34:59.396,-9.485,-38.36,1.4,0.102236,-0.025376,-1.0116239999999999,2
2024-06-14 12:34:59.401,-8.015,-38.64,1.645,0.112484,-0.017324,-1.0128439999999999,2
2024-06-14 12:34:59.406,-8.575,-38.64,1.54,0.11541199999999999,-0.01098,-1.009916,2
2024-06-14 12:34:59.410,-7.175000000000001,-39.41,1.295,0.11223999999999999,-0.00976,-1.0140639999999999,2
2024-06-14 12:34:59.415,-5.25,-41.754999999999995,1.085,0.11834,0.005856,-1.0187,2
2024-06-14 12:34:59.420,-3.395,-43.085,0.945,0.116144,0.013176,-1.02846,2
2024-06-14 12:34:59.425,-0.84,-43.54,1.0150000000000001,0.124196,0.0026839999999999998,-1.0396839999999998,2
2024-06-14 12:34:59.430,1.4,-45.43,1.33,0.12688,0.004392,-1.038952,2
2024-06-14 12:34:59.433,9.940000000000001,-47.879999999999995,2.24,0.120536,0.019520000000000003,-1.0191879999999998,2
2024-06-14 12:34:59.437,25.025,-54.285,3.675,0.120048,0.011467999999999999,-1.04066,2
2024-06-14 12:34:59.442,30.695,-56.769999999999996,4.654999999999999,0.132492,-0.009760000000000001,-1.145092,2
2024-06-14 12:34:59.447,10.815,-51.835,4.13,0.136884,0.016591999999999996,-1.029924,2
2024-06-14 12:34:59.452,18.27,-52.64,4.725,0.147132,-0.040504,-1.088972,2
2024-06-14 12:34:59.457,16.45,-49.07,3.4299999999999997,0.14640000000000003,-0.022204,-1.067744,2
2024-06-14 12:34:59.462,18.41,-48.86,3.535,0.155184,-0.029768000000000003,-1.0862880000000001,2
2024-06-14 12:34:59.466,17.78,-49.21,3.185,0.159576,-0.027084,-1.0814080000000001,2
2024-06-14 12:34:59.471,17.955,-50.400000000000006,2.66,0.16348000000000001,-0.036356,-1.1004399999999999,2
2024-06-14 12:34:59.476,19.39,-51.31,2.8,0.16250399999999998,-0.057828,-1.123132,2
2024-06-14 12:34:59.481,17.535,-54.879999999999995,3.255,0.162748,-0.043432,-1.171688,2
2024-06-14 12:34:59.486,15.575,-58.59,3.6399999999999997,0.152256,-0.06661199999999999,-1.197796,2
2024-06-14 12:34:59.491,14.56,-62.685,4.550000000000001,0.15811199999999997,-0.073932,-1.2465959999999998,2
2024-06-14 12:34:59.495,10.5,-42.595,7.210000000000001,0.143716,-0.065636,-1.5472039999999998,2
2024-06-14 12:34:59.500,13.44,-78.57499999999999,6.859999999999999,0.155916,-0.013663999999999999,-1.041148,2
2024-06-14 12:34:59.505,9.239999999999998,-84.28,7.385,0.14883999999999997,-0.07246799999999999,-1.397144,2
2024-06-14 12:34:59.510,7.07,-91.875,8.155000000000001,0.155184,-0.08784,-1.41764,2
2024-06-14 12:34:59.515,4.27,-100.905,9.205,0.152256,-0.108336,-1.43106,2
2024-06-14 12:34:59.520,1.085,-110.285,10.43,0.15884399999999999,-0.083204,-1.389336,2
2024-06-14 12:34:59.524,-0.77,-117.67,11.025,0.16713999999999998,-0.062952,-1.38348,2
2024-06-14 12:34:59.529,-1.26,-124.285,11.2,0.150304,-0.02806,-1.416664,2
2024-06-14 12:34:59.534,0.8400000000000001,-131.635,11.235,0.19154000000000002,-0.029523999999999998,-1.434476,2
2024-06-14 12:34:59.539,3.045,-138.145,11.305,0.17665599999999998,-0.03416,-1.453752,2
2024-06-14 12:34:59.544,4.6899999999999995,-147.07,11.2,0.19495600000000002,-0.01952,-1.4559479999999998,3
2024-06-14 12:34:59.549,7.3149999999999995,-155.54000000000002,11.2,0.18129199999999998,-0.021471999999999998,-1.504504,3
2024-06-14 12:34:59.553,9.45,-165.06,11.375,0.18007199999999998,-0.030011999999999997,-1.569164,3
2024-06-14 12:34:59.558,10.675,-177.73000000000002,11.375,0.164212,-0.028548,-1.6809159999999999,3
2024-06-14 12:34:59.563,11.97,-190.995,11.899999999999999,0.178852,-0.067588,-1.774368,3
2024-06-14 12:34:59.568,11.620000000000001,-207.865,13.615,0.143228,-0.15201199999999998,-1.8846559999999999,3
2024-06-14 12:34:59.573,7.21,-226.695,16.835,0.163236,-0.25107599999999997,-1.89588,3
2024-06-14 12:34:59.578,1.295,-245.49,21.490000000000002,0.1708,-0.319152,-1.9424839999999999,3
2024-06-14 12:34:59.582,-6.335,-265.685,27.020000000000003,0.12834399999999999,-0.336476,-2.099376,3
2024-06-14 12:34:59.587,-15.924999999999999,-287.45500000000004,32.935,0.100528,-0.40967600000000004,-2.116944,3
2024-06-14 12:34:59.592,-21.42,-308.805,39.235,0.106384,-0.41724,-2.256512,3
2024-06-14 12:34:59.597,-27.37,-334.355,45.045,0.09028,-0.357704,-2.3704599999999996,3
2024-06-14 12:34:59.602,-34.16,-360.53499999999997,49.21,0.069296,-0.284016,-2.5100279999999997,3
2024-06-14 12:34:59.607,-37.205,-398.86,51.135000000000005,0.10004,-0.301096,-2.28872,3
2024-06-14 12:34:59.611,-34.16,-460.845,55.335,0.099552,-0.427,-3.179564,3
2024-06-14 12:34:59.616,-47.25,-449.05,59.290000000000006,0.08954799999999999,-0.33549999999999996,-3.248372,3
2024-06-14 12:34:59.621,-50.715,-486.745,61.040000000000006,0.16006399999999998,-0.330132,-3.5033519999999996,3
2024-06-14 12:34:59.626,-54.53,-491.855,61.32,0.141032,-0.32842399999999994,-3.559716,3
2024-06-14 12:34:59.631,-49.805,-514.5,59.36,0.23912,-0.274744,-3.817868,3
2024-06-14 12:34:59.636,-43.47,-527.6600000000001,55.72,0.338184,-0.242292,-4.098468,3
2024-06-14 12:34:59.640,-43.26,-536.76,53.41,0.338916,-0.410652,-4.08456,3
2024-06-14 12:34:59.645,-46.2,-536.585,54.705,0.343064,-0.63562,-3.993792,3
2024-06-14 12:34:59.650,-47.285,-535.5,56.875,0.11834,-0.75274,-3.93938,3
2024-06-14 12:34:59.655,-36.644999999999996,-536.2,61.215,-0.11224,-0.7412719999999999,-3.832264,3
2024-06-14 12:34:59.660,-23.275,-540.3299999999999,65.87,-0.515816,-0.587552,-3.677324,3
2024-06-14 12:34:59.665,-8.015,-544.74,68.03999999999999,-0.9752679999999999,-0.488732,-3.5062800000000003,3
2024-06-14 12:34:59.670,7.175,-542.0799999999999,70.77000000000001,-1.39568,-0.5960920000000001,-3.2605720000000002,3
2024-06-14 12:34:59.674,15.12,-531.79,76.545,-1.866844,-0.7017439999999999,-2.91336,4
2024-06-14 12:34:59.679,17.08,-510.72,85.53999999999999,-2.2216199999999997,-0.774456,-2.5951839999999997,4
2024-06-14 12:34:59.684,15.61,-497.7,96.03999999999999,-2.775744,-0.796416,-2.64008,4
2024-06-14 12:34:59.689,20.58,-475.51,111.545,-2.8416239999999995,-0.681004,-2.0664360000000004,4
2024-06-14 12:34:59.694,17.955,-432.46000000000004,123.06,-2.214056,-0.606584,-0.388448,4
2024-06-14 12:34:59.699,-2.4850000000000003,-343.315,120.785,-1.76046,-0.7317560000000001,0.337696,4
2024-06-14 12:34:59.703,49.385,-209.93,107.625,-2.114748,-0.5109360000000001,0.7993439999999999,4
2024-06-14 12:34:59.708,96.215,-113.61,90.685,-2.616168,-0.326228,-0.564128,4
2024-06-14 12:34:59.713,98.84,-20.16,65.205,-2.336788,-0.074664,-1.4356959999999999,4
2024-06-14 12:34:59.718,53.480000000000004,122.815,34.265,-2.029836,0.11443600000000001,-1.665788,4
2024-06-14 12:34:59.723,11.9,194.14499999999998,6.895,-1.825364,0.054655999999999996,-1.2356159999999998,4
2024-06-14 12:34:59.728,-29.155,232.085,-16.625,-1.702388,0.037087999999999996,-1.315404,4
2024-06-14 12:34:59.732,-63.349999999999994,247.905,-34.335,-1.554036,-0.10614000000000001,-1.2043840000000001,4
2024-06-14 12:34:59.737,-82.67,256.025,-43.715,-1.451556,-0.269376,-1.1760799999999998,4
2024-06-14 12:34:59.742,-88.445,258.3,-48.825,-1.301008,-0.503616,-1.028704,4
2024-06-14 12:34:59.747,-79.695,262.5,-50.959999999999994,-1.2688,-0.573156,-0.813496,4
2024-06-14 12:34:59.752,-59.605,267.155,-48.685,-1.248304,-0.6731959999999999,-0.626104,4
2024-06-14 12:34:59.757,-32.9,274.78499999999997,-43.644999999999996,-1.2114599999999998,-0.70516,-0.58438,4
2024-06-14 12:34:59.761,-2.835,284.2,-36.96,-1.129476,-0.703696,-0.600484,4
2024-06-14 12:34:59.766,28.28,292.70500000000004,-29.925,-1.035536,-0.664168,-0.653432,4
2024-06-14 12:34:59.771,55.965,298.16499999999996,-23.765,-0.945012,-0.5834039999999999,-0.706868,4
2024-06-14 12:34:59.776,77.63,302.19,-19.04,-0.862784,-0.474824,-0.74176,4
2024-06-14 12:34:59.781,92.53999999999999,305.05999999999995,-16.065,-0.8010520000000001,-0.359656,-0.77592,4
2024-06-14 12:34:59.786,100.275,307.44,-14.559999999999999,-0.7351719999999999,-0.25205200000000005,-0.807396,4
2024-06-14 12:34:59.790,101.045,309.53999999999996,-14.665,-0.675392,-0.149084,-0.854244,4
2024-06-14 12:34:59.795,95.83,311.64,-16.45,-0.617076,-0.054411999999999995,-0.895968,4
2024-06-14 12:34:59.800,86.38,314.44,-19.32,-0.576328,0.012932,-0.9330559999999999,4
2024-06-14 12:34:59.805,75.18,318.15,-23.345,-0.5477799999999999,0.055144,-0.97112,4
2024-06-14 12:34:59.810,63.980000000000004,322.77,-27.825,-0.51484,0.085156,-0.998448,4
2024-06-14 12:34:59.815,53.725,328.3,-32.760000000000005,-0.48409599999999997,0.099796,-1.0299239999999998,4
2024-06-14 12:34:59.819,45.394999999999996,333.445,-37.905,-0.451644,0.10003999999999999,-1.0704280000000002,4
2024-06-14 12:34:59.824,39.305,338.625,-43.26,-0.421632,0.086376,-1.1150799999999998,4
2024-06-14 12:34:59.829,36.435,343.66499999999996,-48.65,-0.405284,0.06344,-1.153388,4
2024-06-14 12:34:59.834,36.61,348.985,-54.285,-0.38283599999999995,0.040504,-1.1897440000000001,4
2024-06-14 12:34:59.839,38.815,354.27,-60.095,-0.372832,0.034648,-1.2492800000000002,4
2024-06-14 12:34:59.844,41.86,359.345,-66.00999999999999,-0.363316,0.035624,-1.31272,4
2024-06-14 12:34:59.848,44.835,363.72,-71.85499999999999,-0.351604,0.040992,-1.372744,4
2024-06-14 12:34:59.853,46.83,367.57000000000005,-77.77,-0.34428400000000003,0.051484,-1.43106,4
2024-06-14 12:34:59.858,47.32,371.245,-83.755,-0.32988799999999996,0.058803999999999995,-1.506456,4
2024-06-14 12:34:59.863,46.76,374.36,-89.565,-0.314516,0.058316,-1.6006399999999998,4
2024-06-14 12:34:59.868,44.94,376.95,-95.2,-0.299632,0.047091999999999995,-1.715808,4
2024-06-14 12:34:59.873,41.615,379.61,-100.905,-0.27425599999999994,0.041724,-1.8148719999999998,4
2024-06-14 12:34:59.878,37.45,382.83000000000004,-107.345,-0.247904,0.04074799999999999,-1.872212,4
2024-06-14 12:34:59.882,34.3,386.75,-113.68,-0.22326,0.021716,-1.9197920000000002,4
2024-06-14 12:34:59.887,32.095,391.58,-119.10499999999999,-0.18666,-0.010735999999999999,-1.992992,4
2024-06-14 12:34:59.892,30.695,395.605,-123.27000000000001,-0.142008,-0.04514,-2.106452,4
2024-06-14 12:34:59.897,29.505000000000003,398.44,-126.735,-0.101504,-0.071736,-2.221376,4
2024-06-14 12:34:59.902,28.455,400.26,-129.85000000000002,-0.062464000000000006,-0.101992,-2.3362999999999996,4
2024-06-14 12:34:59.907,27.125,401.835,-132.65,-0.024156,-0.12370799999999998,-2.456104,4
2024-06-14 12:34:59.911,24.675,402.64,-135.45,-0.0014639999999999996,-0.136152,-2.5890839999999997,4
2024-06-14 12:34:59.916,21.28,403.54999999999995,-138.075,0.040260000000000004,-0.157868,-2.711816,4
2024-06-14 12:34:59.921,18.2,404.985,-140.245,0.10491999999999999,-0.174948,-2.803316,4
2024-06-14 12:34:59.926,16.905,407.53999999999996,-141.75,0.224236,-0.172996,-2.83528,4
2024-06-14 12:34:59.931,19.634999999999998,412.055,-141.47,0.39161999999999997,-0.212524,-2.924096,4
2024-06-14 12:34:59.936,25.200000000000003,415.835,-137.79500000000002,0.563884,-0.258884,-3.094164,4
2024-06-14 12:34:59.940,30.695,419.15999999999997,-131.32,0.747616,-0.25742,-3.237636,4
2024-06-14 12:34:59.945,33.74,422.31,-124.38999999999999,0.959652,-0.233508,-3.317668,4
2024-06-14 12:34:59.950,32.83,424.13,-117.88,1.18584,-0.186416,-3.3764719999999997,4
2024-06-14 12:34:59.955,27.3,425.11,-111.51,1.417396,-0.148108,-3.443084,4
2024-06-14 12:34:59.960,15.61,424.54999999999995,-104.755,1.658712,-0.133712,-3.5028639999999998,4
2024-06-14 12:34:59.965,-4.13,420.98,-97.055,1.902956,-0.186172,-3.5355600000000003,4
2024-06-14 12:34:59.969,-31.745,413.455,-87.28999999999999,2.14354,-0.33306,-3.488956,4
2024-06-14 12:34:59.974,-61.81,401.20500000000004,-75.145,2.34728,-0.5077639999999999,-3.3557319999999997,4
2024-06-14 12:34:59.979,-83.965,385.70000000000005,-61.6,2.5193,-0.64294,-3.139548,4
2024-06-14 12:34:59.985,-90.055,367.85,-48.334999999999994,2.7276759999999998,-0.773724,-2.898232,4
2024-06-14 12:34:59.990,-79.72999999999999,346.08,-33.845,2.875784,-0.8818159999999999,-2.611288,4
2024-06-14 12:34:59.995,-56.56,323.08500000000004,-17.5,3.012668,-0.92842,-2.3177559999999997,4
2024-06-14 12:34:59.999,-24.884999999999998,301.56,0.45500000000000007,3.247396,-0.9725839999999999,-2.019832,4
2024-06-14 12:35:00.004,6.02,279.685,20.475,3.484808,-0.981856,-1.77144,4
2024-06-14 12:35:00.009,34.09,257.285,41.265,3.742228,-0.9037759999999999,-1.5676999999999999,4
2024-06-14 12:35:00.014,61.81,235.79500000000002,60.83,4.05162,-0.737124,-1.414224,4
2024-06-14 12:35:00.019,87.5,214.76,77.875,4.377848,-0.4884879999999999,-1.2914919999999999,4
2024-06-14 12:35:00.024,106.82,192.745,92.47,4.6813839999999995,-0.255956,-1.166808,4
2024-06-14 12:35:00.028,114.275,168.35000000000002,102.935,4.951248,0.010979999999999997,-1.108492,4
2024-06-14 12:35:00.033,107.205,139.09,109.69,5.162796,0.30134,-1.1101999999999999,4
2024-06-14 12:35:00.038,83.125,102.83,114.41499999999999,5.258444,0.567544,-1.143872,4
2024-06-14 12:35:00.043,43.19,60.2,113.295,5.266252,0.7978799999999999,-1.140456,4
2024-06-14 12:35:00.048,0.6299999999999999,13.055,104.475,5.0561679999999996,0.846924,-1.0821399999999999,4
2024-06-14 12:35:00.053,-43.05,-30.660000000000004,97.86000000000001,4.762148,0.7688439999999999,-1.095804,4
2024-06-14 12:35:00.057,-77.875,-69.475,90.09,4.422988,0.6197600000000001,-1.177788,4
2024-06-14 12:35:00.062,-101.5,-101.78,81.795,4.056744,0.425048,-1.266116,4
2024-06-14 12:35:00.067,-114.17,-124.705,73.955,3.7090439999999996,0.19446799999999997,-1.342244,4
2024-06-14 12:35:00.072,-115.92,-138.18,66.78,3.405264,-0.018055999999999996,-1.432036,4
2024-06-14 12:35:00.077,-130.48,-301.35,56.42,2.265296,-0.555588,-7.4488319999999995,4
