time,gyroscope_x,gyroscope_y,gyroscope_z,accelerometer_x,accelerometer_y,accelerometer_z,phase
2024-06-14 12:18:31.572,-111.65,-506.38,83.02000000000001,4.10286,-0.657336,-6.509676,1
2024-06-14 12:18:31.577,-192.95499999999998,-59.815,76.545,-3.078304,-1.859036,2.313852,1
2024-06-14 12:18:31.582,-317.625,-91.42,89.63499999999999,-0.409432,0.11321599999999998,-1.802428,1
2024-06-14 12:18:31.586,-357.35,-174.57999999999998,80.85,-1.404952,-0.011467999999999992,-2.047892,1
2024-06-14 12:18:31.591,-332.64,-255.325,57.26,-0.06051200000000001,-0.272304,-2.10206,1
2024-06-14 12:18:31.596,-256.725,-336.41999999999996,17.43,0.205448,-0.39381599999999994,-2.0842479999999997,1
2024-06-14 12:18:31.601,-167.055,-323.29499999999996,-30.03,0.5185,-0.03172,-2.3355680000000003,2
2024-06-14 12:18:31.606,-101.91999999999999,-308.07,-60.795,0.481656,0.32842399999999994,-2.3838799999999996,2
2024-06-14 12:18:31.611,-65.03,-285.495,-70.10499999999999,0.321104,0.38893599999999995,-2.408768,2
2024-06-14 12:18:31.615,-51.345,-271.355,-64.365,0.171532,0.43529599999999996,-2.477088,2
2024-06-14 12:18:31.620,-48.370000000000005,-227.815,-44.275,0.174704,0.587552,-2.32898,2
2024-06-14 12:18:31.625,-36.925,-199.15,-20.335,0.189344,0.506544,-2.146956,2
2024-06-14 12:18:31.630,-23.73,-176.155,-10.149999999999999,0.210328,0.26108000000000003,-1.885144,2
2024-06-14 12:18:31.635,-3.7449999999999997,-153.51,-11.2,0.174948,0.1586,-1.713368,2
2024-06-14 12:18:31.640,5.495,-132.16,-17.465,0.108824,-0.014639999999999997,-1.649928,2
2024-06-14 12:18:31.644,8.295,-110.91499999999999,-25.795,0.040992,-0.066856,-1.45668,2
2024-06-14 12:18:31.649,5.67,-104.965,-31.990000000000002,0.016348,-0.04758,-1.380796,2
2024-06-14 12:18:31.654,0.875,-79.975,-34.685,0.020008,0.066856,-1.345416,2
2024-06-14 12:18:31.659,-0.315,-62.33500000000001,-31.29,0.018544,0.096624,-1.225124,2
2024-06-14 12:18:31.664,0.98,-48.894999999999996,-25.689999999999998,0.017568,0.157868,-1.165832,2
2024-06-14 12:18:31.668,2.9050000000000002,-38.325,-18.725,-0.02562,0.154696,-1.176568,2
2024-06-14 12:18:31.673,3.92,-35.63,-14.315000000000001,0.050263999999999996,0.04636,-1.0748199999999999,2
2024-06-14 12:18:31.678,3.2199999999999998,-31.255,-12.74,0.080276,0.0034160000000000015,-1.071892,2
2024-06-14 12:18:31.683,0.63,-25.305,-11.655000000000001,0.024155999999999997,0.053924,-1.1433839999999997,2
2024-06-14 12:18:31.688,0.42,-19.424999999999997,-9.45,0.04221199999999999,0.019276,-1.225612,2
2024-06-14 12:18:31.693,-0.17500000000000002,-19.6,-7.105,0.03904,0.055632,-1.167052,2
2024-06-14 12:18:31.697,0.455,-17.43,-4.585,0.013908,0.042455999999999994,-1.146312,2
2024-06-14 12:18:31.702,2.24,-16.345,-2.73,-0.024888,0.06075599999999999,-1.131672,2
2024-06-14 12:18:31.707,3.955,-16.065,-1.085,-0.022203999999999998,0.039772,-1.116544,2
2024-06-14 12:18:31.712,5.04,-15.505,-0.45499999999999996,-0.01586,0.0366,-1.106296,2
2024-06-14 12:18:31.717,5.46,-14.315000000000001,-0.245,-0.022935999999999998,0.023667999999999998,-1.102636,2
2024-06-14 12:18:31.722,5.495,-14.42,0.0,-0.02928,0.020496,-1.102636,2
2024-06-14 12:18:31.726,4.970000000000001,-15.469999999999999,0.7,-0.038796,0.02074,-1.1077599999999999,2
2024-06-14 12:18:31.731,4.655,-18.375,1.47,-0.053924,0.031476,-1.109956,2
2024-06-14 12:18:31.736,4.655,-22.225,2.03,-0.061488,0.033916,-1.1138599999999999,2
2024-06-14 12:18:31.741,5.109999999999999,-24.78,2.3099999999999996,-0.06490399999999999,0.045871999999999996,-1.117764,2
2024-06-14 12:18:31.746,5.32,-28.909999999999997,2.31,-0.038064,0.032696,-1.102636,2
2024-06-14 12:18:31.751,6.265000000000001,-30.765,2.485,-0.07759200000000001,0.09662399999999999,-1.128256,2
2024-06-14 12:18:31.755,8.26,-31.045,3.01,-0.089548,0.040992,-1.1250840000000002,2
2024-06-14 12:18:31.760,9.870000000000001,-33.425,2.9400000000000004,-0.030011999999999997,0.044652,-1.0997080000000001,2
2024-06-14 12:18:31.765,11.2,-35.84,2.8,-0.12395199999999999,0.09882,-1.151436,2
2024-06-14 12:18:31.770,13.055,-36.75,2.73,-0.049288,0.018544,-1.122888,2
2024-06-14 12:18:31.775,17.990000000000002,-59.22,3.01,-0.03782,0.047091999999999995,-1.106784,2
2024-06-14 12:18:31.780,14.594999999999999,-41.790000000000006,1.82,0.07466400000000001,0.007807999999999999,-1.033584,2
2024-06-14 12:18:31.784,14.035,-43.225,2.17,-0.067588,0.042943999999999996,-1.125572,2
2024-06-14 12:18:31.789,15.61,-45.15,1.8900000000000001,-0.099308,0.07759200000000001,-1.150216,2
2024-06-14 12:18:31.794,15.96,-56.839999999999996,2.205,-0.06685600000000001,0.033184,-1.115812,2
2024-06-14 12:18:31.799,15.504999999999999,-47.565,1.82,0.05563200000000001,-0.035624,-1.0567639999999998,2
2024-06-14 12:18:31.804,13.58,-50.155,2.17,-0.148108,0.068076,-1.150704,2
2024-06-14 12:18:31.808,13.09,-51.275000000000006,1.75,-0.014151999999999998,-0.011956,-1.1367960000000001,2
2024-06-14 12:18:31.813,11.025,-52.535,1.4700000000000002,-0.058316,0.033184000000000005,-1.154364,2
2024-06-14 12:18:31.818,8.225,-53.935,1.26,0.037332,-0.011711999999999997,-1.052372,2
2024-06-14 12:18:31.823,7.140000000000001,-52.08,1.505,-0.004148000000000001,-0.009028,-1.0911680000000001,2
2024-06-14 12:18:31.828,3.675,-49.735,1.68,0.048799999999999996,-0.0183,-1.052616,2
2024-06-14 12:18:31.833,2.5549999999999997,-53.129999999999995,1.645,0.050019999999999995,-0.031964,-1.059692,2
2024-06-14 12:18:31.837,0.45499999999999996,-52.989999999999995,1.4700000000000002,-0.008052,0.015616,-1.1016599999999999,2
2024-06-14 12:18:31.842,18.935000000000002,-50.504999999999995,2.9050000000000002,0.049288,-0.002196,-1.0421239999999998,2
2024-06-14 12:18:31.847,-4.165,-53.585,0.945,0.046116,-0.0029279999999999996,-1.0692080000000002,2
2024-06-14 12:18:31.852,-1.085,-52.36,1.2599999999999998,0.039284,0.0026839999999999993,-1.0689640000000002,2
2024-06-14 12:18:31.857,-4.97,-53.515,1.645,0.043188,0.01342,-1.069452,2
2024-06-14 12:18:31.862,-2.73,-52.709999999999994,1.68,0.042456,0.019276,-1.0826280000000001,2
2024-06-14 12:18:31.866,-2.7649999999999997,-52.185,1.75,0.04758,0.023912000000000003,-1.0899480000000001,2
2024-06-14 12:18:31.871,-3.71,-54.495000000000005,1.7149999999999999,0.048799999999999996,0.015127999999999999,-1.097024,2
2024-06-14 12:18:31.876,-1.96,-57.155,1.8900000000000001,0.05831599999999999,0.022448000000000003,-1.105564,2
2024-06-14 12:18:31.881,-2.24,-58.415,2.0300000000000002,0.05538800000000001,0.020007999999999998,-1.0994639999999998,2
2024-06-14 12:18:31.886,-1.085,-60.515,2.205,0.06417199999999999,0.02196,-1.104832,2
2024-06-14 12:18:31.891,0.245,-61.915,2.17,0.07539599999999999,0.01464,-1.098976,2
2024-06-14 12:18:31.895,-3.745,-63.735,3.395,0.034648000000000005,0.036843999999999995,-1.15778,2
2024-06-14 12:18:31.900,6.859999999999999,-60.760000000000005,0.84,0.128588,-0.033427999999999986,-1.034316,2
2024-06-14 12:18:31.905,1.61,-64.19,1.1900000000000002,0.101748,0.102236,-1.097512,2
2024-06-14 12:18:31.910,7.244999999999999,-60.935,2.03,0.086864,0.004879999999999999,-1.098732,2
2024-06-14 12:18:31.915,10.92,-62.019999999999996,1.54,0.091256,0.044164,-1.119716,2
2024-06-14 12:18:31.920,14.245000000000001,-61.775000000000006,1.3650000000000002,0.108092,0.01586,-1.125328,2
2024-06-14 12:18:31.924,13.16,-59.989999999999995,1.085,0.107116,0.019275999999999998,-1.1175199999999998,2
2024-06-14 12:18:31.929,7.42,-58.905,0.735,0.103212,0.006588,-1.110932,2
2024-06-14 12:18:31.934,10.85,-67.62,1.435,0.125904,0.021227999999999997,-1.203408,2
2024-06-14 12:18:31.939,11.62,-62.965,0.665,0.11956,0.015372,-1.125572,2
2024-06-14 12:18:31.944,13.125,-64.295,0.84,0.132736,0.005855999999999999,-1.135576,2
2024-06-14 12:18:31.949,18.165,-66.15,1.26,0.139812,-0.003172,-1.139968,2
2024-06-14 12:18:31.953,21.14,-69.265,1.8900000000000001,0.13444399999999998,-0.024399999999999998,-1.1372840000000002,2
2024-06-14 12:18:31.958,25.305,-71.4,3.2199999999999998,0.146644,-0.018056000000000003,-1.125816,2
2024-06-14 12:18:31.963,31.43,-72.52,4.445,0.152988,0.0075639999999999995,-1.1685159999999999,2
2024-06-14 12:18:31.968,25.445,-74.34,3.745,0.14932800000000002,-0.00024400000000000008,-1.1592440000000002,2
2024-06-14 12:18:31.973,21.875,-76.78999999999999,3.15,0.15494,-0.005856,-1.179252,2
2024-06-14 12:18:31.977,29.119999999999997,-73.22,3.57,0.155916,0.063928,-1.1675399999999998,2
2024-06-14 12:18:31.982,34.614999999999995,-77.49,3.08,0.18470799999999998,-0.05148400000000001,-1.25904,2
2024-06-14 12:18:31.987,31.605000000000004,-81.47999999999999,5.215,0.167628,0.009028000000000008,-1.190232,2
2024-06-14 12:18:31.992,34.125,-80.745,4.9350000000000005,0.189344,-0.028791999999999998,-1.282464,2
2024-06-14 12:18:31.997,33.004999999999995,-86.41499999999999,5.425000000000001,0.183,-0.025132,-1.2858800000000001,2
2024-06-14 12:18:32.002,30.835,-91.28,4.550000000000001,0.173728,0.002196000000000001,-1.245132,2
2024-06-14 12:18:32.006,32.305,-96.07499999999999,4.654999999999999,0.187148,-0.030256,-1.3114999999999999,2
2024-06-14 12:18:32.011,31.92,-103.6,4.97,0.189832,-0.065636,-1.33468,2
2024-06-14 12:18:32.016,31.815,-108.91999999999999,5.67,0.207888,-0.02928,-1.341756,2
2024-06-14 12:18:32.021,32.480000000000004,-114.59,5.8100000000000005,0.189832,-0.038551999999999996,-1.379332,2
2024-06-14 12:18:32.026,32.269999999999996,-122.815,6.23,0.20374,-0.044408,-1.400072,2
2024-06-14 12:18:32.031,32.34,-131.77499999999998,6.16,0.234972,-0.05245999999999999,-1.4015360000000001,2
2024-06-14 12:18:32.035,32.269999999999996,-137.97,6.6850000000000005,0.241316,-0.07198,-1.40788,2
2024-06-14 12:18:32.040,31.955,-144.305,6.405,0.227652,0.032208,-1.438136,2
2024-06-14 12:18:32.045,33.32,-152.495,5.5649999999999995,0.229116,0.0024399999999999986,-1.44814,2
2024-06-14 12:18:32.050,39.515,-160.755,5.915,0.24619599999999997,-0.048068,-1.485716,2
2024-06-14 12:18:32.055,43.715,-170.625,5.18,0.192028,0.05856,-1.505236,3
2024-06-14 12:18:32.060,47.775,-180.25,4.41,0.24863599999999997,-0.007076,-1.5128,3
2024-06-14 12:18:32.064,52.115,-191.135,3.675,0.21423199999999998,0.04074799999999999,-1.578924,3
2024-06-14 12:18:32.069,51.415,-203.56,2.87,0.23643599999999998,-0.018788,-1.579412,3
2024-06-14 12:18:32.074,53.620000000000005,-218.61,2.9749999999999996,0.21911199999999997,-0.034648,-1.6528559999999999,3
2024-06-14 12:18:32.079,63.91,-229.39,2.52,0.236436,0.006100000000000001,-1.6918959999999998,3
2024-06-14 12:18:32.084,64.82000000000001,-243.075,1.68,0.27449999999999997,0.009516,-1.798768,3
2024-06-14 12:18:32.089,67.69,-259.385,0.7,0.228384,0.01708,-1.857084,3
2024-06-14 12:18:32.093,67.69,-275.06500000000005,0.10499999999999998,0.2562,-0.006588000000000001,-1.964932,3
2024-06-14 12:18:32.098,70.175,-294.77,0.525,0.188612,-0.028791999999999998,-1.9490720000000001,3
2024-06-14 12:18:32.103,74.55000000000001,-315.14,1.4,0.234484,-0.07076,-2.011292,3
2024-06-14 12:18:32.108,74.83,-336.385,1.505,0.21789199999999997,-0.057095999999999994,-2.116456,3
2024-06-14 12:18:32.113,77.35,-358.225,2.1,0.214964,-0.136884,-2.233332,3
2024-06-14 12:18:32.117,81.235,-382.06,3.71,0.14884,-0.011955999999999998,-2.3711919999999997,3
2024-06-14 12:18:32.121,82.25,-405.895,2.975,0.211548,0.029524,-2.632516,3
2024-06-14 12:18:32.126,79.59,-432.28499999999997,1.9249999999999998,0.230824,0.0075639999999999995,-2.7288959999999998,3
2024-06-14 12:18:32.131,74.095,-454.33500000000004,-0.27999999999999997,0.263764,-0.019764,-3.0138879999999997,3
2024-06-14 12:18:32.136,66.64,-479.395,-0.42,0.309148,-0.049044000000000004,-3.1805399999999997,3
2024-06-14 12:18:32.141,52.01,-499.415,-1.4,0.454816,-0.007808000000000001,-3.522628,3
2024-06-14 12:18:32.146,49.28,-520.24,-6.335,0.528992,-0.243756,-3.75882,3
2024-06-14 12:18:32.150,51.835,-540.47,-3.92,0.33989199999999997,-0.426268,-3.71612,3
2024-06-14 12:18:32.155,52.045,-558.005,0.10499999999999998,0.17836399999999997,-0.105896,-4.068212,3
2024-06-14 12:18:32.160,23.17,-572.7049999999999,-0.14,0.284504,0.149572,-4.257068,3
2024-06-14 12:18:32.165,-9.45,-592.7249999999999,-6.825,0.078568,0.141764,-4.070652,3
2024-06-14 12:18:32.170,-26.634999999999998,-611.625,-15.54,-0.141032,-0.141032,-3.7644320000000002,3
2024-06-14 12:18:32.175,-22.61,-623.9449999999999,-20.229999999999997,-0.51606,-0.350384,-3.709532,3
2024-06-14 12:18:32.179,-9.695,-630.0350000000001,-20.72,-0.551928,-0.347456,-3.42088,3
2024-06-14 12:18:32.184,-1.4,-623.665,-22.435,-0.88206,-0.23375200000000002,-3.168828,3
2024-06-14 12:18:32.189,22.259999999999998,-606.76,-24.5,-1.185108,-0.212768,-2.7567120000000003,3
2024-06-14 12:18:32.194,34.65,-579.39,-24.604999999999997,-1.626992,-0.378932,-2.145492,3
2024-06-14 12:18:32.199,39.900000000000006,-514.22,-17.08,-2.102792,-0.46115999999999996,-1.403244,3
2024-06-14 12:18:32.204,45.08,-427.31500000000005,-5.39,-1.757288,-0.589016,-1.4183719999999997,3
2024-06-14 12:18:32.208,49.42,-351.47,-1.575,-2.47538,-0.490928,-1.5874639999999998,4
2024-06-14 12:18:32.213,40.739999999999995,-256.90000000000003,-11.445,-1.21756,-0.25571200000000005,-0.913048,4
2024-06-14 12:18:32.218,26.775,-131.075,-17.5,-1.7785159999999998,-0.027327999999999998,-1.8829479999999998,4
2024-06-14 12:18:32.223,3.9200000000000004,19.39,-25.06,-2.920924,0.442616,-1.7370359999999998,4
2024-06-14 12:18:32.228,-35.14,123.06,-38.29,-2.3467919999999998,0.383568,-1.530368,4
2024-06-14 12:18:32.233,-74.69,179.865,-38.394999999999996,-1.5411039999999998,0.059292,-1.9473639999999999,4
2024-06-14 12:18:32.237,-95.47999999999999,209.33499999999998,-28.14,-1.436184,-0.066368,-2.031056,4
2024-06-14 12:18:32.242,-99.64500000000001,225.68,-13.895,-1.4535079999999998,-0.191296,-1.715808,4
2024-06-14 12:18:32.247,-97.54499999999999,238.35000000000002,5.075,-1.35786,-0.29767999999999994,-1.436184,4
2024-06-14 12:18:32.252,-93.24000000000001,249.58499999999998,26.215,-1.252452,-0.33720799999999995,-1.293932,4
2024-06-14 12:18:32.257,-85.75,264.88,47.18,-1.198772,-0.35746,-1.1836440000000001,4
2024-06-14 12:18:32.262,-74.62,286.33500000000004,67.58500000000001,-1.175104,-0.38893599999999995,-1.09434,4
2024-06-14 12:18:32.266,-62.405,313.66999999999996,87.325,-1.140944,-0.358436,-1.043832,4
2024-06-14 12:18:32.271,-53.2,343.90999999999997,105.42,-1.104588,-0.2623,-1.042368,4
2024-06-14 12:18:32.276,-51.415,374.22,121.765,-1.065792,-0.12224399999999999,-1.0728680000000002,4
2024-06-14 12:18:32.281,-59.15,401.24,136.535,-1.0004,0.0366,-1.123376,4
2024-06-14 12:18:32.286,-75.775,423.745,149.765,-0.915976,0.171288,-1.179984,4
2024-06-14 12:18:32.291,-97.37,440.195,161.56,-0.804224,0.24424400000000002,-1.248304,4
2024-06-14 12:18:32.295,-120.4,450.59,171.815,-0.676856,0.239852,-1.2927119999999999,4
2024-06-14 12:18:32.300,-140.42000000000002,456.225,180.845,-0.582672,0.20008,-1.310524,4
2024-06-14 12:18:32.305,-153.055,459.34000000000003,188.335,-0.5094719999999999,0.11443599999999998,-1.307108,4
2024-06-14 12:18:32.310,-154.735,460.635,194.565,-0.42724399999999996,0.002440000000000001,-1.3122319999999998,4
2024-06-14 12:18:32.315,-145.53,460.425,198.8,-0.36648800000000004,-0.09028,-1.316136,4
2024-06-14 12:18:32.320,-127.47,460.495,200.375,-0.30988,-0.151768,-1.32614,4
2024-06-14 12:18:32.324,-104.965,457.975,198.905,-0.26108,-0.183244,-1.354444,4
2024-06-14 12:18:32.329,-81.55000000000001,453.495,193.83,-0.20495999999999998,-0.16104,-1.383724,4
2024-06-14 12:18:32.334,-60.760000000000005,446.985,185.115,-0.174704,-0.13224799999999998,-1.413004,4
2024-06-14 12:18:32.339,-43.855000000000004,438.655,172.79500000000002,-0.12614799999999998,-0.077104,-1.451556,4
2024-06-14 12:18:32.344,-32.235,430.53499999999997,157.39499999999998,-0.104432,-0.062708,-1.4952320000000001,4
2024-06-14 12:18:32.349,-24.08,423.99,140.175,-0.104676,-0.062708,-1.519876,4
2024-06-14 12:18:32.354,-16.975,421.19,122.36,-0.102236,-0.074908,-1.544276,4
2024-06-14 12:18:32.358,-9.94,420.525,105.0,-0.093696,-0.12980799999999998,-1.607716,4
2024-06-14 12:18:32.363,-0.5599999999999999,422.03,88.62,-0.074908,-0.18129199999999998,-1.6618840000000001,4
2024-06-14 12:18:32.368,9.555,422.695,73.185,-0.05367999999999999,-0.235948,-1.7138559999999998,4
2024-06-14 12:18:32.373,20.02,424.13,58.905,-0.030011999999999997,-0.277428,-1.7709519999999999,4
2024-06-14 12:18:32.378,29.82,424.06,45.71,-0.002196,-0.29890000000000005,-1.8151160000000002,4
2024-06-14 12:18:32.383,40.53,424.2,33.46,0.032452,-0.34843199999999996,-1.896368,4
2024-06-14 12:18:32.387,51.099999999999994,422.31,21.98,0.06954,-0.37088,-1.930528,4
2024-06-14 12:18:32.392,60.235,421.61,10.815000000000001,0.081984,-0.3782,-1.9746920000000001,4
2024-06-14 12:18:32.397,69.16,421.54,0.385,0.08662,-0.408212,-2.039352,4
2024-06-14 12:18:32.402,77.315,420.14,-8.469999999999999,0.09223199999999998,-0.429928,-2.10816,4
2024-06-14 12:18:32.407,86.345,420.35,-15.715,0.08710799999999999,-0.457012,-2.182824,4
2024-06-14 12:18:32.412,95.75999999999999,420.84000000000003,-20.825,0.08710799999999999,-0.47165199999999996,-2.27286,4
2024-06-14 12:18:32.416,105.0,421.575,-24.045,0.10858,-0.489464,-2.3643599999999996,4
2024-06-14 12:18:32.421,113.82,422.38,-26.145000000000003,0.149084,-0.496052,-2.4651319999999997,4
2024-06-14 12:18:32.426,121.59,422.1,-27.299999999999997,0.20617999999999997,-0.48531599999999997,-2.572248,4
2024-06-14 12:18:32.431,127.435,421.61,-29.119999999999997,0.300608,-0.461648,-2.674728,4
2024-06-14 12:18:32.436,129.815,419.96500000000003,-32.305,0.402112,-0.45628,-2.791848,4
2024-06-14 12:18:32.441,131.145,416.395,-38.5,0.547536,-0.40016,-2.8609,4
2024-06-14 12:18:32.445,127.96000000000001,411.88,-47.459999999999994,0.638792,-0.404308,-2.960452,4
2024-06-14 12:18:32.450,123.935,407.04999999999995,-58.45,0.773236,-0.421632,-3.027552,4
2024-06-14 12:18:32.455,120.89,402.32500000000005,-70.805,0.9237839999999999,-0.4697,-3.003884,4
2024-06-14 12:18:32.460,124.88,397.145,-82.74000000000001,1.003328,-0.445788,-2.8216159999999997,4
2024-06-14 12:18:32.465,162.505,393.33,-91.315,1.04554,-0.38552,-2.895304,4
2024-06-14 12:18:32.470,203.76999999999998,387.8,-96.67,1.3610319999999998,-0.274256,-3.029992,4
2024-06-14 12:18:32.474,223.72,379.225,-101.535,1.599664,-0.133712,-3.178344,4
2024-06-14 12:18:32.479,227.01,368.375,-106.785,1.9222320000000002,0.151524,-3.1439399999999997,4
2024-06-14 12:18:32.484,211.995,357.7,-113.82,2.1764799999999997,0.274988,-3.1036799999999998,4
2024-06-14 12:18:32.489,185.53500000000003,342.29999999999995,-120.85499999999999,2.501,0.39772,-3.033652,4
2024-06-14 12:18:32.494,154.56,324.765,-127.53999999999999,2.8145399999999996,0.40235600000000005,-2.8940839999999994,4
2024-06-14 12:18:32.499,127.32999999999998,302.225,-129.92000000000002,3.1292999999999997,0.269376,-2.713768,4
2024-06-14 12:18:32.503,109.47999999999999,276.22,-125.79,3.529948,0.11443600000000001,-2.5127119999999996,4
2024-06-14 12:18:32.508,95.795,248.465,-113.085,3.889116,-0.174948,-2.3736319999999997,4
2024-06-14 12:18:32.513,86.38,220.01,-90.02,4.283176,-0.34111199999999997,-2.220644,4
2024-06-14 12:18:32.518,82.07499999999999,195.615,-59.255,4.612576000000001,-0.40113599999999994,-2.027152,4
2024-06-14 12:18:32.523,79.24000000000001,171.43,-25.200000000000003,4.885123999999999,-0.38064,-1.833416,4
2024-06-14 12:18:32.528,77.69999999999999,146.16,8.854999999999999,5.169872,-0.249612,-1.681892,4
2024-06-14 12:18:32.532,80.395,120.435,37.345,5.47536,0.014883999999999998,-1.5464719999999998,4
2024-06-14 12:18:32.537,81.34,87.78,59.254999999999995,5.572471999999999,0.24936799999999998,-1.544276,4
2024-06-14 12:18:32.542,83.16,52.43,73.11500000000001,5.656651999999999,0.686372,-1.482056,4
2024-06-14 12:18:32.547,71.505,13.020000000000001,75.775,5.525379999999999,1.0060120000000001,-1.478396,4
2024-06-14 12:18:32.552,45.85,-27.265,70.49000000000001,5.33506,1.2841719999999999,-1.4903520000000001,4
2024-06-14 12:18:32.557,4.9,-66.675,58.205,5.04226,1.354932,-1.5189,4
2024-06-14 12:18:32.562,-42.035000000000004,-100.975,44.415,4.6899239999999995,1.148508,-1.616012,4
2024-06-14 12:18:32.566,-81.34,-130.83,32.865,4.332952000000001,0.811056,-1.721664,4
2024-06-14 12:18:32.571,-108.5,-153.01999999999998,25.235,3.9396240000000002,0.403088,-1.8536679999999999,4
2024-06-14 12:18:32.576,-126.21000000000001,-171.745,22.68,3.464068,0.013176,-1.896612,4
2024-06-14 12:18:32.581,-215.495,-328.23,53.9,-1.381772,-2.549312,-6.942532,0
