time,gyroscope_x,gyroscope_y,gyroscope_z,accelerometer_x,accelerometer_y,accelerometer_z,phase
2024-06-14 10:21:51.526,-180.04000000000002,-251.895,35.56,5.437784000000001,2.120848,-4.130431999999999,1
2024-06-14 10:21:51.531,-226.765,-308.805,13.265,2.906772,-0.018299999999999997,1.335168,1
2024-06-14 10:21:51.535,-320.81,-341.11,16.555,1.350296,0.142496,-1.3358999999999996,1
2024-06-14 10:21:51.540,-252.525,-314.93,6.86,0.054167999999999994,0.15982000000000002,-0.889624,1
2024-06-14 10:21:51.545,-203.98,-299.66999999999996,2.0999999999999996,-0.951356,-0.006344000000000002,-0.925004,1
2024-06-14 10:21:51.550,-155.82,-294.7,-19.285,-0.599996,-0.07515199999999998,-1.308328,1
2024-06-14 10:21:51.555,-119.38499999999999,-312.375,-38.010000000000005,-0.287676,-0.023667999999999998,-1.6897000000000002,1
2024-06-14 10:21:51.559,-103.66999999999999,-354.62,-44.379999999999995,0.24107199999999998,0.349408,-2.381684,1
2024-06-14 10:21:51.564,-56.49,-371.7,-37.94,0.447252,0.44798399999999994,-2.645448,1
2024-06-14 10:21:51.569,-24.57,-377.86,-35.175,0.26034799999999997,0.12322,-2.424384,1
2024-06-14 10:21:51.574,-30.869999999999997,-355.46000000000004,-39.375,0.229116,0.06221999999999999,-2.906528,1
2024-06-14 10:21:51.579,-26.46,-279.09,-37.8,0.27571999999999997,0.222772,-2.6669199999999997,1
2024-06-14 10:21:51.584,-35.385000000000005,-217.595,-28.314999999999998,0.39259599999999995,0.122488,-2.544676,1
2024-06-14 10:21:51.588,-39.165,-184.695,-20.965,0.26596,0.089792,-1.853424,1
2024-06-14 10:21:51.593,-21.455,-148.015,-16.135,0.163724,0.056364,-1.5008439999999998,1
2024-06-14 10:21:51.598,-8.925,-110.32,-12.635,0.09516,0.06295200000000001,-1.372744,1
2024-06-14 10:21:51.603,-8.399999999999999,-81.97,-8.89,0.003172000000000001,0.070516,-1.1675399999999998,1
2024-06-14 10:21:51.608,-8.295,-67.375,-4.62,-0.027084,0.06831999999999999,-1.072136,1
2024-06-14 10:21:51.613,-12.845,-52.955,-1.8900000000000001,-0.013908,0.040504,-1.068964,1
2024-06-14 10:21:51.617,-18.83,-38.36,-0.06999999999999998,0.031232000000000003,0.022204,-1.071404,1
2024-06-14 10:21:51.622,-21.595,-22.155,1.365,0.053680000000000005,0.030988,-1.102636,2
2024-06-14 10:21:51.627,-21.21,-9.870000000000001,1.33,0.092232,-0.005612000000000001,-1.0918999999999999,2
2024-06-14 10:21:51.632,-19.18,-4.6899999999999995,-0.9099999999999999,0.10052799999999999,-0.0021959999999999996,-1.087752,2
2024-06-14 10:21:51.637,-14.489999999999998,-2.59,-3.395,0.138592,-0.047091999999999995,-1.083604,2
2024-06-14 10:21:51.642,-56.735,-171.675,-8.469999999999999,0.088084,-0.005611999999999999,-1.0714039999999998,2
2024-06-14 10:21:51.646,-8.225,-2.66,-6.895,0.049044,0.029036,-1.032852,2
2024-06-14 10:21:51.651,-4.095,-1.5399999999999991,-4.725,-0.00366,0.028547999999999997,-1.0096720000000001,2
2024-06-14 10:21:51.656,-0.45500000000000007,-0.7000000000000002,-3.29,-0.018056000000000003,0.010248,-1.003328,2
2024-06-14 10:21:51.661,-5.075,-1.7149999999999999,-3.465,0.007563999999999999,0.022691999999999997,-1.021872,2
2024-06-14 10:21:51.666,-1.4700000000000002,-4.725,-3.955,0.021471999999999998,0.010003999999999999,-1.0230920000000001,2
2024-06-14 10:21:51.671,-2.73,-6.859999999999999,-4.2,0.004147999999999999,0.016592000000000003,-1.0157720000000001,2
2024-06-14 10:21:51.675,-4.06,-8.05,-3.29,0.0,0.012932,-1.009428,2
2024-06-14 10:21:51.680,-2.7649999999999997,-9.31,-2.1,-0.000488,0.014395999999999999,-1.00894,2
2024-06-14 10:21:51.685,-4.69,-10.850000000000001,-1.295,0.005612000000000001,0.022935999999999998,-1.011136,2
2024-06-14 10:21:51.690,-3.57,-11.795,-1.155,0.00366,0.023668,-1.010404,2
2024-06-14 10:21:51.695,-2.835,-12.46,-1.54,0.002196,0.025376,-1.011136,2
2024-06-14 10:21:51.700,-2.9050000000000002,-12.879999999999999,-1.6800000000000002,0.00122,0.017324,-1.009672,2
2024-06-14 10:21:51.704,-0.14,-13.02,-1.05,0.0014640000000000005,0.019276,-1.0084520000000001,2
2024-06-14 10:21:51.709,0.525,-13.055,-0.56,-0.0007319999999999999,0.017324,-1.006256,2
2024-06-14 10:21:51.714,0.665,-13.685,-0.35,0.008784,0.020008,-1.0126,2
2024-06-14 10:21:51.719,0.84,-14.280000000000001,-0.42000000000000004,-0.000976,0.0183,-1.007476,2
2024-06-14 10:21:51.724,0.56,-14.07,-0.6649999999999999,0.007076000000000001,0.021716,-1.002352,2
2024-06-14 10:21:51.728,0.8400000000000001,-14.42,-0.665,-0.0039040000000000004,0.013908,-1.009428,2
2024-06-14 10:21:51.733,1.33,-11.375,-0.6300000000000001,-0.017324,0.01098,-1.009428,2
2024-06-14 10:21:51.738,1.155,-15.329999999999998,-0.315,-0.00732,0.014884000000000001,-1.006012,2
2024-06-14 10:21:51.743,1.505,-15.120000000000001,-0.10499999999999998,0.001464,0.013176,-1.0055239999999999,2
2024-06-14 10:21:51.748,1.47,-15.68,-0.10499999999999998,0.012688,0.013663999999999999,-0.9964959999999998,2
2024-06-14 10:21:51.753,1.26,-14.875,-0.315,0.017079999999999998,0.0183,-1.0060120000000001,2
2024-06-14 10:21:51.757,0.77,-15.925,-0.5249999999999999,0.012688,0.019276,-1.004548,2
2024-06-14 10:21:51.762,0.385,-16.17,-0.45499999999999996,0.015127999999999999,0.007076000000000001,-1.003572,2
2024-06-14 10:21:51.767,-0.875,-15.120000000000001,-0.27999999999999997,0.0014639999999999992,0.022204,-1.0108920000000001,2
2024-06-14 10:21:51.772,-1.26,-15.015,-0.28,0.01952,0.0183,-0.99918,2
2024-06-14 10:21:51.777,-0.42000000000000004,-8.225,-0.315,0.015615999999999998,0.016348,-1.00528,2
2024-06-14 10:21:51.782,-2.9050000000000002,-17.115000000000002,-0.35000000000000003,0.02562,0.005611999999999999,-1.000156,2
2024-06-14 10:21:51.786,-3.675,-27.055,-0.175,0.022935999999999998,0.014395999999999999,-1.001376,2
2024-06-14 10:21:51.791,-3.3949999999999996,-17.57,-0.21000000000000002,0.027327999999999998,0.008784,-0.998448,2
2024-06-14 10:21:51.796,-3.325,-17.71,0.10500000000000001,0.0305,0.015371999999999999,-1.0035720000000001,2
2024-06-14 10:21:51.801,-3.605,-16.485,0.21,0.029036,0.017324,-1.0023520000000001,2
2024-06-14 10:21:51.806,-3.045,-17.815,0.24500000000000002,0.030011999999999997,0.020496,-1.002596,2
2024-06-14 10:21:51.811,-3.185,-17.884999999999998,0.24500000000000002,0.037332000000000004,0.015616000000000001,-1.003572,2
2024-06-14 10:21:51.815,-3.325,-17.22,0.28,0.04026,0.016104,-0.9986919999999999,2
2024-06-14 10:21:51.820,-2.765,-15.96,0.385,0.039284,0.021227999999999997,-0.9962519999999999,2
2024-06-14 10:21:51.825,-2.555,-14.07,0.49,0.043188000000000004,0.027572,-0.9969839999999999,2
2024-06-14 10:21:51.830,-1.9249999999999998,-11.41,0.315,0.041235999999999995,0.035379999999999995,-0.998692,2
2024-06-14 10:21:51.835,-1.435,-9.17,0.175,0.049288,0.01464,-1.00162,2
2024-06-14 10:21:51.840,-1.645,-8.26,0.385,0.041235999999999995,0.020252,-1.0011320000000001,2
2024-06-14 10:21:51.844,-1.26,-7.5600000000000005,0.035,0.039772,0.028791999999999998,-1.0011320000000001,2
2024-06-14 10:21:51.849,-1.295,-8.155,0.14,0.031964,0.014884,-1.003816,2
2024-06-14 10:21:51.854,-1.505,-9.485,0.245,0.037087999999999996,0.017324,-1.0055239999999999,2
2024-06-14 10:21:51.859,-2.03,-11.165,0.42,0.03904,0.01464,-1.009428,2
2024-06-14 10:21:51.864,-2.59,-12.879999999999999,0.63,0.037332,0.01098,-1.0106480000000002,2
2024-06-14 10:21:51.868,-2.8,-14.77,0.7350000000000001,0.038308,0.014152,-1.00162,2
2024-06-14 10:21:51.873,-3.6399999999999997,-14.7,0.9099999999999999,0.045628,0.016592,-1.005036,2
2024-06-14 10:21:51.878,-4.2,-14.805,1.085,0.043432,0.0060999999999999995,-0.9994240000000001,2
2024-06-14 10:21:51.883,-5.425,-14.489999999999998,1.4,0.045871999999999996,0.009271999999999999,-0.998692,2
2024-06-14 10:21:51.888,-5.985,-14.735,1.645,0.052216,0.016348,-1.003328,2
2024-06-14 10:21:51.893,-6.755,-15.05,1.9249999999999998,0.046116000000000004,0.01464,-1.0067439999999999,2
2024-06-14 10:21:51.897,-7.5600000000000005,-16.799999999999997,2.24,0.044164,0.004392,-1.016504,2
2024-06-14 10:21:51.902,-7.105,-19.39,2.695,0.045384,0.01098,-1.0189439999999998,2
2024-06-14 10:21:51.907,-7.455,-22.435000000000002,3.08,0.043676000000000006,0.01098,-1.022116,2
2024-06-14 10:21:51.912,-7.525,-26.39,3.185,0.047824,0.014151999999999998,-1.024556,2
2024-06-14 10:21:51.917,-7.140000000000001,-30.240000000000002,3.29,0.049288,0.026595999999999998,-1.033096,2
2024-06-14 10:21:51.922,-6.65,-34.335,3.29,0.047091999999999995,0.021716,-1.03944,2
2024-06-14 10:21:51.926,-3.2199999999999998,-43.61,3.045,0.061,0.009516,-0.9781960000000001,2
2024-06-14 10:21:51.931,-4.48,-43.33,3.5700000000000003,0.05856,0.013907999999999998,-1.062376,2
2024-06-14 10:21:51.936,-2.905,-13.860000000000001,3.3600000000000003,0.072224,-0.008784,-0.996984,2
2024-06-14 10:21:51.943,-6.58,-47.705,3.465,0.074908,0.00048800000000000004,-1.031388,2
2024-06-14 10:21:51.948,-5.845,-49.875,3.7800000000000002,0.07442,0.006344,-1.0823839999999998,2
2024-06-14 10:21:51.953,-4.13,-50.225,4.8999999999999995,0.069296,-0.001464,-1.0918999999999999,2
2024-06-14 10:21:51.957,4.55,-51.69499999999999,7.35,0.080032,-0.002684,-1.115568,3
2024-06-14 10:21:51.962,5.11,-51.065,8.05,0.095648,0.033916,-1.233176,3
2024-06-14 10:21:51.967,6.93,-29.89,6.6850000000000005,0.115656,0.09784399999999999,-1.333948,3
2024-06-14 10:21:51.972,18.200000000000003,-53.725,5.215,0.070028,0.056608,-1.226344,3
2024-06-14 10:21:51.977,30.765,-64.785,5.8100000000000005,0.092476,0.065392,-1.208532,3
2024-06-14 10:21:51.981,36.26,-57.4,6.23,0.100772,0.019763999999999997,-1.343708,3
2024-06-14 10:21:51.986,25.27,-70.7,5.145,0.08906,0.027572,-1.41154,3
2024-06-14 10:21:51.991,27.545,-76.44,6.335,0.08759600000000001,0.035136,-1.41398,3
2024-06-14 10:21:51.996,22.33,-77.63,5.32,0.09296399999999999,0.027084,-1.425692,3
2024-06-14 10:21:52.001,17.29,-84.035,4.725,0.09906399999999999,0.039284,-1.3964119999999998,3
2024-06-14 10:21:52.005,18.095,-91.77,4.585,0.097112,0.048311999999999994,-1.406172,3
2024-06-14 10:21:52.010,18.725,-99.435,4.165,0.101504,0.034648,-1.392264,3
2024-06-14 10:21:52.015,20.265,-107.87,3.675,0.100284,0.056364,-1.389092,3
2024-06-14 10:21:52.020,21.490000000000002,-119.21,2.835,0.10614,0.050752,-1.39568,3
2024-06-14 10:21:52.025,22.645000000000003,-131.985,2.24,0.08003199999999999,0.044408,-1.3707919999999998,3
2024-06-14 10:21:52.029,24.814999999999998,-159.95,3.71,0.12053599999999998,0.0009760000000000046,-1.32248,3
2024-06-14 10:21:52.034,29.785,-162.54000000000002,4.515,0.115412,-0.036844,-1.559404,3
2024-06-14 10:21:52.039,24.115,-176.75,3.5700000000000003,0.09638,0.019764,-1.491572,3
2024-06-14 10:21:52.044,23.134999999999998,-190.19,3.885,0.111264,-0.034648,-1.478152,3
2024-06-14 10:21:52.049,22.854999999999997,-204.61,4.550000000000001,0.111264,-0.049776,-1.4925480000000002,3
2024-06-14 10:21:52.054,20.405,-221.375,5.5649999999999995,0.12566,-0.026352,-1.54086,3
2024-06-14 10:21:52.058,17.08,-240.31,6.475,0.11809599999999999,-0.029036000000000003,-1.6228440000000002,3
2024-06-14 10:21:52.063,15.68,-256.83,7.245,0.10931199999999999,-0.042455999999999994,-1.723128,3
2024-06-14 10:21:52.068,12.075,-276.95500000000004,7.63,0.111264,-0.005368000000000003,-1.802428,3
2024-06-14 10:21:52.073,16.275,-293.72,7.07,0.112728,0.06831999999999999,-1.945168,3
2024-06-14 10:21:52.078,17.325000000000003,-314.755,5.845000000000001,0.11102,0.058072,-2.0903479999999997,3
2024-06-14 10:21:52.082,17.29,-333.76,4.83,0.130784,0.0061,-2.232844,3
2024-06-14 10:21:52.087,22.295,-350.875,4.865,0.16226,-0.059292,-2.298968,3
2024-06-14 10:21:52.092,19.495,-368.34000000000003,5.18,0.191784,-0.07905599999999999,-2.319952,3
2024-06-14 10:21:52.097,26.6,-377.3,5.915,0.23302,-0.140056,-2.6798520000000003,3
2024-06-14 10:21:52.102,31.675,-397.985,7.3149999999999995,0.221796,-0.13761600000000002,-2.80966,3
2024-06-14 10:21:52.106,40.11,-412.65,7.35,0.23643599999999998,-0.005368000000000003,-3.036092,3
2024-06-14 10:21:52.111,36.715,-438.515,6.545,0.117364,-0.043188,-2.8914,3
2024-06-14 10:21:52.116,46.480000000000004,-455.80499999999995,5.67,0.16787200000000002,-0.141764,-3.075864,3
2024-06-14 10:21:52.121,53.69,-474.88,7.805,0.120292,-0.17665599999999998,-3.1366199999999997,3
2024-06-14 10:21:52.126,57.785,-493.885,9.52,0.05929199999999999,-0.1769,-3.1890799999999997,3
2024-06-14 10:21:52.131,65.17,-499.345,12.635,0.12858799999999998,-0.198128,-3.504816,3
2024-06-14 10:21:52.135,67.16499999999999,-502.46000000000004,14.805,0.298168,-0.21789199999999997,-3.7183159999999997,3
2024-06-14 10:21:52.140,78.47,-501.865,19.215,0.30866,-0.346724,-3.871792,3
2024-06-14 10:21:52.145,79.87,-495.28499999999997,28.07,-0.0004880000000000023,-0.31598,-4.048204,3
2024-06-14 10:21:52.150,62.650000000000006,-491.015,35.14,-0.46067199999999997,-0.293288,-3.8713040000000003,3
2024-06-14 10:21:52.155,51.379999999999995,-476.875,42.980000000000004,-1.03334,-0.30256,-3.1536999999999997,4
2024-06-14 10:21:52.159,34.125,-458.885,50.364999999999995,-1.4366719999999997,-0.3172,-2.687172,4
2024-06-14 10:21:52.164,12.075,-448.105,56.035,-1.539396,-0.284992,-2.141832,4
2024-06-14 10:21:52.169,-18.935,-445.235,57.68,-2.003972,-0.278404,-1.786568,4
2024-06-14 10:21:52.174,-66.85,-469.21,45.394999999999996,-2.4282880000000002,-0.20984,-1.4910839999999999,4
2024-06-14 10:21:52.179,-120.82000000000001,-487.725,28.490000000000002,-1.7660719999999999,0.216916,-0.09003599999999999,4
2024-06-14 10:21:52.183,-129.745,-386.89,4.935,-1.3595679999999999,-0.017568000000000014,-0.183,4
2024-06-14 10:21:52.188,-114.975,-206.29,-31.15,-1.9605399999999997,-0.632204,-2.347524,4
2024-06-14 10:21:52.193,-87.255,-112.56,-69.23,-2.1411,-0.6019479999999999,-1.42862,4
2024-06-14 10:21:52.198,-69.22999999999999,-19.145,-89.88,-2.227232,-0.5880399999999999,-1.4366720000000002,4
2024-06-14 10:21:52.203,-49.525,44.24,-94.745,-1.95932,-0.49873599999999996,-1.4732720000000001,4
2024-06-14 10:21:52.207,-47.705,75.14500000000001,-90.965,-1.5911240000000002,-0.401868,-1.285636,4
2024-06-14 10:21:52.212,-49.63,84.035,-83.405,-1.392752,-0.45628,-1.1272799999999998,4
2024-06-14 10:21:52.217,-49.875,82.705,-74.16499999999999,-1.335168,-0.426512,-0.999424,4
2024-06-14 10:21:52.222,-44.135000000000005,80.605,-63.735,-1.302716,-0.36356,-0.8210599999999999,4
2024-06-14 10:21:52.227,-39.305,81.55,-54.739999999999995,-1.3005200000000001,-0.285724,-0.6993039999999999,4
2024-06-14 10:21:52.232,-31.57,88.375,-47.775000000000006,-1.319308,-0.224236,-0.604876,4
2024-06-14 10:21:52.236,-23.450000000000003,102.06,-42.525,-1.353956,-0.153964,-0.524356,4
2024-06-14 10:21:52.241,-17.045,120.75,-38.745000000000005,-1.372012,-0.06417199999999999,-0.476288,4
2024-06-14 10:21:52.246,-14.594999999999999,143.115,-36.75,-1.358836,0.017324000000000003,-0.45530399999999993,4
2024-06-14 10:21:52.251,-18.130000000000003,167.54500000000002,-36.05,-1.328336,0.101992,-0.451156,4
2024-06-14 10:21:52.256,-26.25,193.13,-35.91,-1.277096,0.160796,-0.4601839999999999,4
2024-06-14 10:21:52.260,-37.519999999999996,217.98000000000002,-35.805,-1.204628,0.179584,-0.491172,4
2024-06-14 10:21:52.265,-50.575,240.695,-35.105000000000004,-1.1141040000000002,0.172752,-0.536556,4
2024-06-14 10:21:52.270,-63.21000000000001,260.4,-33.11,-1.02846,0.145424,-0.5851120000000001,4
2024-06-14 10:21:52.275,-73.185,277.05999999999995,-29.855,-0.919148,0.103212,-0.644404,4
2024-06-14 10:21:52.280,-80.78,290.255,-25.515,-0.821548,0.05660799999999999,-0.69784,4
2024-06-14 10:21:52.284,-86.31,300.96500000000003,-20.23,-0.72712,0.009271999999999999,-0.750788,4
2024-06-14 10:21:52.289,-88.69,309.89,-14.105,-0.628544,-0.029767999999999996,-0.78568,4
2024-06-14 10:21:52.294,-88.76,317.41499999999996,-8.855,-0.550708,-0.06588,-0.81862,4
2024-06-14 10:21:52.299,-87.32499999999999,323.89,-4.55,-0.477996,-0.076372,-0.861564,4
2024-06-14 10:21:52.304,-84.805,329.525,-0.875,-0.406016,-0.087352,-0.907924,4
2024-06-14 10:21:52.309,-82.46000000000001,334.145,1.19,-0.33940400000000004,-0.094428,-0.942084,4
2024-06-14 10:21:52.313,-80.71000000000001,338.41499999999996,1.855,-0.287676,-0.090036,-0.98088,4
2024-06-14 10:21:52.318,-79.24,342.96500000000003,1.365,-0.24326799999999998,-0.093452,-1.0189439999999998,4
2024-06-14 10:21:52.323,-78.015,347.375,0.14,-0.199592,-0.106628,-1.06994,4
2024-06-14 10:21:52.328,-76.37,351.4,-1.82,-0.152256,-0.126392,-1.122644,4
2024-06-14 10:21:52.333,-73.36,354.9,-4.41,-0.10492,-0.150792,-1.165344,4
2024-06-14 10:21:52.337,-69.33500000000001,357.35,-7.525,-0.061975999999999996,-0.170312,-1.19804,4
2024-06-14 10:21:52.342,-64.36500000000001,358.365,-10.885,-0.024643999999999996,-0.20252,-1.239032,4
2024-06-14 10:21:52.347,-58.45,357.70000000000005,-13.895,0.005368000000000001,-0.229604,-1.2709959999999998,4
2024-06-14 10:21:52.352,-51.905,355.565,-16.345,0.04026,-0.25668799999999997,-1.297348,4
2024-06-14 10:21:52.357,-46.129999999999995,352.275,-18.725,0.08296,-0.273524,-1.3271160000000002,4
2024-06-14 10:21:52.361,-41.370000000000005,349.05499999999995,-21.384999999999998,0.168116,-0.282796,-1.364204,4
2024-06-14 10:21:52.366,-32.480000000000004,347.865,-24.255000000000003,0.167872,-0.337452,-1.411784,4
2024-06-14 10:21:52.371,-22.05,345.66,-26.145,0.15933200000000003,-0.37185599999999996,-1.47132,4
2024-06-14 10:21:52.376,-9.31,343.98,-26.6,0.12956399999999998,-0.377712,-1.511824,4
2024-06-14 10:21:52.381,3.29,341.39,-25.935000000000002,0.143716,-0.372832,-1.539396,4
2024-06-14 10:21:52.385,15.96,339.36,-24.884999999999998,0.15982000000000002,-0.34892,-1.581608,4
2024-06-14 10:21:52.390,28.0,337.645,-23.87,0.16836,-0.317932,-1.622356,4
2024-06-14 10:21:52.395,34.09,335.93,-23.345,0.18422,-0.262544,-1.673352,4
2024-06-14 10:21:52.400,35.035,334.25,-23.38,0.21594000000000002,-0.220576,-1.733132,4
2024-06-14 10:21:52.405,31.674999999999997,332.46500000000003,-23.59,0.23765599999999998,-0.205692,-1.797792,4
2024-06-14 10:21:52.410,29.259999999999998,330.435,-23.134999999999998,0.220332,-0.22838399999999998,-1.8353679999999999,4
2024-06-14 10:21:52.414,26.25,328.825,-21.770000000000003,0.198128,-0.235948,-1.844884,4
2024-06-14 10:21:52.419,24.64,328.51,-19.285,0.185196,-0.249124,-1.900516,4
2024-06-14 10:21:52.424,25.095,329.0,-15.68,0.198372,-0.269132,-1.97152,4
2024-06-14 10:21:52.429,26.810000000000002,330.43499999999995,-11.27,0.221796,-0.27547599999999994,-2.025444,4
2024-06-14 10:21:52.434,28.770000000000003,332.885,-6.895,0.238388,-0.26693599999999995,-2.077904,4
2024-06-14 10:21:52.438,29.995,336.21000000000004,-2.8,0.27327999999999997,-0.25132,-2.125484,4
2024-06-14 10:21:52.443,30.134999999999998,339.43,0.5599999999999999,0.32452000000000003,-0.23131200000000002,-2.1728199999999998,4
2024-06-14 10:21:52.448,30.240000000000002,342.16,3.535,0.40138,-0.218136,-2.207224,4
2024-06-14 10:21:52.453,31.325000000000003,343.70000000000005,5.8100000000000005,0.487024,-0.21032800000000001,-2.236504,4
2024-06-14 10:21:52.458,33.705,344.26,8.33,0.580964,-0.209596,-2.2606599999999997,4
2024-06-14 10:21:52.462,37.45,342.72,10.92,0.6846639999999999,-0.2074,-2.290916,4
2024-06-14 10:21:52.467,43.295,339.53499999999997,13.79,0.791536,-0.202276,-2.3172680000000003,4
2024-06-14 10:21:52.472,50.015,334.635,16.975,0.915732,-0.183732,-2.337764,4
2024-06-14 10:21:52.477,55.93,329.07,20.195,1.0579839999999998,-0.157136,-2.3736319999999997,4
2024-06-14 10:21:52.482,60.480000000000004,321.44000000000005,24.185,1.26514,-0.11882799999999999,-2.414136,4
2024-06-14 10:21:52.484,61.495,318.01,25.83,1.3595679999999999,-0.100772,-2.42048,4
2024-06-14 10:21:52.487,63.14,309.54,30.205,1.5928319999999998,-0.065392,-2.431216,4
2024-06-14 10:21:52.492,63.245000000000005,302.12,34.3,1.806088,-0.0427,-2.4217,4
2024-06-14 10:21:52.497,62.894999999999996,293.965,38.745,2.053016,0.013420000000000001,-2.4087680000000002,4
2024-06-14 10:21:52.502,62.72,284.935,43.19,2.328248,0.06344,-2.372656,4
2024-06-14 10:21:52.507,61.67,273.84000000000003,47.67,2.599576,0.08979200000000001,-2.327028,4
2024-06-14 10:21:52.512,58.870000000000005,259.0,53.48,2.8965240000000003,0.12126800000000001,-2.2555359999999998,4
2024-06-14 10:21:52.516,53.62,240.41500000000002,59.64,3.241296,0.156892,-2.1720879999999996,4
2024-06-14 10:21:52.521,44.205,216.51,66.15,3.5502000000000002,0.148596,-2.110844,4
2024-06-14 10:21:52.526,26.740000000000002,188.055,71.82,3.884724,0.13639600000000002,-2.012024,4
2024-06-14 10:21:52.531,7.385,156.765,78.57499999999999,4.145315999999999,0.045628,-1.8939279999999998,4
2024-06-14 10:21:52.536,-12.04,123.27000000000001,87.64,4.3700399999999995,-0.076616,-1.749968,4
2024-06-14 10:21:52.541,-25.235,89.495,97.33500000000001,4.54084,-0.18568400000000002,-1.5459839999999998,4
2024-06-14 10:21:52.545,-29.505,56.699999999999996,105.97999999999999,4.5972040000000005,-0.30744000000000005,-1.429352,4
2024-06-14 10:21:52.550,-25.165,24.64,112.525,4.596228,-0.381372,-1.436184,4
2024-06-14 10:21:52.555,-15.015,-8.96,115.675,4.5220519999999995,-0.392352,-1.437404,4
2024-06-14 10:21:52.560,-17.744999999999997,-37.8,114.45,4.859503999999999,-0.03586800000000001,-2.817468,4
