time,gyroscope_x,gyroscope_y,gyroscope_z,accelerometer_x,accelerometer_y,accelerometer_z,phase
2024-06-14 11:36:29.579,-371.735,-469.0,17.325,1.019676,0.9464759999999998,-7.661599999999999,1
2024-06-14 11:36:29.584,-316.04999999999995,-335.86,10.745000000000001,-0.918172,-0.479216,1.673108,1
2024-06-14 11:36:29.589,-329.595,-278.285,-15.365,-1.6821359999999999,-0.268888,-2.277252,1
2024-06-14 11:36:29.594,-186.69,-219.10000000000002,-45.36,-1.2026759999999999,-0.138836,-0.9684360000000001,1
2024-06-14 11:36:29.599,-139.335,-281.645,-78.4,-1.182668,-0.343796,-0.775676,1
2024-06-14 11:36:29.603,-80.535,-343.595,-104.3,-0.44066400000000006,-0.351116,-1.108492,1
2024-06-14 11:36:29.608,-38.989999999999995,-383.32,-116.41,0.21057199999999998,0.1159,-1.787788,1
2024-06-14 11:36:29.613,-17.115,-390.74,-113.36500000000001,0.590724,0.39772,-1.87148,1
2024-06-14 11:36:29.618,-50.785,-377.895,-108.815,0.5575399999999999,0.13566399999999998,-2.3162920000000002,1
2024-06-14 11:36:29.623,-52.64,-316.92499999999995,-93.94,0.709796,0.970388,-3.357196,1
2024-06-14 11:36:29.628,-46.2,-262.78,-64.75,0.637084,0.620736,-2.54736,1
2024-06-14 11:36:29.634,-61.11,-204.89,-38.5,0.17934,0.12761199999999995,-3.083916,1
2024-06-14 11:36:29.638,-73.465,-89.425,-26.145,0.328912,0.20056799999999997,-2.871392,1
2024-06-14 11:36:29.643,-32.585,-24.36,-18.97,0.34404,0.08539999999999999,-1.7599719999999999,1
2024-06-14 11:36:29.648,-18.445,-27.79,-28.244999999999997,-0.06392799999999998,-0.18178,-1.4903520000000001,1
2024-06-14 11:36:29.653,-20.615000000000002,-40.32,-36.75,0.36429199999999995,-0.071248,-1.617964,1
2024-06-14 11:36:29.658,-29.33,-48.265,-34.230000000000004,0.50142,-0.09394,-1.633092,1
2024-06-14 11:36:29.662,-34.545,-41.86,-31.255,0.214964,0.036844,-1.359812,1
2024-06-14 11:36:29.667,-35.525000000000006,-38.36,-22.435000000000002,0.024156,0.078324,-1.176812,1
2024-06-14 11:36:29.672,-32.83,-35.105000000000004,-10.535,0.035868,0.150304,-1.145092,1
2024-06-14 11:36:29.677,-21.595,-33.11,-4.48,-0.039527999999999994,0.189344,-1.062376,1
2024-06-14 11:36:29.682,-9.1,-27.755000000000003,-6.265000000000001,0.0019519999999999971,0.117608,-1.0555439999999998,2
2024-06-14 11:36:29.687,-2.9749999999999996,-22.54,-9.205,0.00976,-0.010004000000000002,-1.02724,2
2024-06-14 11:36:29.691,-7.42,-16.17,-8.469999999999999,0.094184,-0.12468399999999999,-1.069208,2
2024-06-14 11:36:29.696,-14.0,-12.04,-5.915,0.083692,-0.077348,-1.1080040000000002,2
2024-06-14 11:36:29.701,-15.435,-8.785,-4.0600000000000005,-0.012444,0.028792,-1.06872,2
2024-06-14 11:36:29.706,-11.795,-6.23,-3.815,-0.033916,0.06368399999999999,-1.06262,2
2024-06-14 11:36:29.711,-7.279999999999999,-6.824999999999999,-3.85,-0.033672,0.044652,-1.0984880000000001,2
2024-06-14 11:36:29.716,-3.99,-8.925,-3.395,-0.028548,0.02074,-1.122888,2
2024-06-14 11:36:29.720,-1.505,-13.545,-3.185,-0.043432,0.017324,-1.1238640000000002,2
2024-06-14 11:36:29.725,0.31499999999999995,-20.58,-3.2199999999999998,-0.071492,0.011956,-1.11752,2
2024-06-14 11:36:29.730,1.47,-28.595,-3.115,-0.085644,0.0029279999999999996,-1.116544,2
2024-06-14 11:36:29.735,2.45,-35.595,-3.01,-0.077836,0.018056,-1.120204,2
2024-06-14 11:36:29.740,4.13,-40.81,-2.975,-0.06270799999999999,0.030988,-1.1236199999999998,2
2024-06-14 11:36:29.745,7.035,-44.94,-3.395,-0.046116000000000004,0.056364,-1.117764,2
2024-06-14 11:36:29.749,10.815,-47.075,-3.9899999999999998,-0.049532,0.030988,-1.125572,2
2024-06-14 11:36:29.754,12.809999999999999,-50.89,-3.57,-0.048068,-0.008295999999999998,-1.117764,2
2024-06-14 11:36:29.759,12.18,-53.69,-3.465,-0.009272000000000002,-0.037088,-1.1726640000000002,2
2024-06-14 11:36:29.764,10.184999999999999,-56.175,-2.8,-0.04392,-0.027083999999999997,-1.1009279999999997,2
2024-06-14 11:36:29.769,6.02,-58.59,-2.2399999999999998,-0.006344,-0.059292,-1.123132,2
2024-06-14 11:36:29.774,2.625,-24.045,-1.995,-0.051484,-0.0034160000000000024,-1.062132,2
2024-06-14 11:36:29.778,3.6750000000000003,-61.11,-2.17,-0.027083999999999997,0.023424000000000004,-0.9821,2
2024-06-14 11:36:29.783,4.165,-61.705,-2.52,0.065148,0.028059999999999998,-1.0316319999999999,2
2024-06-14 11:36:29.788,5.145,-60.13,-2.765,0.042943999999999996,0.029767999999999996,-1.00406,2
2024-06-14 11:36:29.793,7.28,-59.675,-3.08,-0.014152000000000005,0.011467999999999996,-0.9638,2
2024-06-14 11:36:29.798,7.84,-60.69,-3.15,-0.046847999999999994,-0.009271999999999999,-1.00406,2
2024-06-14 11:36:29.802,8.89,-63.56,-3.15,-0.028791999999999998,-0.0026840000000000024,-1.0494439999999998,2
2024-06-14 11:36:29.807,9.205,-64.015,-2.835,-0.009760000000000003,-0.00024400000000000116,-1.098976,2
2024-06-14 11:36:29.812,17.5,-56.525,-0.9450000000000001,0.022448,0.008784000000000002,-1.1265479999999999,2
2024-06-14 11:36:29.817,19.285,-51.205,-0.245,0.05294800000000001,-0.012444,-1.133136,2
2024-06-14 11:36:29.822,18.9,-52.535,0.525,0.060756,-0.012688,-1.144848,2
2024-06-14 11:36:29.827,21.98,-52.71,0.595,0.06783199999999999,-0.010979999999999998,-1.0909239999999998,2
2024-06-14 11:36:29.831,21.735,-55.335,1.225,0.106384,-0.028304,-1.079212,2
2024-06-14 11:36:29.836,21.700000000000003,-51.555,1.54,-0.04636,-0.040748,-1.06628,2
2024-06-14 11:36:29.841,18.48,-56.91,1.33,0.043188,-0.055875999999999995,-1.014552,2
2024-06-14 11:36:29.846,13.335,-56.56,0.945,0.02928,-0.05612,-1.074576,2
2024-06-14 11:36:29.851,6.475,-59.22,-0.42,0.06124399999999999,-0.016592,-1.108492,2
2024-06-14 11:36:29.856,7.175000000000001,-59.64,0.385,0.061731999999999995,-0.049776,-1.0984880000000001,2
2024-06-14 11:36:29.860,7.35,-59.36,1.645,0.0671,-0.040504,-1.131184,2
2024-06-14 11:36:29.865,14.42,-57.68000000000001,2.73,0.071248,-0.019275999999999998,-1.148264,2
2024-06-14 11:36:29.870,20.755,-56.769999999999996,3.395,0.094428,-0.00244,-1.124596,2
2024-06-14 11:36:29.875,18.305,-55.93,3.115,0.08906,0.03464799999999999,-1.168272,2
2024-06-14 11:36:29.880,16.24,-53.76,1.9250000000000003,0.07002799999999999,0.062708,-1.169004,2
2024-06-14 11:36:29.885,16.380000000000003,-53.269999999999996,1.4,0.08393599999999998,-0.037087999999999996,-1.107028,2
2024-06-14 11:36:29.889,13.895,-55.405,1.19,0.094184,0.013175999999999998,-1.110444,2
2024-06-14 11:36:29.894,11.934999999999999,-55.230000000000004,0.385,0.103212,0.014884000000000001,-1.1131280000000001,2
2024-06-14 11:36:29.899,11.375,-52.325,0.455,0.10272400000000001,-0.012688,-1.091412,2
2024-06-14 11:36:29.904,12.004999999999999,-51.66,0.7,0.11175199999999999,-0.030011999999999997,-1.083604,2
2024-06-14 11:36:29.909,11.655000000000001,-51.625,0.665,0.118096,-0.009028,-1.082628,2
2024-06-14 11:36:29.914,10.5,-51.38,0.27999999999999997,0.122488,-0.0075639999999999995,-1.067012,2
2024-06-14 11:36:29.918,10.57,-51.45,-0.035,0.13200399999999998,-0.022691999999999997,-1.049688,2
2024-06-14 11:36:29.923,10.5,-50.4,0.10500000000000001,0.139324,-0.027572,-1.0323639999999998,2
2024-06-14 11:36:29.928,11.76,-48.93,0.595,0.14591200000000001,-0.046848,-1.04066,2
2024-06-14 11:36:29.933,12.53,-48.230000000000004,1.05,0.147864,-0.042212,-1.040172,2
2024-06-14 11:36:29.938,12.004999999999999,-47.635000000000005,1.33,0.15128000000000003,-0.039040000000000005,-1.035536,2
2024-06-14 11:36:29.943,11.34,-47.04,1.75,0.162748,-0.048556,-1.0304119999999999,2
2024-06-14 11:36:29.947,10.535,-46.62,2.205,0.16250399999999998,-0.056364,-1.01626,2
2024-06-14 11:36:29.952,8.435,-46.269999999999996,2.73,0.16469999999999999,-0.060756000000000004,-1.023092,2
2024-06-14 11:36:29.957,5.95,-46.165000000000006,3.1500000000000004,0.157624,-0.060511999999999996,-1.031144,2
2024-06-14 11:36:29.962,1.1900000000000002,-47.18,3.22,0.153232,-0.064416,-1.062376,2
2024-06-14 11:36:29.967,-3.36,-49.489999999999995,3.5,0.152012,-0.09272,-1.06018,2
2024-06-14 11:36:29.971,-7.035,-51.975,4.305,0.15372,-0.09516,-1.067988,2
2024-06-14 11:36:29.976,-12.6,-54.845,4.865,0.157624,-0.09638,-1.078236,2
2024-06-14 11:36:29.981,-17.15,-57.785,5.635,0.160308,-0.09540399999999999,-1.0784799999999999,2
2024-06-14 11:36:29.986,-20.37,-60.41,6.300000000000001,0.16299199999999997,-0.07075999999999999,-1.09922,2
2024-06-14 11:36:29.991,-24.08,-64.33,6.44,0.16860399999999998,-0.028548,-1.1131280000000001,2
2024-06-14 11:36:29.996,-24.64,-69.22999999999999,5.984999999999999,0.180072,-0.05002,-1.1260599999999998,2
2024-06-14 11:36:30.000,-26.985,-72.345,7.035,0.184952,-0.13395600000000002,-1.131916,2
2024-06-14 11:36:30.005,-23.695,-73.43,7.279999999999999,0.20495999999999998,0.086132,-1.138016,2
2024-06-14 11:36:30.010,-21.595,-77.21000000000001,5.145,0.20618,0.038796,-1.206336,2
2024-06-14 11:36:30.015,-17.535,-79.45,5.04,0.214232,-0.016592,-1.1909640000000001,2
2024-06-14 11:36:30.020,-12.635000000000002,-79.275,4.375,0.21594,0.101504,-1.1824240000000001,2
2024-06-14 11:36:30.025,-8.4,-82.145,2.3449999999999998,0.22326,0.078812,-1.2021879999999998,2
2024-06-14 11:36:30.029,-3.36,-82.39,1.4,0.223016,0.047824000000000005,-1.190964,2
2024-06-14 11:36:30.034,2.905,-82.635,0.42000000000000004,0.23448400000000003,0.078324,-1.219756,2
2024-06-14 11:36:30.039,7.385,-85.995,-1.26,0.235948,0.090524,-1.274168,2
2024-06-14 11:36:30.044,12.355,-90.055,-2.38,0.237412,0.045871999999999996,-1.311988,2
2024-06-14 11:36:30.049,17.15,-93.275,-2.975,0.23521599999999998,0.044407999999999996,-1.343464,2
2024-06-14 11:36:30.054,18.165,-100.31,-4.13,0.22765199999999997,0.036112,-1.4095879999999998,2
2024-06-14 11:36:30.058,18.305,-109.795,-5.04,0.22838399999999998,0.033916,-1.49084,2
2024-06-14 11:36:30.063,21.84,-114.1,-5.355,0.223992,0.012688000000000001,-1.4779079999999998,2
2024-06-14 11:36:30.068,25.9,-120.925,-5.705,0.231068,0.044163999999999995,-1.41642,2
2024-06-14 11:36:30.073,29.295,-128.45,-6.58,0.23448400000000003,0.07198,-1.4122720000000002,2
2024-06-14 11:36:30.078,29.715,-141.26,-8.155,0.23131200000000002,0.076616,-1.438136,2
2024-06-14 11:36:30.083,35.245000000000005,-149.45,-9.415,0.227408,0.071492,-1.669692,2
2024-06-14 11:36:30.087,41.58,-155.54000000000002,-9.555,0.21106,0.002196,-1.5911239999999998,2
2024-06-14 11:36:30.092,41.615,-172.06,-9.695,0.21350000000000002,-0.025619999999999997,-1.591368,2
2024-06-14 11:36:30.097,46.165,-186.26999999999998,-9.415,0.188856,-0.033428,-1.80682,3
2024-06-14 11:36:30.102,50.05,-191.17000000000002,-7.49,0.19763999999999998,-0.07661599999999999,-1.8561079999999999,3
2024-06-14 11:36:30.107,43.68,-209.72,-6.825,0.157868,-0.034404,-1.9398,3
2024-06-14 11:36:30.111,46.585,-230.335,-6.055,0.154696,-0.10955599999999999,-1.924184,3
2024-06-14 11:36:30.116,47.215,-246.68,-3.2199999999999998,0.17202,-0.191296,-1.9598079999999998,3
2024-06-14 11:36:30.121,52.989999999999995,-266.56,0.14,0.16616399999999998,-0.114436,-1.981036,3
2024-06-14 11:36:30.126,56.980000000000004,-290.885,0.665,0.13078399999999998,-0.019764,-1.97274,3
2024-06-14 11:36:30.131,59.675,-316.53999999999996,-0.5599999999999999,0.164944,0.030011999999999997,-2.307752,3
2024-06-14 11:36:30.136,58.379999999999995,-328.405,-1.155,0.114436,-0.003172000000000001,-2.673752,3
2024-06-14 11:36:30.140,56.07,-348.6,-0.8049999999999999,-0.01586,-0.135664,-2.604456,3
2024-06-14 11:36:30.145,50.435,-395.22,1.645,-0.07588400000000001,-0.35258,-2.506368,3
2024-06-14 11:36:30.150,54.845,-421.53999999999996,6.405,-0.064904,-0.37136800000000003,-3.134424,3
2024-06-14 11:36:30.155,54.495,-439.88,11.935,0.274256,-0.483608,-3.66122,3
2024-06-14 11:36:30.160,51.835,-469.70000000000005,20.02,-0.046116,-0.5692519999999999,-3.895704,3
2024-06-14 11:36:30.165,46.865,-511.945,27.965,-0.15982,-0.5668119999999999,-3.385988,3
2024-06-14 11:36:30.169,44.765,-542.99,35.49,0.102236,-0.640744,-3.774924,3
2024-06-14 11:36:30.174,52.675,-565.04,42.349999999999994,0.245464,-0.5587599999999999,-4.032832,3
2024-06-14 11:36:30.179,61.635000000000005,-585.375,47.075,0.2623,-0.442616,-3.8232359999999996,3
2024-06-14 11:36:30.184,72.83500000000001,-602.7,46.9,0.49410000000000004,-0.538996,-3.944504,3
2024-06-14 11:36:30.189,111.02000000000001,-608.23,47.215,0.52338,-0.884744,-4.463979999999999,3
2024-06-14 11:36:30.194,146.57999999999998,-603.575,59.465,0.44286000000000003,-1.169248,-4.432504,3
2024-06-14 11:36:30.198,162.64499999999998,-597.24,77.21000000000001,0.156648,-1.141676,-4.564264,3
2024-06-14 11:36:30.203,155.78500000000003,-580.0550000000001,98.41999999999999,-0.14566800000000002,-0.983076,-4.158004,4
2024-06-14 11:36:30.208,141.78500000000003,-545.3,121.415,-1.034804,-0.924028,-3.3096159999999997,4
2024-06-14 11:36:30.213,131.74,-501.62,145.215,-1.685552,-0.9764879999999999,-2.7945320000000002,4
2024-06-14 11:36:30.218,114.38,-471.87,166.35500000000002,-2.022516,-1.021628,-2.474404,4
2024-06-14 11:36:30.223,80.325,-463.61,181.16,-2.451468,-1.098732,-2.281156,4
2024-06-14 11:36:30.227,32.48,-466.76,185.675,-1.722396,-1.1665640000000002,-1.5398839999999998,4
2024-06-14 11:36:30.232,-36.68,-532.42,180.46,-0.348676,-1.020652,-0.6466000000000001,4
2024-06-14 11:36:30.237,-76.195,-520.73,164.885,-0.43163599999999996,-0.627812,-1.727032,4
2024-06-14 11:36:30.242,-51.03,-422.83500000000004,148.89,-1.086288,-0.6963759999999999,-1.242448,4
2024-06-14 11:36:30.247,-6.895000000000001,-307.51,130.76,-1.7009239999999999,-0.71126,-0.715408,4
2024-06-14 11:36:30.252,28.455,-180.775,103.03999999999999,-2.164524,-0.6422080000000001,-0.553148,4
2024-06-14 11:36:30.256,33.355,-67.44500000000001,65.94,-2.068144,-0.5192319999999999,-0.50142,4
2024-06-14 11:36:30.261,11.235000000000001,24.15,27.3,-1.654564,-0.28914,-0.8127639999999999,4
2024-06-14 11:36:30.266,-19.215,97.265,-8.54,-1.409344,0.011711999999999997,-1.0870199999999999,4
2024-06-14 11:36:30.271,-49.315,152.74,-40.775,-1.3024719999999999,0.1525,-1.205848,4
2024-06-14 11:36:30.276,-78.64500000000001,188.685,-67.27,-1.192184,0.07832399999999999,-1.231712,4
2024-06-14 11:36:30.280,-106.47,205.59,-87.00999999999999,-1.117032,-0.024399999999999998,-1.277828,4
2024-06-14 11:36:30.285,-132.16,212.83499999999998,-101.185,-1.034072,-0.03904,-1.2270759999999998,4
2024-06-14 11:36:30.290,-153.65,218.12,-112.035,-0.980636,-0.05856,-1.057008,4
2024-06-14 11:36:30.295,-168.66500000000002,223.755,-120.155,-0.951356,-0.12273200000000001,-0.901092,4
2024-06-14 11:36:30.300,-176.32999999999998,230.335,-125.405,-0.9159759999999999,-0.220088,-0.812276,4
2024-06-14 11:36:30.305,-178.22000000000003,237.825,-127.75,-0.8596119999999999,-0.328668,-0.759816,4
2024-06-14 11:36:30.309,-175.91,245.595,-127.575,-0.814716,-0.40723600000000004,-0.7329759999999998,4
2024-06-14 11:36:30.314,-169.89,254.065,-125.125,-0.76738,-0.47604399999999997,-0.7017439999999999,4
2024-06-14 11:36:30.319,-160.685,263.305,-120.53999999999999,-0.7256559999999999,-0.526796,-0.665388,4
2024-06-14 11:36:30.324,-148.95999999999998,273.56,-113.68,-0.6832,-0.5729120000000001,-0.6429400000000001,4
2024-06-14 11:36:30.329,-135.1,284.27,-104.895,-0.640256,-0.6031679999999999,-0.6429400000000001,4
2024-06-14 11:36:30.334,-120.08500000000001,294.77,-94.465,-0.600484,-0.6222,-0.64294,4
2024-06-14 11:36:30.338,-105.525,305.305,-82.635,-0.5636399999999999,-0.6405000000000001,-0.664168,4
2024-06-14 11:36:30.343,-91.56,315.105,-69.545,-0.521428,-0.6397680000000001,-0.688568,4
2024-06-14 11:36:30.348,-77.35,324.59000000000003,-55.614999999999995,-0.485804,-0.6304960000000001,-0.7188239999999999,4
2024-06-14 11:36:30.353,-63.42,333.655,-41.334999999999994,-0.44944799999999996,-0.6092679999999999,-0.7468839999999999,4
2024-06-14 11:36:30.358,-50.295,342.195,-27.405,-0.41236,-0.575596,-0.789584,4
2024-06-14 11:36:30.363,-38.675,350.63,-14.105,-0.382104,-0.5216719999999999,-0.8418,4
2024-06-14 11:36:30.367,-28.875,358.855,-1.715,-0.35306800000000005,-0.4636,-0.90158,4
2024-06-14 11:36:30.372,-20.86,366.87,9.45,-0.32256799999999997,-0.402356,-0.9640439999999999,4
2024-06-14 11:36:30.377,-14.035,374.78,19.354999999999997,-0.297924,-0.35624,-1.0274839999999998,4
2024-06-14 11:36:30.382,-8.26,381.78,27.965,-0.269864,-0.31354,-1.081164,4
2024-06-14 11:36:30.387,-3.29,388.15,35.35,-0.25254,-0.26547200000000004,-1.131672,4
2024-06-14 11:36:30.392,0.945,394.38,41.125,-0.25107599999999997,-0.221796,-1.1714440000000002,4
2024-06-14 11:36:30.396,4.6899999999999995,400.995,45.885,-0.24082800000000001,-0.17592399999999997,-1.207312,4
2024-06-14 11:36:30.401,7.805,407.12,49.349999999999994,-0.229116,-0.151036,-1.260504,4
2024-06-14 11:36:30.406,10.254999999999999,412.615,52.010000000000005,-0.203984,-0.12858799999999998,-1.33102,4
2024-06-14 11:36:30.411,12.46,417.27,53.83,-0.17665599999999998,-0.111996,-1.4039760000000001,4
2024-06-14 11:36:30.416,14.945,421.33000000000004,54.95,-0.141276,-0.098576,-1.479372,4
2024-06-14 11:36:30.420,17.745,424.34000000000003,55.09,-0.11516799999999999,-0.088572,-1.53964,4
2024-06-14 11:36:30.425,20.93,426.3,54.46,-0.09759999999999999,-0.084668,-1.592344,4
2024-06-14 11:36:30.430,24.85,427.66499999999996,53.375,-0.07686000000000001,-0.081008,-1.6455359999999999,4
2024-06-14 11:36:30.435,28.84,428.4,51.66,-0.054655999999999996,-0.08662,-1.702632,4
2024-06-14 11:36:30.440,33.495000000000005,428.33,49.595,-0.025864,-0.09028,-1.759484,4
2024-06-14 11:36:30.445,39.165,427.70000000000005,46.41,-0.011956000000000001,-0.099552,-1.8221919999999998,4
2024-06-14 11:36:30.449,45.43,426.19500000000005,42.455,0.00122,-0.10492,-1.880264,4
2024-06-14 11:36:30.454,51.519999999999996,424.48,37.730000000000004,0.015615999999999998,-0.099552,-1.9485839999999999,4
2024-06-14 11:36:30.459,57.295,422.65999999999997,32.165,0.024155999999999997,-0.088328,-2.0086079999999997,4
2024-06-14 11:36:30.464,62.125,420.77,25.48,0.027327999999999998,-0.093208,-2.08742,4
2024-06-14 11:36:30.469,66.39500000000001,419.37,18.235,0.032451999999999995,-0.099796,-2.175992,4
2024-06-14 11:36:30.474,69.78999999999999,417.83000000000004,10.57,0.042212,-0.116632,-2.297504,4
2024-06-14 11:36:30.478,72.695,416.255,2.485,0.06636800000000001,-0.129076,-2.429264,4
2024-06-14 11:36:30.483,75.565,414.645,-6.2299999999999995,0.10492,-0.143472,-2.573956,4
2024-06-14 11:36:30.488,78.53999999999999,413.175,-16.03,0.147864,-0.15372000000000002,-2.71816,4
2024-06-14 11:36:30.493,82.53,411.53,-27.02,0.21471999999999997,-0.160308,-2.8501640000000004,4
2024-06-14 11:36:30.498,88.55,410.725,-39.480000000000004,0.282308,-0.15860000000000002,-2.974116,4
2024-06-14 11:36:30.503,96.39,410.58500000000004,-53.095,0.361608,-0.152744,-3.0961160000000003,4
2024-06-14 11:36:30.507,105.035,411.46000000000004,-67.725,0.454572,-0.140788,-3.234708,4
2024-06-14 11:36:30.512,113.64500000000001,413.315,-82.88,0.570716,-0.106628,-3.373788,4
2024-06-14 11:36:30.517,121.13499999999999,415.695,-98.875,0.722728,-0.04782399999999999,-3.494812,4
2024-06-14 11:36:30.522,126.42,418.66999999999996,-115.605,0.9130480000000001,0.042212,-3.60388,4
2024-06-14 11:36:30.527,127.295,422.695,-133.20999999999998,1.133136,0.146888,-3.684644,4
2024-06-14 11:36:30.532,123.16499999999999,426.72,-151.06,1.4108079999999998,0.216428,-3.7371039999999995,4
2024-06-14 11:36:30.536,112.595,429.765,-167.685,1.72142,0.20496,-3.76248,4
2024-06-14 11:36:30.541,100.485,430.53499999999997,-180.88,2.0622879999999997,0.18836799999999998,-3.7412520000000002,4
2024-06-14 11:36:30.546,89.91499999999999,427.90999999999997,-189.49,2.44122,0.19690799999999997,-3.7358840000000004,4
2024-06-14 11:36:30.551,80.5,420.70000000000005,-193.48000000000002,2.883104,0.199348,-3.689524,4
2024-06-14 11:36:30.556,68.46000000000001,405.44000000000005,-192.60500000000002,3.327184,0.214476,-3.629012,4
2024-06-14 11:36:30.561,50.82,385.315,-185.745,4.062112,0.21228000000000002,-3.434788,4
2024-06-14 11:36:30.565,31.99,362.355,-172.55,4.903423999999999,0.10004,-2.9057959999999996,4
2024-06-14 11:36:30.570,11.2,335.02,-146.86,5.693984,-0.216916,-2.39852,4
2024-06-14 11:36:30.575,-21.21,302.71500000000003,-100.66,6.499184,-0.644404,-1.926868,4
2024-06-14 11:36:30.580,-62.019999999999996,264.11,-36.33,7.1650599999999995,-1.0570080000000002,-1.46644,4
2024-06-14 11:36:30.585,-97.50999999999999,218.75,39.83,7.551556,-1.3644479999999999,-1.14192,4
2024-06-14 11:36:30.589,-110.355,168.84,117.74,7.770912,-1.41764,-0.9623360000000001,4
2024-06-14 11:36:30.594,-95.2,119.945,182.20999999999998,7.898036,-1.145824,-0.838384,4
2024-06-14 11:36:30.599,-67.27000000000001,65.345,223.37,7.672336,-0.776408,-0.994544,4
2024-06-14 11:36:30.604,-43.575,1.75,242.235,7.0955200000000005,-0.441396,-1.2102399999999998,4
2024-06-14 11:36:30.609,-32.76,-64.57499999999999,245.735,6.306912,-0.21838000000000002,-1.30418,4
2024-06-14 11:36:30.614,-27.405,-126.665,242.33999999999997,5.454864000000001,-0.064904,-1.416664,4
2024-06-14 11:36:30.618,-26.285,-180.39,235.34,4.662596,-0.064416,-1.564284,4
2024-06-14 11:36:30.623,-32.165,-225.225,224.66500000000002,3.279116,-0.41870399999999997,-1.659688,4
