time,gyroscope_x,gyroscope_y,gyroscope_z,accelerometer_x,accelerometer_y,accelerometer_z,phase
2024-06-14 11:36:31.666,-349.02,-389.16499999999996,154.56,4.806068,6.490888,-8.000028,1
2024-06-14 11:36:31.671,-374.675,-348.495,80.95500000000001,0.858636,-0.86864,-0.8793759999999998,1
2024-06-14 11:36:31.676,-424.095,-309.925,79.72999999999999,-0.226432,0.21301199999999998,-1.299544,1
2024-06-14 11:36:31.681,-476.63,-298.655,27.685000000000002,0.11712,-1.032608,-1.4110519999999998,1
2024-06-14 11:36:31.686,-330.295,-220.43,2.8,-1.06872,-0.4328559999999999,-2.4068159999999996,1
2024-06-14 11:36:31.690,-194.67000000000002,-241.395,-34.405,-1.426424,0.21154799999999996,-1.791448,1
2024-06-14 11:36:31.695,-120.92500000000001,-242.235,-74.83,-0.817888,-0.330864,-1.125572,1
2024-06-14 11:36:31.700,-70.84,-287.49,-108.605,-0.407968,-0.35062799999999994,-1.294908,1
2024-06-14 11:36:31.705,-43.785,-318.15,-123.725,0.215696,0.1891,-1.7870560000000002,1
2024-06-14 11:36:31.710,-88.725,-316.435,-123.305,0.764696,0.44700799999999996,-2.612752,1
2024-06-14 11:36:31.715,-78.33,-274.785,-96.81,0.34599199999999997,1.02846,-2.8548,1
2024-06-14 11:36:31.720,-58.905,-222.425,-69.405,0.503616,0.550708,-2.241628,1
2024-06-14 11:36:31.724,-59.57,-200.62,-45.15,0.16104,0.37454,-2.212348,1
2024-06-14 11:36:31.729,-93.13499999999999,-132.615,-24.990000000000002,0.41626399999999997,0.24009599999999998,-2.172088,1
2024-06-14 11:36:31.734,-76.685,-37.45,-10.535,0.46506400000000003,0.286944,-2.3419119999999998,1
2024-06-14 11:36:31.739,-31.57,-8.12,-13.685,0.058072,-0.06466,-1.329068,1
2024-06-14 11:36:31.744,-26.6,-27.335,-25.865000000000002,0.129564,-0.10248,-1.40788,1
2024-06-14 11:36:31.749,-18.060000000000002,-19.145,-30.66,0.24619600000000003,-0.015372000000000002,-1.502552,1
2024-06-14 11:36:31.753,-17.64,-26.950000000000003,-33.04,0.116876,-0.025132000000000005,-1.302716,1
2024-06-14 11:36:31.758,-16.939999999999998,-27.58,-29.47,-0.007808,0.150304,-1.22854,1
2024-06-14 11:36:31.763,-16.310000000000002,-22.015,-19.075000000000003,-0.083204,0.065636,-1.05896,2
2024-06-14 11:36:31.768,-16.275,-18.83,-9.8,-0.012443999999999998,0.07198000000000002,-1.0655480000000002,2
2024-06-14 11:36:31.773,-13.265,-14.84,-5.705,0.05978,0.07686,-1.069696,2
2024-06-14 11:36:31.778,-9.205,-9.73,-7.14,0.058316,0.033428,-1.0655480000000002,2
2024-06-14 11:36:31.782,-8.82,-5.32,-8.26,0.070028,-0.016592,-1.0796999999999999,2
2024-06-14 11:36:31.787,-10.465,-1.33,-7.56,0.033184,-0.03172,-1.102636,2
2024-06-14 11:36:31.792,-12.39,0.24500000000000002,-5.8100000000000005,-0.022203999999999998,-0.0183,-1.108492,2
2024-06-14 11:36:31.797,-12.705,0.455,-4.305,-0.053192,0.015616,-1.111664,2
2024-06-14 11:36:31.802,-10.010000000000002,-2.24,-3.92,-0.059536,0.053680000000000005,-1.131672,2
2024-06-14 11:36:31.807,-5.635,-6.79,-4.13,-0.061976,0.047824,-1.134112,2
2024-06-14 11:36:31.811,-1.33,-12.915,-4.095000000000001,-0.06612399999999999,0.033184000000000005,-1.1397240000000002,2
2024-06-14 11:36:31.816,1.19,-19.53,-3.71,-0.077348,0.005856,-1.125572,2
2024-06-14 11:36:31.821,2.065,-25.41,-3.5,-0.08784,0.00732,-1.1155679999999997,2
2024-06-14 11:36:31.827,2.835,-30.17,-3.2199999999999998,-0.08271600000000001,0.016104,-1.1082480000000001,2
2024-06-14 11:36:31.832,4.83,-34.195,-3.255,-0.06368399999999999,0.040992,-1.1101999999999999,2
2024-06-14 11:36:31.837,7.945,-37.870000000000005,-3.5700000000000003,-0.048556,0.053924,-1.1141039999999998,2
2024-06-14 11:36:31.841,11.69,-40.495,-3.92,-0.050019999999999995,0.052947999999999995,-1.116056,2
2024-06-14 11:36:31.846,14.525,-42.980000000000004,-4.0600000000000005,-0.068564,0.0183,-1.126548,2
2024-06-14 11:36:31.851,15.61,-44.485,-3.6399999999999997,-0.070272,-0.009516,-1.12728,2
2024-06-14 11:36:31.856,14.945,-44.835,-3.1500000000000004,-0.057095999999999994,-0.02684,-1.119472,2
2024-06-14 11:36:31.861,13.579999999999998,-47.11,-2.625,-0.044408,-0.021228,-1.1077599999999999,2
2024-06-14 11:36:31.866,12.775,-47.775,-2.38,-0.040015999999999996,-0.0019520000000000002,-1.0899480000000001,2
2024-06-14 11:36:31.870,12.74,-47.04,-2.38,-0.030011999999999997,-0.00048800000000000004,-1.080676,2
2024-06-14 11:36:31.875,11.795,-45.815,-2.38,-0.025376,-0.0039040000000000004,-1.0906799999999999,2
2024-06-14 11:36:31.880,8.469999999999999,-34.265,-3.5,-0.013663999999999999,0.00244,-1.0875080000000001,2
2024-06-14 11:36:31.885,12.39,-50.855000000000004,-2.275,-0.0046359999999999995,-0.00244,-1.072624,2
2024-06-14 11:36:31.890,10.149999999999999,-50.715,-2.38,-0.0014639999999999998,-0.002196,-1.061888,2
2024-06-14 11:36:31.895,12.6,-51.03,-2.66,-0.000244,-0.002196,-1.0553,2
2024-06-14 11:36:31.899,11.375,-51.275000000000006,-3.43,0.008052,0.00976,-1.0667680000000002,2
2024-06-14 11:36:31.904,12.32,-52.78,-3.15,-0.00244,-0.030011999999999997,-1.06628,2
2024-06-14 11:36:31.909,21.525,-51.59,-0.49,-0.0053679999999999995,-0.048555999999999995,-1.097268,2
2024-06-14 11:36:31.914,18.935,-58.065,0.525,-0.0034159999999999993,-0.0549,-1.065548,2
2024-06-14 11:36:31.919,14.385,-52.114999999999995,1.12,0.001464,-0.062952,-1.061156,2
2024-06-14 11:36:31.923,9.485,-56.385,1.26,0.0,-0.063928,-1.045784,2
2024-06-14 11:36:31.928,8.68,-53.269999999999996,1.89,0.015372,-0.038064,-1.049932,2
2024-06-14 11:36:31.933,10.010000000000002,-57.120000000000005,2.1,0.028791999999999998,-0.017324,-1.051884,2
2024-06-14 11:36:31.938,9.135,-56.84,2.3099999999999996,0.037332000000000004,-0.020252,-1.0531039999999998,2
2024-06-14 11:36:31.943,9.1,-50.61,1.995,0.044652,-0.054900000000000004,-0.99308,2
2024-06-14 11:36:31.948,7.699999999999999,-51.835,1.715,0.040748,-0.035136,-1.074332,2
2024-06-14 11:36:31.952,7.175,-51.17,1.715,0.030255999999999998,-0.027327999999999998,-1.045296,2
2024-06-14 11:36:31.957,7.07,-50.644999999999996,2.275,0.033428,-0.018787999999999996,-1.092144,2
2024-06-14 11:36:31.962,-0.3500000000000001,-53.34,1.785,0.030255999999999998,0.0053679999999999995,-1.103856,2
2024-06-14 11:36:31.967,-3.2199999999999998,-54.845,1.505,0.02684,-0.067832,-1.1101999999999999,2
2024-06-14 11:36:31.972,9.38,-52.92,3.815,0.044408,-0.055144,-1.138016,2
2024-06-14 11:36:31.977,13.02,-52.78,5.145,0.06539199999999999,-0.03782,-1.076772,2
2024-06-14 11:36:31.981,11.375,-52.36,5.845000000000001,0.07686,-0.038064,-1.098244,3
2024-06-14 11:36:31.986,13.02,-50.54,6.58,0.076128,-0.022691999999999997,-1.084336,3
2024-06-14 11:36:31.991,9.45,-49.28,6.475,0.086864,0.006344,-1.080188,3
2024-06-14 11:36:31.996,3.745,-49.035,5.705,0.077348,0.00854,-1.097512,3
2024-06-14 11:36:32.001,1.015,-46.305,5.005000000000001,0.093696,-0.0017079999999999999,-1.0226039999999998,3
2024-06-14 11:36:32.006,-1.61,-44.415,4.654999999999999,0.088816,-0.034159999999999996,-1.00284,3
2024-06-14 11:36:32.010,-2.9050000000000002,-42.455,4.865,0.10248,-0.021716,-0.997228,3
2024-06-14 11:36:32.015,-4.55,-41.09,4.69,0.108092,-0.018056,-0.987468,3
2024-06-14 11:36:32.020,-6.055,-39.83,4.655,0.110044,-0.01952,-0.9794159999999998,3
2024-06-14 11:36:32.025,-7.175,-38.394999999999996,4.62,0.111508,-0.033428,-0.98454,3
2024-06-14 11:36:32.030,-8.82,-36.925,4.970000000000001,0.11102,-0.041236,-0.9916159999999998,3
2024-06-14 11:36:32.035,-10.78,-35.945,5.109999999999999,0.114436,-0.042456,-1.012356,3
2024-06-14 11:36:32.039,-12.985,-36.504999999999995,5.390000000000001,0.111508,-0.044408,-1.02602,3
2024-06-14 11:36:32.044,-15.155000000000001,-36.785,5.705,0.112728,-0.038307999999999995,-1.053836,3
2024-06-14 11:36:32.049,-17.185000000000002,-37.8,5.915,0.10736,-0.037576,-1.068964,3
2024-06-14 11:36:32.054,-18.48,-40.215,5.984999999999999,0.11224,-0.011224000000000001,-1.0858,3
2024-06-14 11:36:32.059,-20.055,-43.05,5.495,0.12370799999999998,-0.018056,-1.0899480000000001,3
2024-06-14 11:36:32.063,-20.895,-45.22,5.775,0.12346399999999999,-0.065148,-1.062376,3
2024-06-14 11:36:32.068,-20.685000000000002,-46.06,6.755000000000001,0.126636,-0.027327999999999998,-1.0948280000000001,3
2024-06-14 11:36:32.073,-19.39,-46.864999999999995,6.4399999999999995,0.13151599999999997,0.05856,-1.1302079999999999,3
2024-06-14 11:36:32.078,-17.29,-49.28,5.32,0.12858799999999998,0.044408,-1.1892559999999999,3
2024-06-14 11:36:32.083,-14.035,-52.78,5.005000000000001,0.132736,0.014884,-1.1929159999999999,3
2024-06-14 11:36:32.088,-11.235,-54.355000000000004,4.375,0.13810399999999998,0.039284,-1.216828,3
2024-06-14 11:36:32.092,-8.155,-57.19,3.605,0.13907999999999998,0.067344,-1.242692,3
2024-06-14 11:36:32.097,-4.41,-60.725,2.38,0.143472,0.061,-1.2551359999999998,3
2024-06-14 11:36:32.102,0.07000000000000006,-64.155,1.33,0.15176800000000001,0.056364,-1.239032,3
2024-06-14 11:36:32.107,4.83,-67.13,0.525,0.15494000000000002,0.060756,-1.242692,3
2024-06-14 11:36:32.112,9.344999999999999,-69.055,-0.595,0.160308,0.08027599999999999,-1.2505000000000002,3
2024-06-14 11:36:32.117,12.879999999999999,-72.41499999999999,-1.96,0.169092,0.079788,-1.223172,3
2024-06-14 11:36:32.121,18.515,-72.765,-2.8,0.177876,0.069296,-1.223172,3
2024-06-14 11:36:32.126,22.54,-73.78,-4.13,0.17836400000000002,0.08296,-1.273436,3
2024-06-14 11:36:32.131,25.619999999999997,-75.95,-5.25,0.172508,0.060511999999999996,-1.297104,3
2024-06-14 11:36:32.136,29.68,-78.995,-6.02,0.165676,0.045628,-1.400804,3
2024-06-14 11:36:32.141,29.47,-83.78999999999999,-6.93,0.153232,0.05002,-1.45546,3
2024-06-14 11:36:32.146,27.475,-91.49000000000001,-7.98,0.14810800000000002,0.013176,-1.486448,3
2024-06-14 11:36:32.150,27.509999999999998,-102.725,-8.05,0.150792,-0.037332000000000004,-1.5145079999999997,3
2024-06-14 11:36:32.155,27.58,-111.09,-7.945,0.158356,-0.017324,-1.52012,3
2024-06-14 11:36:32.160,29.225,-120.4,-7.525,0.17299599999999998,-0.020739999999999998,-1.453508,3
2024-06-14 11:36:32.165,31.814999999999998,-130.725,-7.77,0.170312,0.022448,-1.48352,3
2024-06-14 11:36:32.170,36.96,-136.815,-8.015,0.16226000000000002,0.034159999999999996,-1.609424,3
2024-06-14 11:36:32.175,41.02,-144.865,-7.98,0.16494399999999998,0.018056,-1.668228,3
2024-06-14 11:36:32.179,38.78,-161.49,-8.26,0.154208,-0.0305,-1.635776,3
2024-06-14 11:36:32.184,37.31,-177.31,-7.875,0.116144,-0.051484,-1.843908,3
2024-06-14 11:36:32.189,40.775000000000006,-189.525,-5.984999999999999,0.100772,-0.121756,-1.73972,3
2024-06-14 11:36:32.194,35.21,-212.31,-4.6899999999999995,0.09930800000000001,-0.107604,-1.8080399999999999,3
2024-06-14 11:36:32.199,37.345,-228.2,-3.1500000000000004,0.09272,-0.106872,-1.9363839999999999,3
2024-06-14 11:36:32.204,48.230000000000004,-240.555,-0.315,0.068564,-0.10735999999999998,-2.0486240000000002,3
2024-06-14 11:36:32.208,51.415,-259.49,1.54,0.070272,-0.034404,-2.027884,3
2024-06-14 11:36:32.213,48.44,-276.185,2.9400000000000004,0.02684,-0.04636,-2.403888,3
2024-06-14 11:36:32.218,50.61,-297.5,4.654999999999999,0.025863999999999998,-0.16836,-2.04228,3
2024-06-14 11:36:32.223,57.47,-327.18,7.664999999999999,0.044164,-0.12029200000000001,-2.290428,3
2024-06-14 11:36:32.228,63.629999999999995,-350.17499999999995,8.645,0.046848,-0.0305,-2.453908,3
2024-06-14 11:36:32.232,66.00999999999999,-373.31,8.89,0.016104,-0.030011999999999997,-2.7874559999999997,3
2024-06-14 11:36:32.237,59.185,-388.99,9.8,-0.127612,-0.198128,-2.867732,3
2024-06-14 11:36:32.242,58.625,-418.985,14.105,-0.254492,-0.34428400000000003,-2.898232,3
2024-06-14 11:36:32.247,58.765,-451.29,17.255,0.026108000000000006,-0.25180800000000003,-3.128812,3
2024-06-14 11:36:32.252,62.72,-474.495,21.91,0.004147999999999999,-0.36844,-3.939868,3
2024-06-14 11:36:32.257,59.64,-509.74,25.130000000000003,-0.25132,-0.264984,-3.420636,3
2024-06-14 11:36:32.261,63.769999999999996,-539.63,28.174999999999997,-0.030744,-0.37917599999999996,-3.260572,3
2024-06-14 11:36:32.266,68.495,-557.97,32.97,0.132736,-0.3233,-3.850564,3
2024-06-14 11:36:32.271,71.015,-572.88,36.225,0.13468799999999997,-0.20740000000000003,-3.787368,3
2024-06-14 11:36:32.276,65.87,-591.64,34.37,0.24277999999999997,-0.145424,-3.74174,3
2024-06-14 11:36:32.281,86.94,-599.935,29.4,0.32500799999999996,-0.49824799999999997,-4.204852000000001,3
2024-06-14 11:36:32.286,121.72999999999999,-599.9,36.82,0.21716000000000002,-0.9240280000000001,-4.297572,3
2024-06-14 11:36:32.290,144.48,-596.925,49.84,-0.011955999999999998,-1.004792,-4.490576000000001,3
2024-06-14 11:36:32.295,150.745,-585.55,66.675,-0.18958799999999998,-0.915976,-4.038932,3
2024-06-14 11:36:32.300,149.94,-560.595,85.505,-1.102636,-0.830576,-3.3554880000000002,4
2024-06-14 11:36:32.305,154.20999999999998,-521.99,106.25999999999999,-1.9175959999999999,-0.8442400000000001,-2.84138,4
2024-06-14 11:36:32.310,156.345,-492.45000000000005,128.345,-2.4138919999999997,-0.924516,-2.724504,4
2024-06-14 11:36:32.315,139.3,-474.845,153.265,-2.539796,-1.05652,-2.36802,4
2024-06-14 11:36:32.319,102.62,-460.91499999999996,171.04500000000002,-2.35582,-1.007232,-1.805844,4
2024-06-14 11:36:32.324,39.97,-467.07500000000005,173.74,-1.458388,-0.788608,-0.6095119999999999,4
2024-06-14 11:36:32.329,-36.19,-452.48,151.025,-1.357372,-0.095404,-0.5795,4
2024-06-14 11:36:32.334,-48.230000000000004,-336.315,130.82999999999998,-1.7716839999999998,0.013907999999999997,-0.36819599999999997,4
2024-06-14 11:36:32.339,-24.255,-202.825,121.345,-2.1591560000000003,-0.47214,-0.58438,4
2024-06-14 11:36:32.344,-11.235,-86.83500000000001,102.41,-2.2557799999999997,-0.7573759999999999,-0.9433039999999999,4
2024-06-14 11:36:32.348,-15.54,10.185,73.78,-2.034472,-0.74298,-0.915488,4
2024-06-14 11:36:32.353,-25.865,88.095,47.67,-1.796816,-0.46725999999999995,-0.943792,4
2024-06-14 11:36:32.358,-36.68000000000001,149.51999999999998,25.759999999999998,-1.6055199999999998,-0.19861600000000001,-1.019676,4
2024-06-14 11:36:32.363,-48.58,192.53500000000003,6.6850000000000005,-1.43838,-0.12444,-1.097756,4
2024-06-14 11:36:32.368,-64.75,214.82999999999998,-9.625,-1.292224,-0.155672,-1.160708,4
2024-06-14 11:36:32.372,-83.405,223.265,-23.345,-1.179252,-0.16836,-1.154608,4
2024-06-14 11:36:32.376,-100.45,225.32999999999998,-34.86,-1.0799439999999998,-0.16055199999999997,-1.045784,4
2024-06-14 11:36:32.381,-112.77,227.43,-43.855000000000004,-1.003328,-0.17812,-0.872788,4
2024-06-14 11:36:32.386,-118.825,231.175,-50.715,-0.934032,-0.218868,-0.7390760000000001,4
2024-06-14 11:36:32.391,-119.41999999999999,236.145,-55.965,-0.854,-0.306952,-0.6683159999999999,4
2024-06-14 11:36:32.396,-116.06,242.06,-59.5,-0.788364,-0.40748,-0.632204,4
2024-06-14 11:36:32.401,-108.92,248.43,-61.144999999999996,-0.7256560000000001,-0.48482800000000004,-0.6129279999999999,4
2024-06-14 11:36:32.405,-98.35,255.185,-60.864999999999995,-0.675392,-0.529968,-0.593896,4
2024-06-14 11:36:32.410,-85.645,262.36,-58.730000000000004,-0.632692,-0.562664,-0.581696,4
2024-06-14 11:36:32.415,-72.13499999999999,269.99,-55.195,-0.596092,-0.5770599999999999,-0.57706,4
2024-06-14 11:36:32.420,-59.114999999999995,277.725,-50.47,-0.556076,-0.5848679999999999,-0.58926,4
2024-06-14 11:36:32.425,-47.144999999999996,286.055,-44.974999999999994,-0.5204519999999999,-0.5814520000000001,-0.6117079999999999,4
2024-06-14 11:36:32.430,-35.980000000000004,294.595,-38.92,-0.48556,-0.574376,-0.643672,4
2024-06-14 11:36:32.434,-25.725,303.625,-32.550000000000004,-0.448716,-0.562908,-0.685152,4
2024-06-14 11:36:32.439,-16.205,312.935,-26.11,-0.413092,-0.537044,-0.72346,4
2024-06-14 11:36:32.444,-8.05,322.28,-20.02,-0.378932,-0.5048360000000001,-0.766648,4
2024-06-14 11:36:32.449,-1.0150000000000001,331.275,-14.525,-0.355752,-0.462136,-0.8303320000000001,4
2024-06-14 11:36:32.454,5.005,339.885,-9.52,-0.317444,-0.435052,-0.887184,4
2024-06-14 11:36:32.459,9.45,348.32000000000005,-5.46,-0.285968,-0.399428,-0.950868,4
2024-06-14 11:36:32.463,12.705,355.985,-2.24,-0.254004,-0.354776,-1.0165039999999999,4
2024-06-14 11:36:32.468,14.0,362.985,0.14,-0.23253200000000002,-0.307196,-1.076528,4
2024-06-14 11:36:32.473,13.825,369.565,1.75,-0.218136,-0.26352,-1.129232,4
2024-06-14 11:36:32.478,12.39,375.54999999999995,2.345,-0.203496,-0.23497200000000001,-1.175592,4
2024-06-14 11:36:32.483,10.395,381.255,2.17,-0.182756,-0.220332,-1.227808,4
2024-06-14 11:36:32.488,8.435,386.29499999999996,1.295,-0.16299199999999997,-0.212036,-1.289784,4
2024-06-14 11:36:32.492,7.21,390.39,-0.315,-0.14274,-0.209596,-1.3542,4
2024-06-14 11:36:32.497,6.93,393.645,-2.275,-0.11760799999999999,-0.22106399999999998,-1.41154,4
2024-06-14 11:36:32.502,7.455,395.92,-4.305,-0.096136,-0.23887599999999998,-1.46888,4
2024-06-14 11:36:32.507,8.82,398.09000000000003,-6.58,-0.07075999999999999,-0.262544,-1.51646,4
2024-06-14 11:36:32.512,11.34,399.315,-8.96,-0.045871999999999996,-0.295972,-1.5652599999999999,4
2024-06-14 11:36:32.517,14.945,400.295,-11.55,-0.025863999999999998,-0.32256799999999997,-1.6103999999999998,4
2024-06-14 11:36:32.521,19.285,400.995,-14.07,-0.009028000000000001,-0.34355199999999997,-1.670668,4
2024-06-14 11:36:32.526,24.57,401.87,-16.8,0.016592,-0.36892800000000003,-1.7287399999999997,4
2024-06-14 11:36:32.531,30.450000000000003,402.46500000000003,-19.775,0.028548,-0.38308,-1.785836,4
2024-06-14 11:36:32.536,36.155,402.92,-23.03,0.048556,-0.398208,-1.847324,4
2024-06-14 11:36:32.541,41.475,403.2,-26.32,0.06099999999999999,-0.40772400000000003,-1.92516,4
2024-06-14 11:36:32.546,46.55,402.885,-29.68,0.07930000000000001,-0.41870399999999997,-1.9929919999999999,4
2024-06-14 11:36:32.550,51.519999999999996,402.36,-32.795,0.099552,-0.43968799999999997,-2.078392,4
2024-06-14 11:36:32.555,56.21,400.96000000000004,-35.805,0.12224399999999999,-0.467016,-2.1867280000000004,4
2024-06-14 11:36:32.560,60.760000000000005,399.35,-38.535,0.158356,-0.5033719999999999,-2.31556,4
2024-06-14 11:36:32.565,64.855,396.655,-41.405,0.202032,-0.5392399999999999,-2.45952,4
2024-06-14 11:36:32.570,68.845,393.015,-45.43,0.264008,-0.575108,-2.602992,4
2024-06-14 11:36:32.575,73.39500000000001,389.13,-50.54,0.34282,-0.608292,-2.7318240000000005,4
2024-06-14 11:36:32.579,78.61,385.35,-56.7,0.42114399999999996,-0.641964,-2.84748,4
2024-06-14 11:36:32.584,84.28,382.44500000000005,-63.665,0.5124,-0.685152,-2.9514240000000003,4
2024-06-14 11:36:32.589,90.37,380.31,-71.47,0.6024360000000001,-0.7302919999999999,-3.053172,4
2024-06-14 11:36:32.594,97.09,379.47,-79.625,0.7041839999999999,-0.7461519999999999,-3.086356,4
2024-06-14 11:36:32.599,106.08500000000001,380.52,-88.97,0.8137399999999999,-0.671732,-3.054392,4
2024-06-14 11:36:32.604,121.94,382.865,-99.505,0.906948,-0.6056079999999999,-3.127836,4
2024-06-14 11:36:32.609,136.325,385.84000000000003,-108.91999999999999,1.0789680000000001,-0.593408,-3.2683799999999996,4
2024-06-14 11:36:32.613,142.695,389.54999999999995,-117.285,1.347856,-0.526064,-3.3676880000000002,4
2024-06-14 11:36:32.618,141.54000000000002,393.225,-126.0,1.6072279999999999,-0.443836,-3.379644,4
2024-06-14 11:36:32.623,136.675,395.5,-133.875,1.8587919999999998,-0.371856,-3.352804,4
2024-06-14 11:36:32.628,131.04,396.69,-139.57999999999998,2.1569599999999998,-0.303292,-3.29888,4
2024-06-14 11:36:32.633,125.3,394.345,-142.45,2.521984,-0.227408,-3.216652,4
2024-06-14 11:36:32.638,119.035,385.665,-141.85500000000002,2.9497159999999996,-0.148596,-3.142232,4
2024-06-14 11:36:32.642,111.61500000000001,367.885,-136.185,3.474804,-0.08052,-3.0724479999999996,4
2024-06-14 11:36:32.647,103.07499999999999,340.095,-123.795,4.200948,-0.053924,-2.890424,4
2024-06-14 11:36:32.652,96.95,304.04499999999996,-107.31,4.9541759999999995,-0.05685199999999999,-2.45586,4
2024-06-14 11:36:32.657,94.88499999999999,263.375,-78.53999999999999,5.654944,-0.15616,-1.9837200000000001,4
2024-06-14 11:36:32.662,82.6,222.46,-35.595,6.3557120000000005,-0.288896,-1.5618439999999998,4
2024-06-14 11:36:32.667,53.269999999999996,179.445,18.025,6.855912,-0.425292,-1.2758759999999998,4
2024-06-14 11:36:32.671,10.465,132.965,79.66,7.1418800000000005,-0.529724,-1.066036,4
2024-06-14 11:36:32.676,-19.915,90.37,140.63,7.401496,-0.495076,-0.701012,4
2024-06-14 11:36:32.681,-25.62,52.709999999999994,190.05,7.399056,-0.48287599999999997,-0.599264,4
2024-06-14 11:36:32.686,-16.17,11.62,227.14999999999998,6.974252,-0.390888,-0.866932,4
2024-06-14 11:36:32.691,0.03499999999999992,-34.754999999999995,253.29500000000002,6.304472,-0.186904,-1.160708,4
2024-06-14 11:36:32.696,10.885,-81.9,267.645,5.55222,0.020496,-1.3283359999999997,4
2024-06-14 11:36:32.700,15.05,-124.53,271.88,4.455196,-0.17299599999999998,-1.298568,4
