time,gyroscope_x,gyroscope_y,gyroscope_z,accelerometer_x,accelerometer_y,accelerometer_z,phase
2024-06-14 12:20:31.587,207.06,-368.725,-45.99,4.849743999999999,-1.0706719999999998,-3.2622799999999996,1
2024-06-14 12:20:31.592,253.785,-259.56,-65.135,-2.0744879999999997,0.658068,2.0791239999999998,1
2024-06-14 12:20:31.597,357.28,-291.16499999999996,-80.71000000000001,0.26571600000000006,-0.07686,-1.9905519999999999,1
2024-06-14 12:20:31.602,373.45000000000005,-295.47,-70.56,-1.9764,-0.044408,-1.72142,1
2024-06-14 12:20:31.607,383.005,-302.435,-56.735,-0.79788,0.174704,-1.735816,1
2024-06-14 12:20:31.611,373.94,-313.145,-37.94,0.009028000000000008,0.14493599999999998,-2.12158,1
2024-06-14 12:20:31.616,293.615,-313.95,-9.204999999999998,0.473604,-0.048068,-2.52174,1
2024-06-14 12:20:31.621,173.25,-315.42,26.810000000000002,0.503128,-0.250344,-2.459764,1
2024-06-14 12:20:31.626,79.83500000000001,-316.015,59.849999999999994,0.38552,-0.19690799999999997,-2.161108,2
2024-06-14 12:20:31.631,14.28,-310.38,73.78,0.205448,-0.4514,-2.305312,2
2024-06-14 12:20:31.635,-0.31499999999999995,-287.66499999999996,59.394999999999996,0.168604,-0.829356,-2.416576,2
2024-06-14 12:20:31.640,6.44,-248.57,22.785,0.195688,-0.850584,-2.361676,2
2024-06-14 12:20:31.645,15.295000000000002,-219.27499999999998,-11.795,0.169092,-0.516548,-2.1484199999999998,2
2024-06-14 12:20:31.650,8.959999999999999,-187.91500000000002,-28.42,0.10589599999999999,-0.174704,-1.838784,2
2024-06-14 12:20:31.655,-1.505,-166.005,-24.92,0.11175199999999999,0.16909200000000002,-1.707268,2
2024-06-14 12:20:31.659,-8.469999999999999,-142.66,-5.67,0.12858799999999998,0.41138399999999997,-1.66652,2
2024-06-14 12:20:31.664,-1.19,-112.28,17.675,0.1708,0.343308,-1.5486680000000002,2
2024-06-14 12:20:31.669,5.635,-93.41499999999999,30.135,0.11516799999999999,0.195932,-1.3905560000000001,2
2024-06-14 12:20:31.674,10.045,-79.625,32.06,0.08637600000000001,-0.021716,-1.3183319999999998,2
2024-06-14 12:20:31.679,9.975,-62.790000000000006,25.83,0.044164,-0.136152,-1.2380559999999998,2
2024-06-14 12:20:31.684,8.190000000000001,-43.75,16.17,0.051484,-0.105408,-1.156804,2
2024-06-14 12:20:31.688,7.0,-34.16,11.165,0.11809599999999998,-0.013908,-1.1114199999999999,2
2024-06-14 12:20:31.693,7.49,-26.95,10.5,0.08857200000000001,0.036356,-1.124352,2
2024-06-14 12:20:31.698,8.925,-22.05,10.535,0.115412,0.08027599999999999,-1.143872,2
2024-06-14 12:20:31.703,11.795,-20.02,8.54,0.060268,0.006344000000000001,-1.1119080000000001,2
2024-06-14 12:20:31.708,12.565000000000001,-17.78,4.795,0.010491999999999996,-0.030012000000000004,-1.1126399999999999,2
2024-06-14 12:20:31.712,9.870000000000001,-16.87,0.665,0.0060999999999999995,-0.040992,-1.101416,2
2024-06-14 12:20:31.717,5.845000000000001,-15.715,-1.05,-0.0034159999999999998,-0.01342,-1.090436,2
2024-06-14 12:20:31.722,2.8,-16.975,-1.365,-0.010248,0.0183,-1.077992,2
2024-06-14 12:20:31.727,1.3650000000000002,-18.130000000000003,-0.98,-0.019032,0.027084,-1.064572,2
2024-06-14 12:20:31.732,1.505,-19.6,-1.3650000000000002,-0.03489199999999999,0.037087999999999996,-1.043832,2
2024-06-14 12:20:31.736,2.17,-21.945,-2.135,-0.034648,0.017324,-1.044076,2
2024-06-14 12:20:31.741,2.5549999999999997,-23.1,-3.08,-0.011712,0.02928,-1.053348,2
2024-06-14 12:20:31.746,2.205,-24.71,-3.15,-0.028303999999999996,0.0068319999999999995,-1.066524,2
2024-06-14 12:20:31.751,0.525,-26.215,-3.185,-0.04026,0.00244,-1.0687200000000001,2
2024-06-14 12:20:31.756,-1.0150000000000001,-27.72,-2.7649999999999997,-0.016347999999999994,0.0034160000000000006,-1.062132,2
2024-06-14 12:20:31.760,-3.01,-29.049999999999997,-3.675,-0.038552,-0.0053679999999999995,-1.073356,2
2024-06-14 12:20:31.765,-4.725,-30.52,-3.395,-0.054656,0.015615999999999998,-1.065792,2
2024-06-14 12:20:31.769,-5.74,-32.585,-3.99,-0.08003199999999999,-0.002196,-1.0860439999999998,2
2024-06-14 12:20:31.771,-7.0,-34.230000000000004,-4.0600000000000005,-0.00024400000000000116,0.03928399999999999,-1.055056,2
2024-06-14 12:20:31.776,-7.35,-36.855000000000004,-4.025,-0.053924,-0.0068319999999999995,-1.0618880000000002,2
2024-06-14 12:20:31.781,-7.805,-38.78,-4.025,0.0009759999999999977,0.035379999999999995,-1.039928,2
2024-06-14 12:20:31.785,-7.595,-41.16,-4.2700000000000005,0.010735999999999999,-0.020496,-1.059692,2
2024-06-14 12:20:31.790,-8.155000000000001,-43.925,-4.27,-0.10223600000000001,-0.010735999999999999,-1.076772,2
2024-06-14 12:20:31.795,-8.645,-46.025,-4.27,-0.131272,0.0056119999999999955,-1.099952,2
2024-06-14 12:20:31.800,-5.8100000000000005,-41.3,-3.885,-0.076372,-0.004635999999999994,-1.103368,2
2024-06-14 12:20:31.805,-8.155,-50.54,-4.305,0.055632,0.022691999999999997,-1.0140639999999999,2
2024-06-14 12:20:31.810,-8.855,-75.6,-3.99,-0.08296,0.043676,-1.059448,2
2024-06-14 12:20:31.815,-7.035,-53.41,-3.885,0.048799999999999996,0.062220000000000004,-1.0289479999999998,2
2024-06-14 12:20:31.819,-4.445,-55.37,-4.445,-0.032451999999999995,0.041479999999999996,-1.056032,2
2024-06-14 12:20:31.824,-2.73,-56.839999999999996,-4.585,0.07295600000000001,0.037087999999999996,-1.027728,2
2024-06-14 12:20:31.829,-10.815000000000001,-1.3999999999999986,-3.535,0.110288,0.049776,-0.9769760000000001,2
2024-06-14 12:20:31.834,1.0850000000000004,-63.910000000000004,-3.57,-0.10662799999999999,0.060268,-1.050176,2
2024-06-14 12:20:31.839,3.045,-58.975,-3.8149999999999995,0.16958,0.05612,-0.971608,2
2024-06-14 12:20:31.844,3.045,-53.305,-6.405,0.0026840000000000006,0.038307999999999995,-1.0377319999999999,2
2024-06-14 12:20:31.848,7.77,-54.285,-5.285,0.065636,0.053436,-0.998692,2
2024-06-14 12:20:31.853,2.835,-53.620000000000005,-4.2,0.037576,0.0305,-1.04066,2
2024-06-14 12:20:31.858,9.38,-52.36,-4.41,0.059536,0.035624,-1.01626,2
2024-06-14 12:20:31.863,5.285,-51.275000000000006,-6.44,0.05709600000000001,0.022204,-1.0362679999999997,2
2024-06-14 12:20:31.868,7.875,-50.715,-5.984999999999999,0.06368399999999999,0.020984,-1.0255319999999999,2
2024-06-14 12:20:31.873,5.25,-52.465,-4.83,0.06783199999999999,0.025863999999999998,-1.03334,2
2024-06-14 12:20:31.878,6.755000000000001,-54.53,-4.375,0.0732,0.02562,-1.0274839999999998,2
2024-06-14 12:20:31.882,9.24,-53.725,-5.005,0.078324,0.020252,-1.042368,2
2024-06-14 12:20:31.887,12.04,-53.69,-5.215,0.080276,0.023668,-1.0360239999999998,2
2024-06-14 12:20:31.892,8.54,-72.065,-3.99,0.090036,0.025619999999999997,-1.037,2
2024-06-14 12:20:31.897,11.305,-49.525,-4.27,0.084668,0.028547999999999997,-1.056032,2
2024-06-14 12:20:31.902,4.76,-53.935,-5.109999999999999,0.090036,-0.003904,-1.0592039999999998,2
2024-06-14 12:20:31.907,1.26,-52.885000000000005,-5.495,0.09662399999999999,0.004148000000000001,-1.0736,2
2024-06-14 12:20:31.911,-2.45,-50.295,-5.46,0.098332,0.009271999999999999,-1.064816,2
2024-06-14 12:20:31.916,-5.705,-49.28,-5.285,0.10980000000000001,0.009028,-1.022848,2
2024-06-14 12:20:31.921,-5.495,-46.760000000000005,-4.9350000000000005,0.114924,0.016592,-1.0126,2
2024-06-14 12:20:31.926,-6.4399999999999995,-45.5,-5.075,0.11077599999999999,0.02074,-1.02358,2
2024-06-14 12:20:31.931,-7.595000000000001,-44.415,-5.355,0.116632,0.017812,-1.003816,2
2024-06-14 12:20:31.936,-7.28,-42.980000000000004,-5.495,0.127612,0.03172,-1.003328,2
2024-06-14 12:20:31.941,-5.355,-40.565,-5.67,0.12443999999999998,0.04148,-1.006744,2
2024-06-14 12:20:31.945,-4.445,-41.58,-6.4399999999999995,0.12102399999999999,0.038308,-1.01992,2
2024-06-14 12:20:31.950,-3.71,-41.685,-7.035,0.12322,0.054655999999999996,-1.04676,2
2024-06-14 12:20:31.955,-4.62,-44.695,-7.525,0.124196,0.032696,-1.0748199999999999,2
2024-06-14 12:20:31.960,-3.885,-46.375,-7.699999999999999,0.12566,0.052947999999999995,-1.06262,2
2024-06-14 12:20:31.965,-4.34,-49.84,-8.435,0.127612,0.036112,-1.104832,2
2024-06-14 12:20:31.970,-5.11,-53.06,-9.135,0.13346799999999998,0.046604,-1.089948,2
2024-06-14 12:20:31.974,-7.56,-59.43,-9.275,0.141032,0.065392,-1.1575360000000001,2
2024-06-14 12:20:31.979,-5.74,-59.815,-10.15,0.132492,0.045627999999999995,-1.1738840000000001,2
2024-06-14 12:20:31.984,-3.8499999999999996,-62.685,-9.485,0.138348,0.03416,-1.156072,2
2024-06-14 12:20:31.989,-6.404999999999999,-68.81,-10.815000000000001,0.149084,0.048311999999999994,-1.2099959999999998,2
2024-06-14 12:20:31.994,-4.62,-73.15,-11.059999999999999,0.155184,0.049288,-1.189988,2
2024-06-14 12:20:31.999,-6.37,-75.91499999999999,-11.83,0.17812,0.033428,-1.144116,2
2024-06-14 12:20:32.004,-7.945,-79.065,-11.34,0.15201199999999998,0.00048799999999999994,-1.212192,2
2024-06-14 12:20:32.008,-11.55,-84.07,-11.27,0.15884399999999999,0.018299999999999997,-1.2319559999999998,2
2024-06-14 12:20:32.013,-14.594999999999999,-91.07,-11.48,0.166652,0.012688,-1.258064,2
2024-06-14 12:20:32.018,-17.325,-97.72,-11.515,0.169824,0.033184,-1.272704,2
2024-06-14 12:20:32.023,-19.705,-102.305,-11.690000000000001,0.178608,0.035868000000000004,-1.237568,2
2024-06-14 12:20:32.028,-23.1,-107.52,-12.04,0.17299599999999998,0.022691999999999997,-1.324432,2
2024-06-14 12:20:32.033,-24.955,-114.38,-12.075,0.178608,0.035136,-1.32126,2
2024-06-14 12:20:32.037,-27.09,-122.00999999999999,-12.425,0.177632,0.027572000000000003,-1.377136,2
2024-06-14 12:20:32.042,-27.86,-131.95,-12.670000000000002,0.17714400000000002,0.021471999999999998,-1.3783560000000001,2
2024-06-14 12:20:32.047,-26.880000000000003,-139.57999999999998,-12.495000000000001,0.18031599999999998,0.02318,-1.36274,2
2024-06-14 12:20:32.052,-28.560000000000002,-147.59500000000003,-13.02,0.191784,0.066124,-1.4478959999999998,2
2024-06-14 12:20:32.057,-31.57,-161.28,-14.21,0.17153200000000002,0.039284,-1.4708320000000001,2
2024-06-14 12:20:32.062,-32.41,-173.74,-14.629999999999999,0.188124,0.02928,-1.44692,2
2024-06-14 12:20:32.067,-32.69,-186.41,-15.015,0.19056399999999998,0.040748000000000006,-1.471808,2
2024-06-14 12:20:32.071,-32.095,-199.36,-15.645,0.19202799999999998,0.047336,-1.48474,2
2024-06-14 12:20:32.076,-31.884999999999998,-213.885,-16.345,0.17104399999999997,0.032452,-1.5389079999999997,2
2024-06-14 12:20:32.081,-31.325,-226.51999999999998,-16.905,0.17470399999999997,0.066612,-1.5428119999999999,2
2024-06-14 12:20:32.086,-30.975,-242.13,-17.92,0.173484,0.050019999999999995,-1.608204,2
2024-06-14 12:20:32.091,-31.255,-259.07,-19.25,0.17177599999999998,0.108092,-1.670912,2
2024-06-14 12:20:32.096,-31.92,-278.74,-21.21,0.170068,0.102236,-1.7870559999999998,2
2024-06-14 12:20:32.100,-32.445,-297.08,-22.785,0.18202400000000002,0.12492799999999998,-1.921256,2
2024-06-14 12:20:32.105,-30.134999999999998,-319.13,-24.814999999999998,0.14957199999999998,0.151524,-1.964688,2
2024-06-14 12:20:32.110,-30.03,-345.94,-28.035,0.13907999999999998,0.18690400000000001,-2.013732,2
2024-06-14 12:20:32.115,-33.355,-372.78499999999997,-31.884999999999998,0.12151200000000001,0.195932,-2.0252,3
2024-06-14 12:20:32.120,-35.175,-401.65999999999997,-35.7,0.20910800000000002,0.191296,-2.246752,3
2024-06-14 12:20:32.125,-42.805,-434.03499999999997,-39.129999999999995,0.20910800000000002,0.22106399999999998,-2.586156,3
2024-06-14 12:20:32.130,-38.5,-464.625,-40.88,0.20666800000000002,0.1281,-2.8887159999999996,3
2024-06-14 12:20:32.134,-26.565,-492.835,-38.150000000000006,0.277672,0.135664,-3.1036799999999998,3
2024-06-14 12:20:32.139,-19.705,-508.30499999999995,-33.39,0.42236399999999996,0.284748,-3.539708,3
2024-06-14 12:20:32.144,-21.560000000000002,-522.62,-34.125,0.407968,0.17665599999999998,-3.5455639999999997,3
2024-06-14 12:20:32.149,-4.865,-532.63,-31.29,0.511424,0.08784,-3.77956,3
2024-06-14 12:20:32.154,-10.605,-548.52,-29.505000000000003,0.35087199999999996,0.362096,-3.810792,3
2024-06-14 12:20:32.159,-13.79,-553.98,-32.69,0.23399599999999998,0.31964,-3.69904,3
2024-06-14 12:20:32.163,2.94,-556.4300000000001,-37.135,0.33110799999999996,0.017567999999999997,-3.70514,3
2024-06-14 12:20:32.168,40.46,-567.245,-30.905,0.178364,-0.034159999999999996,-3.721732,3
2024-06-14 12:20:32.173,58.065,-583.555,-24.185000000000002,0.049288,0.39259599999999995,-3.517016,3
2024-06-14 12:20:32.178,50.47,-591.745,-24.43,-0.26278799999999997,0.7871439999999998,-3.207136,3
2024-06-14 12:20:32.183,35.875,-588.385,-32.095,-0.369904,0.8435079999999999,-2.945812,3
2024-06-14 12:20:32.188,23.695,-576.24,-37.8,-0.7302919999999999,0.7139439999999999,-2.499048,3
2024-06-14 12:20:32.193,10.780000000000001,-550.0250000000001,-50.05,-1.013088,0.910608,-2.045696,3
2024-06-14 12:20:32.197,6.23,-530.985,-59.185,-1.591856,1.362984,-2.230648,3
2024-06-14 12:20:32.202,-27.825,-508.69,-81.375,-1.4837639999999999,1.4161759999999999,-2.2509,3
2024-06-14 12:20:32.207,-74.97,-489.475,-102.725,-1.5428119999999999,1.331508,-2.376316,3
2024-06-14 12:20:32.212,-123.97,-468.125,-135.38,-1.468636,1.175592,-2.552972,3
2024-06-14 12:20:32.217,-168.7,-451.71,-179.865,-1.025288,1.133624,-2.324832,3
2024-06-14 12:20:32.222,-168.49,-471.52,-201.39,-0.421388,0.863516,-1.514752,3
2024-06-14 12:20:32.226,-146.195,-398.125,-208.04000000000002,-1.371524,0.294752,-1.539396,3
2024-06-14 12:20:32.231,-134.4,-260.12,-200.06,-2.4614719999999997,-0.10736,-1.185108,3
2024-06-14 12:20:32.236,-84.97999999999999,-119.49,-162.29500000000002,-2.311656,-0.35453199999999996,-0.7212639999999999,3
2024-06-14 12:20:32.241,-13.755,4.234999999999999,-107.695,-1.9703,-0.501664,-0.955992,3
2024-06-14 12:20:32.246,37.135,111.44,-57.435,-1.904664,-0.508984,-1.232932,3
2024-06-14 12:20:32.251,73.11500000000001,201.74,-12.319999999999999,-1.790228,-0.335744,-1.1529,3
2024-06-14 12:20:32.256,104.02,264.74,21.490000000000002,-1.4715639999999999,-0.09784400000000001,-1.183888,3
2024-06-14 12:20:32.260,122.36,306.635,38.92,-1.2700200000000001,0.06319599999999999,-1.269776,4
2024-06-14 12:20:32.265,123.83,336.105,46.2,-1.1733959999999999,0.20569199999999999,-1.1843759999999999,4
2024-06-14 12:20:32.270,117.03999999999999,359.835,48.44,-1.0992199999999999,0.311832,-1.0531039999999998,4
2024-06-14 12:20:32.275,106.155,379.82,45.71,-1.028704,0.372344,-0.9811239999999999,4
2024-06-14 12:20:32.280,91.35,397.91499999999996,38.64,-0.965508,0.406748,-0.970144,4
2024-06-14 12:20:32.285,73.78,413.385,29.75,-0.884012,0.41846000000000005,-1.0104039999999999,4
2024-06-14 12:20:32.289,54.879999999999995,424.06,20.475,-0.75518,0.427488,-1.084336,4
2024-06-14 12:20:32.294,35.91,430.815,10.43,-0.6612399999999999,0.40747999999999995,-1.101904,4
2024-06-14 12:20:32.299,18.515,434.105,0.17500000000000004,-0.607072,0.35624,-1.0765280000000002,4
2024-06-14 12:20:32.304,4.27,434.98,-9.415000000000001,-0.5441199999999999,0.30231600000000003,-1.03212,4
2024-06-14 12:20:32.309,-6.65,432.985,-17.92,-0.48507199999999995,0.25498,-1.0360239999999998,4
2024-06-14 12:20:32.314,-14.945,429.135,-25.06,-0.42456,0.20569199999999999,-1.057008,4
2024-06-14 12:20:32.321,-19.775,424.515,-30.765,-0.37576,0.151524,-1.069208,4
2024-06-14 12:20:32.325,-22.085,420.7,-34.965,-0.340136,0.09759999999999999,-1.086044,4
2024-06-14 12:20:32.330,-22.155,418.95,-37.519999999999996,-0.32988799999999996,0.051727999999999996,-1.110688,4
2024-06-14 12:20:32.335,-19.565,419.58,-38.254999999999995,-0.32842399999999994,0.011224,-1.150216,4
2024-06-14 12:20:32.340,-14.77,422.975,-36.995000000000005,-0.340136,-0.017324,-1.199992,4
2024-06-14 12:20:32.345,-8.89,428.29499999999996,-34.3,-0.353556,-0.01464,-1.259528,4
2024-06-14 12:20:32.349,-2.835,435.12,-30.835,-0.35794800000000004,0.0017080000000000003,-1.327604,4
2024-06-14 12:20:32.354,2.66,442.67999999999995,-26.564999999999998,-0.33427999999999997,0.019763999999999997,-1.392264,4
2024-06-14 12:20:32.359,7.84,450.485,-21.805,-0.314272,0.056608000000000006,-1.43838,4
2024-06-14 12:20:32.364,11.375,457.8,-17.5,-0.304756,0.115656,-1.492548,4
2024-06-14 12:20:32.369,12.075,464.65999999999997,-14.350000000000001,-0.279868,0.17787599999999998,-1.540128,4
2024-06-14 12:20:32.374,10.43,470.575,-12.004999999999999,-0.24790399999999999,0.235948,-1.581852,4
2024-06-14 12:20:32.378,6.615,475.37,-10.57,-0.21301199999999998,0.29987600000000003,-1.628212,4
2024-06-14 12:20:32.383,0.45500000000000007,479.01,-10.01,-0.166164,0.354776,-1.6862840000000001,4
2024-06-14 12:20:32.388,-7.5600000000000005,480.655,-10.045,-0.106628,0.41138399999999997,-1.7680239999999998,4
2024-06-14 12:20:32.393,-16.94,479.92,-10.254999999999999,-0.050263999999999996,0.448716,-1.85318,4
2024-06-14 12:20:32.398,-26.705,477.505,-9.73,0.012444,0.46799199999999996,-1.914668,4
2024-06-14 12:20:32.403,-35.14,474.355,-7.63,0.039527999999999994,0.475068,-1.990308,4
2024-06-14 12:20:32.407,-43.785,471.87,-4.9350000000000005,0.066612,0.488732,-2.018856,4
2024-06-14 12:20:32.412,-52.22,468.825,-1.295,0.098332,0.49971199999999993,-2.08986,4
2024-06-14 12:20:32.417,-60.620000000000005,465.255,3.465,0.12370799999999998,0.521428,-2.172332,4
2024-06-14 12:20:32.422,-69.44,461.09000000000003,8.995000000000001,0.142496,0.5424119999999999,-2.262612,4
2024-06-14 12:20:32.427,-78.85499999999999,456.78499999999997,14.805,0.15982,0.568032,-2.361676,4
2024-06-14 12:20:32.432,-89.11,452.97,21.0,0.165676,0.597556,-2.489044,4
2024-06-14 12:20:32.436,-99.96000000000001,450.52,27.37,0.193736,0.6226879999999999,-2.6391039999999997,4
2024-06-14 12:20:32.441,-110.91499999999999,449.71500000000003,34.334999999999994,0.255712,0.6378159999999999,-2.794288,4
2024-06-14 12:20:32.446,-119.84,450.695,41.614999999999995,0.365024,0.6502600000000001,-2.93776,4
2024-06-14 12:20:32.451,-126.035,453.075,49.595,0.539484,0.674172,-3.072936,4
2024-06-14 12:20:32.456,-128.31,455.14,58.03,0.7376119999999999,0.7202879999999999,-3.200548,4
2024-06-14 12:20:32.461,-128.45,455.455,66.395,0.9362280000000001,0.7832399999999999,-3.294244,4
2024-06-14 12:20:32.465,-128.695,453.25,73.64,1.126304,0.872544,-3.3432879999999994,4
2024-06-14 12:20:32.470,-131.425,448.245,78.435,1.316624,0.95404,-3.178588,4
2024-06-14 12:20:32.475,-155.925,440.02,79.555,1.27856,0.833504,-3.224704,4
2024-06-14 12:20:32.480,-225.47,426.58000000000004,75.6,1.465464,0.7412719999999999,-3.362808,4
2024-06-14 12:20:32.485,-283.22,413.98,71.645,1.822924,0.501908,-3.450648,4
2024-06-14 12:20:32.489,-309.47,397.18,70.315,2.160864,0.24522,-3.5099400000000003,4
2024-06-14 12:20:32.494,-306.88,383.53,73.43,2.4273119999999997,0.115412,-3.499448,4
2024-06-14 12:20:32.499,-277.515,368.795,94.36,2.75842,-0.032696,-3.30376,4
2024-06-14 12:20:32.504,-239.015,354.83,84.77000000000001,3.318644,-0.591944,-3.1266160000000003,4
2024-06-14 12:20:32.509,-197.89,337.26,95.27,3.7327120000000003,-0.706868,-2.867,4
2024-06-14 12:20:32.514,-167.57999999999998,315.735,104.09,4.14556,-0.711504,-2.735728,4
2024-06-14 12:20:32.518,-144.2,283.46500000000003,106.435,4.595008,-0.721996,-2.4187719999999997,4
2024-06-14 12:20:32.523,-118.44,243.52999999999997,100.275,4.88,-0.616832,-2.1567160000000003,4
2024-06-14 12:20:32.528,-100.065,200.79500000000002,82.565,5.19232,-0.49873600000000007,-1.984452,4
2024-06-14 12:20:32.533,-92.61,156.975,54.285,5.5261119999999995,-0.475556,-1.913204,4
2024-06-14 12:20:32.538,-88.34,113.19,19.6,5.764744,-0.6034120000000001,-1.855376,4
2024-06-14 12:20:32.543,-76.965,70.945,-14.735,5.82916,-0.8203280000000001,-1.779736,4
2024-06-14 12:20:32.547,-51.379999999999995,29.82,-43.05,5.7401,-1.075552,-1.70678,4
2024-06-14 12:20:32.552,-15.925,-11.129999999999999,-61.25,5.526599999999999,-1.2968600000000001,-1.6914079999999998,4
2024-06-14 12:20:32.557,22.225,-51.065,-67.34,5.206472,-1.390312,-1.705072,4
2024-06-14 12:20:32.562,56.80500000000001,-87.78,-63.56,4.803872,-1.355664,-1.715076,4
2024-06-14 12:20:32.567,83.895,-118.965,-53.795,4.3841920000000005,-1.198528,-1.75558,4
2024-06-14 12:20:32.572,111.23,-155.19,-43.05,3.9223,-0.36648800000000004,-1.378844,4
