time,gyroscope_x,gyroscope_y,gyroscope_z,accelerometer_x,accelerometer_y,accelerometer_z,phase
2024-06-14 12:42:23.125,-254.94,-312.62,-21.77,4.025512,2.9455679999999997,-8.849879999999999,1
2024-06-14 12:42:23.130,-107.66,-213.36,3.85,-4.354424,0.743712,2.0374,1
2024-06-14 12:42:23.135,-135.17,-94.29,23.03,-0.43432,-0.00732,-0.5690080000000001,1
2024-06-14 12:42:23.140,-33.25,-67.48,37.1,-2.080832,0.314272,-1.138992,1
2024-06-14 12:42:23.145,-82.88,-131.81,12.67,-0.70028,0.24156,-1.162904,1
2024-06-14 12:42:23.149,-9.1,-198.38,7.35,0.031232,0.23326399999999997,-1.460096,1
2024-06-14 12:42:23.154,-17.5,-308.0,10.71,0.795928,0.038064,-1.891488,1
2024-06-14 12:42:23.159,0.63,-446.32,8.89,0.978928,-0.236192,-2.397544,1
2024-06-14 12:42:23.164,24.78,-399.98,-11.76,0.7461519999999999,-0.219112,-2.741584,1
2024-06-14 12:42:23.169,26.88,-328.44,-40.04,0.515328,-0.167872,-2.7337759999999998,1
2024-06-14 12:42:23.173,46.34,-262.99,-56.21,0.199592,-0.121024,-2.589328,1
2024-06-14 12:42:23.178,31.08,-212.17,-63.35,0.188856,0.185928,-2.440976,1
2024-06-14 12:42:23.183,34.79,-170.1,-54.53,0.299632,0.494832,-2.160376,1
2024-06-14 12:42:23.188,17.15,-136.85,-27.09,0.457744,0.549488,-1.919792,1
2024-06-14 12:42:23.193,19.46,-122.15,9.1,0.430904,0.470432,-1.752408,2
2024-06-14 12:42:23.198,13.02,-108.85,29.05,0.30256,0.238632,-1.595272,2
2024-06-14 12:42:23.202,17.01,-95.9,25.27,0.08052,-0.034159999999999996,-1.3898240000000002,2
2024-06-14 12:42:23.207,13.09,-84.91,6.3,-0.08539999999999999,-0.09028,-1.108736,2
2024-06-14 12:42:23.212,8.4,-77.35,-7.21,-0.069296,-0.08491199999999999,-1.006744,2
2024-06-14 12:42:23.217,0.49,-69.58,-9.38,-0.001952,0.081496,-0.98576,2
2024-06-14 12:42:23.222,-6.02,-60.69,-5.39,0.09955199999999999,0.193736,-1.0462719999999999,2
2024-06-14 12:42:23.226,-2.1,-49.35,-0.14,0.166896,0.26156799999999997,-1.077016,2
2024-06-14 12:42:23.231,2.87,-41.72,2.03,0.137616,0.209352,-1.110688,2
2024-06-14 12:42:23.236,8.4,-36.26,1.12,0.07564,0.10394400000000001,-1.092144,2
2024-06-14 12:42:23.241,6.72,-31.43,-2.24,0.013663999999999999,0.048312,-1.053104,2
2024-06-14 12:42:23.246,5.11,-28.35,-4.34,0.009272,0.073688,-1.023336,2
2024-06-14 12:42:23.250,4.69,-25.69,-3.36,0.029768,0.13224799999999998,-1.059448,2
2024-06-14 12:42:23.255,6.16,-23.38,-1.47,0.024887999999999997,0.13419999999999999,-1.110688,2
2024-06-14 12:42:23.260,7.77,-23.24,-1.61,0.0034159999999999998,0.103456,-1.135576,2
2024-06-14 12:42:23.265,6.58,-25.62,-3.5,-0.015128,0.07173600000000001,-1.1126399999999999,2
2024-06-14 12:42:23.270,5.53,-27.51,-3.92,-0.017567999999999997,0.07564,-1.071648,2
2024-06-14 12:42:23.274,4.9,-27.51,-2.94,0.004391999999999999,0.102968,-1.05164,2
2024-06-14 12:42:23.279,5.04,-25.76,-2.45,0.018056000000000003,0.098576,-1.03212,2
2024-06-14 12:42:23.284,4.34,-23.8,-2.73,-0.005368,0.10736,-1.035536,2
2024-06-14 12:42:23.289,4.2,-22.33,-3.08,-0.004391999999999999,0.108336,-1.047248,2
2024-06-14 12:42:23.294,4.62,-22.05,-2.8,-0.005368,0.1464,-1.0462719999999999,2
2024-06-14 12:42:23.299,6.02,-22.33,-2.94,-0.00244,0.14103200000000002,-1.054568,2
2024-06-14 12:42:23.303,7.7,-22.47,-3.57,-0.0068319999999999995,0.119072,-1.054568,2
2024-06-14 12:42:23.308,8.82,-22.54,-4.13,-0.007808,0.112728,-1.049688,2
2024-06-14 12:42:23.313,11.2,-22.61,-3.99,-0.000976,0.111264,-1.054568,2
2024-06-14 12:42:23.318,12.74,-22.61,-3.57,0.002928,0.10736,-1.0492000000000001,2
2024-06-14 12:42:23.323,13.16,-23.24,-3.57,-0.000488,0.105408,-1.04432,2
2024-06-14 12:42:23.327,13.44,-23.38,-3.71,0.005856,0.10248,-1.040904,2
2024-06-14 12:42:23.332,13.51,-23.38,-3.85,0.018544,0.089792,-1.039928,2
2024-06-14 12:42:23.337,13.58,-24.01,-3.29,0.010248,0.092232,-1.032608,2
2024-06-14 12:42:23.342,13.58,-23.94,-3.15,0.00976,0.09467199999999999,-1.0340719999999999,2
2024-06-14 12:42:23.347,14.07,-24.78,-3.36,0.023912,0.098576,-1.0287039999999998,2
2024-06-14 12:42:23.351,14.21,-25.13,-3.01,0.020007999999999998,0.104432,-1.020896,2
2024-06-14 12:42:23.356,14.28,-24.85,-3.01,0.024399999999999998,0.112728,-1.011624,2
2024-06-14 12:42:23.361,14.14,-24.22,-3.08,0.025376,0.101992,-1.011136,2
2024-06-14 12:42:23.366,14.21,-24.01,-3.22,0.033671999999999994,0.10052799999999999,-1.010648,2
2024-06-14 12:42:23.371,14.0,-22.75,-3.71,0.038552,0.103456,-1.010648,2
2024-06-14 12:42:23.375,13.65,-20.79,-3.71,0.043432000000000005,0.098576,-1.003328,2
2024-06-14 12:42:23.380,13.51,-21.21,-3.78,0.034648,0.091744,-1.01016,2
2024-06-14 12:42:23.385,13.16,-20.37,-3.85,0.035135999999999994,0.09272,-1.007232,2
2024-06-14 12:42:23.390,12.88,-20.16,-4.13,0.036112000000000005,0.09516,-1.0126,2
2024-06-14 12:42:23.395,12.53,-19.46,-4.27,0.040015999999999996,0.091744,-1.013576,2
2024-06-14 12:42:23.400,11.76,-18.06,-4.2,0.042455999999999994,0.081008,-1.01016,2
2024-06-14 12:42:23.404,9.87,-28.49,-3.99,0.042944,0.07466400000000001,-1.013088,2
2024-06-14 12:42:23.409,8.68,-12.32,-3.92,0.055144,0.07564,-1.01016,2
2024-06-14 12:42:23.414,10.08,-13.3,-2.87,0.046848,0.075152,-1.00772,2
2024-06-14 12:42:23.419,7.28,-13.51,-3.01,0.048312,0.06588,-1.006744,2
2024-06-14 12:42:23.424,6.79,-14.77,-3.29,0.05124,0.071248,-1.013576,2
2024-06-14 12:42:23.428,6.09,-14.91,-3.08,0.05124,0.07564,-1.018456,2
2024-06-14 12:42:23.433,5.6,-16.24,-2.52,0.051728,0.081984,-1.02236,2
2024-06-14 12:42:23.438,5.88,-17.15,-2.38,0.05124,0.081008,-1.02236,2
2024-06-14 12:42:23.443,5.6,-19.53,-2.8,0.057095999999999994,0.06734399999999999,-1.01748,2
2024-06-14 12:42:23.448,4.83,-17.57,-2.8,0.052704,0.076128,-1.0238239999999998,2
2024-06-14 12:42:23.452,3.64,-18.48,-2.52,0.052704,0.083448,-1.025776,2
2024-06-14 12:42:23.457,3.71,-19.25,-2.31,0.057095999999999994,0.08784,-1.017968,2
2024-06-14 12:42:23.462,3.29,-20.23,-2.66,0.059048,0.088816,-1.0189439999999998,2
2024-06-14 12:42:23.467,-18.13,24.43,-8.47,0.064416,0.07173600000000001,-0.815448,2
2024-06-14 12:42:23.472,53.62,-28.49,3.15,0.062464,0.088816,-1.021384,2
2024-06-14 12:42:23.477,-10.08,-34.86,-9.66,0.06588,0.087352,-1.020408,2
2024-06-14 12:42:23.481,6.16,-22.75,-11.41,0.069296,0.084424,-1.01504,2
2024-06-14 12:42:23.486,7.7,-10.15,-0.98,0.071248,0.077104,-1.015528,2
2024-06-14 12:42:23.491,-4.9,-4.55,2.66,0.07564,0.079544,-1.01748,2
2024-06-14 12:42:23.496,12.46,0.56,-2.17,0.071248,0.074176,-1.02724,2
2024-06-14 12:42:23.501,-6.58,0.28,-8.12,0.07173600000000001,0.071248,-1.0296800000000002,2
2024-06-14 12:42:23.505,10.22,-0.35,-1.82,0.0732,0.06588,-1.0340719999999999,2
2024-06-14 12:42:23.510,-6.16,-3.01,1.89,0.073688,0.06831999999999999,-1.040904,2
2024-06-14 12:42:23.515,5.39,-5.04,-0.07,0.077104,0.066368,-1.04188,2
2024-06-14 12:42:23.520,-3.08,-7.91,-5.39,0.079544,0.074176,-1.04432,2
2024-06-14 12:42:23.525,1.82,-11.41,-3.92,0.081984,0.0732,-1.0394400000000001,2
2024-06-14 12:42:23.529,-0.77,-14.35,0.07,0.07222400000000001,0.076128,-1.080432,2
2024-06-14 12:42:23.534,-0.84,-24.85,0.14,0.073688,0.05856,-1.077992,2
2024-06-14 12:42:23.539,1.33,-27.93,-4.13,0.078568,0.09759999999999999,-1.067256,2
2024-06-14 12:42:23.544,-0.42,-29.96,-5.25,0.08247199999999999,0.090768,-1.064328,2
2024-06-14 12:42:23.549,3.85,-31.78,-1.68,0.090768,0.091744,-1.050176,2
2024-06-14 12:42:23.553,0.77,-32.69,-0.7,0.098576,0.122976,-1.0574959999999998,2
2024-06-14 12:42:23.558,3.57,-35.07,-3.29,0.101504,0.050752,-1.0574959999999998,2
2024-06-14 12:42:23.563,0.98,-36.12,-4.76,0.10052799999999999,0.07076,-1.075064,2
2024-06-14 12:42:23.568,5.04,-39.48,-2.17,0.101016,0.078568,-1.113616,2
2024-06-14 12:42:23.573,5.88,-42.63,0.56,0.09467199999999999,0.075152,-1.1082480000000001,2
2024-06-14 12:42:23.578,10.43,-44.03,0.63,0.09028,0.083936,-1.1819359999999999,2
2024-06-14 12:42:23.582,14.63,-44.1,-1.05,0.081496,0.088816,-1.1345999999999998,2
2024-06-14 12:42:23.587,8.89,-72.8,-0.84,0.10052799999999999,0.083936,-1.22,2
2024-06-14 12:42:23.592,17.57,-58.87,0.14,0.10736,0.093696,-1.296128,2
2024-06-14 12:42:23.597,1.12,-69.09,-2.87,0.126392,0.078568,-1.1970640000000001,2
2024-06-14 12:42:23.602,-2.45,-67.69,-3.22,0.103456,0.09272,-1.23952,2
2024-06-14 12:42:23.606,-7.42,-71.82,-3.99,0.10492,0.101504,-1.343952,2
2024-06-14 12:42:23.611,-8.75,-81.13,-3.15,0.11858400000000001,0.060024,-1.3981199999999998,2
2024-06-14 12:42:23.616,-9.87,-85.96,-3.01,0.11712,0.095648,-1.308816,2
2024-06-14 12:42:23.621,-13.23,-89.46,-4.55,0.12736799999999998,0.07808,-1.356152,2
2024-06-14 12:42:23.626,-12.74,-93.17,-4.27,0.124928,0.074176,-1.372744,2
2024-06-14 12:42:23.630,-14.77,-98.35,-4.2,0.121024,0.09759999999999999,-1.40056,2
2024-06-14 12:42:23.635,-14.35,-107.59,-4.62,0.113216,0.073688,-1.480104,2
2024-06-14 12:42:23.640,-13.72,-115.22,-5.88,0.101504,0.14054399999999997,-1.446432,2
2024-06-14 12:42:23.645,-11.41,-123.83,-7.28,0.125904,0.112728,-1.5162159999999998,2
2024-06-14 12:42:23.650,-10.22,-133.91,-8.82,0.115656,0.177144,-1.45668,2
2024-06-14 12:42:23.655,-9.52,-145.81,-11.55,0.101016,0.244,-1.595272,2
2024-06-14 12:42:23.659,-5.67,-157.85,-14.35,0.11516799999999999,0.16835999999999998,-1.5713599999999999,2
2024-06-14 12:42:23.664,-5.11,-171.92,-16.38,0.093696,0.117608,-1.654808,2
2024-06-14 12:42:23.669,-8.4,-187.11,-17.29,0.120536,0.060024,-1.69092,2
2024-06-14 12:42:23.674,-5.95,-194.18,-16.31,0.10052799999999999,0.059536,-1.95444,2
2024-06-14 12:42:23.679,2.73,-211.89,-17.08,0.076616,0.17079999999999998,-1.908568,3
2024-06-14 12:42:23.683,8.47,-230.23,-20.44,0.051728,0.295728,-2.042768,3
2024-06-14 12:42:23.688,16.31,-251.93,-25.48,0.033671999999999994,0.427976,-2.01544,3
2024-06-14 12:42:23.693,26.95,-274.68,-31.29,0.038064,0.437736,-2.0964479999999996,3
2024-06-14 12:42:23.698,32.55,-296.1,-37.17,0.033184,0.362584,-2.2384560000000002,3
2024-06-14 12:42:23.703,42.07,-320.74,-41.51,0.01464,0.28548,-2.3546,3
2024-06-14 12:42:23.707,40.39,-347.62,-44.66,0.008296,0.28889600000000004,-2.541016,3
2024-06-14 12:42:23.712,41.23,-372.61,-47.18,0.037088,0.285968,-2.766472,3
2024-06-14 12:42:23.717,57.05,-397.18,-49.42,0.037088,0.343552,-2.892864,3
2024-06-14 12:42:23.722,68.46,-420.21,-51.73,0.014152,0.40748,-3.019256,3
2024-06-14 12:42:23.727,62.16,-443.73,-54.6,0.040992,0.515816,-3.181272,3
2024-06-14 12:42:23.731,55.86,-462.56,-57.68,0.062952,0.522648,-3.347192,3
2024-06-14 12:42:23.736,55.44,-479.22,-59.29,0.06783199999999999,0.40259999999999996,-3.383792,3
2024-06-14 12:42:23.741,57.4,-495.04,-59.29,-0.0068319999999999995,0.47677600000000003,-3.354024,3
2024-06-14 12:42:23.746,46.62,-508.34,-61.04,-0.03904,0.513864,-3.366224,3
2024-06-14 12:42:23.751,36.26,-521.85,-62.02,-0.11419199999999999,0.399184,-3.436496,3
2024-06-14 12:42:23.756,24.15,-530.25,-62.58,-0.027327999999999998,0.203008,-3.364272,3
2024-06-14 12:42:23.760,26.53,-541.24,-58.73,-0.124928,-0.045872,-3.3481680000000003,3
2024-06-14 12:42:23.765,24.57,-542.99,-54.74,-0.28548,-0.16006399999999998,-3.4203919999999997,3
2024-06-14 12:42:23.770,28.49,-542.08,-48.51,-0.421632,-0.206424,-3.49896,3
2024-06-14 12:42:23.775,41.79,-542.57,-40.32,-0.677832,-0.08930400000000001,-3.38672,3
2024-06-14 12:42:23.780,61.67,-533.4,-34.51,-1.0140639999999999,0.048799999999999996,-2.989,3
2024-06-14 12:42:23.784,41.65,-516.74,-40.11,-1.547448,0.344528,-2.416576,3
2024-06-14 12:42:23.789,39.06,-493.36,-33.74,-1.785104,0.39088799999999996,-1.8773360000000001,3
2024-06-14 12:42:23.794,36.96,-467.67,-36.19,-2.1359760000000003,0.5192319999999999,-1.453752,3
2024-06-14 12:42:23.799,18.83,-443.59,-42.91,-2.420968,0.584136,-1.033096,3
2024-06-14 12:42:23.804,9.87,-397.6,-51.66,-2.562976,0.70028,-0.217648,3
2024-06-14 12:42:23.808,-1.26,-357.28,-65.87,-1.646512,0.932568,0.5426559999999999,4
2024-06-14 12:42:23.813,-29.12,-308.98,-68.88,-0.6597759999999999,0.785192,-0.798368,4
2024-06-14 12:42:23.818,-72.17,-200.13,-57.19,-0.738832,0.46067199999999997,-2.051552,4
2024-06-14 12:42:23.823,-105.28,-103.81,-38.43,-1.391288,0.157136,-1.563064,4
2024-06-14 12:42:23.825,-73.36,85.61,6.3,-1.7402079999999998,-0.306464,-0.7573759999999999,4
2024-06-14 12:42:23.828,-107.38,-6.3,-18.06,-1.882704,-0.124928,-0.87108,4
2024-06-14 12:42:23.829,-19.32,150.71,33.53,-1.352736,-0.367464,-1.0189439999999998,4
2024-06-14 12:42:23.834,38.92,193.69,57.82,-1.137528,-0.35624,-1.115568,4
2024-06-14 12:42:23.839,89.53,217.84,73.64,-1.123376,-0.274744,-1.022848,4
2024-06-14 12:42:23.844,126.35,231.91,80.92,-1.1067839999999998,-0.074176,-0.84912,4
2024-06-14 12:42:23.849,148.47,239.82,82.6,-1.052128,0.13907999999999998,-0.753472,4
2024-06-14 12:42:23.854,150.15,244.58,79.1,-0.982832,0.337696,-0.7383439999999999,4
2024-06-14 12:42:23.858,132.02,248.43,70.7,-0.926712,0.5197200000000001,-0.720776,4
2024-06-14 12:42:23.863,99.68,252.35,58.24,-0.895968,0.634888,-0.6636799999999999,4
2024-06-14 12:42:23.868,60.41,257.32,43.82,-0.864736,0.6695359999999999,-0.61,4
2024-06-14 12:42:23.873,21.91,262.99,29.4,-0.8169120000000001,0.6241519999999999,-0.584624,4
2024-06-14 12:42:23.878,-10.36,268.38,15.61,-0.754936,0.516304,-0.59536,4
2024-06-14 12:42:23.883,-33.11,273.56,3.78,-0.721752,0.362584,-0.603656,4
2024-06-14 12:42:23.887,-43.96,277.2,-5.18,-0.678808,0.20496,-0.6021920000000001,4
2024-06-14 12:42:23.892,-43.19,280.63,-11.2,-0.646112,0.081008,-0.608536,4
2024-06-14 12:42:23.897,-33.74,283.01,-14.63,-0.615856,-0.014152,-0.623664,4
2024-06-14 12:42:23.902,-20.16,285.88,-16.52,-0.585112,-0.054655999999999996,-0.648064,4
2024-06-14 12:42:23.907,-7.07,289.03,-17.22,-0.565104,-0.048799999999999996,-0.6841759999999999,4
2024-06-14 12:42:23.912,1.89,293.23,-17.57,-0.549,-0.020984,-0.716872,4
2024-06-14 12:42:23.917,4.69,297.92,-17.99,-0.532408,0.02928,-0.7524959999999999,4
2024-06-14 12:42:23.921,1.54,303.1,-18.69,-0.516792,0.07173600000000001,-0.791048,4
2024-06-14 12:42:23.926,-6.37,308.77,-19.39,-0.49776,0.10003999999999999,-0.823744,4
2024-06-14 12:42:23.931,-16.17,313.6,-19.53,-0.484584,0.099064,-0.85644,4
2024-06-14 12:42:23.936,-25.34,317.94,-18.9,-0.458232,0.07027199999999999,-0.887184,4
2024-06-14 12:42:23.941,-32.2,320.39,-17.22,-0.435296,0.035624,-0.915976,4
2024-06-14 12:42:23.946,-35.98,322.49,-14.56,-0.414312,0.008296,-0.949648,4
2024-06-14 12:42:23.950,-37.38,323.75,-11.27,-0.39527999999999996,-0.016592,-0.9921039999999999,4
2024-06-14 12:42:23.955,-37.59,324.8,-7.28,-0.380152,-0.025864,-1.0360239999999998,4
2024-06-14 12:42:23.960,-37.45,326.13,-3.36,-0.366,-0.024399999999999998,-1.0760399999999999,4
2024-06-14 12:42:23.965,-37.52,328.3,0.42,-0.356728,-0.013663999999999999,-1.1228879999999999,4
2024-06-14 12:42:23.970,-38.57,331.1,3.92,-0.34550400000000003,0.006344,-1.176568,4
2024-06-14 12:42:23.975,-40.18,334.6,6.86,-0.335256,0.021472,-1.2331759999999998,4
2024-06-14 12:42:23.980,-42.14,337.89,9.45,-0.323056,0.034648,-1.30052,4
2024-06-14 12:42:23.984,-43.89,340.48,11.55,-0.30353600000000003,0.047824,-1.370792,4
2024-06-14 12:42:23.989,-44.73,342.16,13.51,-0.287432,0.054168,-1.4557039999999999,4
2024-06-14 12:42:23.994,-45.01,342.44,15.54,-0.269864,0.075152,-1.545984,4
2024-06-14 12:42:23.999,-45.99,341.74,17.22,-0.260104,0.105896,-1.626504,4
2024-06-14 12:42:24.004,-49.21,340.34,17.78,-0.242048,0.13956799999999997,-1.721664,4
2024-06-14 12:42:24.009,-54.46,338.73,17.29,-0.216184,0.16494399999999998,-1.813408,4
2024-06-14 12:42:24.013,-62.02,337.33,16.38,-0.17812,0.182024,-1.9061279999999998,4
2024-06-14 12:42:24.018,-70.91,336.42,15.19,-0.131272,0.182512,-2.0095840000000003,4
2024-06-14 12:42:24.023,-79.38,336.28,14.49,-0.079544,0.16835999999999998,-2.128656,4
2024-06-14 12:42:24.028,-86.59,336.28,14.77,-0.024887999999999997,0.14591200000000001,-2.257488,4
2024-06-14 12:42:24.033,-92.89,337.19,16.24,0.032695999999999996,0.11516799999999999,-2.38632,4
2024-06-14 12:42:24.038,-96.95,339.22,19.81,0.101016,0.07173600000000001,-2.49124,4
2024-06-14 12:42:24.043,-100.38,343.0,25.55,0.179584,0.018056000000000003,-2.585424,4
2024-06-14 12:42:24.047,-101.36,348.18,33.88,0.29524,-0.035624,-2.6654560000000003,4
2024-06-14 12:42:24.052,-99.47,354.34,44.45,0.441152,-0.081008,-2.756224,4
2024-06-14 12:42:24.057,-95.62,360.99,55.79,0.613904,-0.105408,-2.8508959999999997,4
2024-06-14 12:42:24.062,-90.86,366.94,66.36,0.7622559999999999,-0.12444,-2.983144,4
2024-06-14 12:42:24.067,-87.78,372.19,74.41,0.903288,-0.12932,-3.1119760000000003,4
2024-06-14 12:42:24.072,-83.79,378.7,80.71,1.0555439999999998,-0.167872,-3.1910320000000003,4
2024-06-14 12:42:24.076,-79.31,386.68,86.94,1.245376,-0.223992,-3.2247039999999996,4
2024-06-14 12:42:24.081,-72.45,394.8,92.68,1.43716,-0.233752,-3.2608159999999997,4
2024-06-14 12:42:24.086,-59.5,402.43,105.91,1.47864,0.08052,-3.283264,4
2024-06-14 12:42:24.091,-36.82,408.31,122.36,2.167208,-0.623176,-3.239832,4
2024-06-14 12:42:24.096,-5.88,409.29,101.15,2.02276,-0.035135999999999994,-3.2412959999999997,4
2024-06-14 12:42:24.101,26.39,406.7,100.17,2.1520799999999998,0.11467999999999999,-3.152968,4
2024-06-14 12:42:24.106,53.97,400.26,98.14,2.25944,0.223992,-3.0309679999999997,4
2024-06-14 12:42:24.110,67.41,390.53,96.11,2.393152,0.305488,-2.867,4
2024-06-14 12:42:24.115,64.82,377.79,94.22,2.5254000000000003,0.38844799999999996,-2.668384,4
2024-06-14 12:42:24.120,53.34,363.16,91.77,2.643984,0.47189600000000004,-2.421456,4
2024-06-14 12:42:24.125,40.04,349.09,87.64,2.8792,0.520696,-2.143296,4
2024-06-14 12:42:24.130,13.16,333.83,77.98,3.2051839999999996,0.648552,-1.940776,4
2024-06-14 12:42:24.135,4.48,316.26,63.0,3.653168,0.7856799999999999,-1.745088,4
2024-06-14 12:42:24.139,3.5,297.43,41.37,4.1362879999999995,0.82716,-1.569408,4
2024-06-14 12:42:24.144,-0.98,276.08,15.47,4.6252640000000005,0.688568,-1.360544,4
2024-06-14 12:42:24.149,-20.09,251.02,-10.43,4.986384,0.39967199999999997,-1.1916959999999999,4
2024-06-14 12:42:24.154,-49.56,219.24,-32.41,5.214768,0.035135999999999994,-1.10044,4
2024-06-14 12:42:24.159,-73.85,179.55,-48.86,5.396304,-0.31768799999999997,-1.077992,4
2024-06-14 12:42:24.164,-76.02,129.64,-60.41,5.432904,-0.5773039999999999,-1.113128,4
2024-06-14 12:42:24.169,-53.76,64.75,-69.02,5.2386800000000004,-0.715408,-1.1243519999999998,4
2024-06-14 12:42:24.173,-13.65,0.56,-75.04,4.852671999999999,-0.701256,-1.0614,4
2024-06-14 12:42:24.178,41.86,-65.73,-78.12,4.392976,-0.564616,-1.04676,4
2024-06-14 12:42:24.183,76.65,-123.13,-79.73,3.9298640000000002,-0.34794400000000003,-1.1458240000000002,4
2024-06-14 12:42:24.188,98.98,-169.89,-78.82,3.458944,-0.069296,-1.325896,4
2024-06-14 12:42:24.193,92.54,-200.41,-77.0,3.017304,0.185928,-1.461072,4
2024-06-14 12:42:24.198,-213.29,-451.64,-122.78,0.7856799999999999,1.4191040000000001,-11.301103999999999,4
2024-06-14 12:42:24.202,-108.71,-100.52,-112.07,-4.839008,-0.613904,8.567328,4
