time,gyroscope_x,gyroscope_y,gyroscope_z,accelerometer_x,accelerometer_y,accelerometer_z,phase
2024-06-14 12:36:39.242,231.0,-453.495,-45.535000000000004,7.6796560000000005,-3.999892,-4.494235999999999,1
2024-06-14 12:36:39.247,106.47,-263.445,-20.195,-1.4222759999999999,-0.36404800000000004,2.453664,1
2024-06-14 12:36:39.252,134.855,-315.42,-5.32,0.28621199999999997,0.870104,-0.8574160000000001,1
2024-06-14 12:36:39.256,49.7,-415.8,8.855,-1.26392,0.45505999999999996,-1.647244,1
2024-06-14 12:36:39.261,-21.455000000000002,-438.40999999999997,44.31,-1.610888,-0.34721199999999997,-1.6103999999999998,1
2024-06-14 12:36:39.266,-50.82,-447.15999999999997,65.555,-0.664168,0.158112,-1.670668,1
2024-06-14 12:36:39.271,-44.8,-434.595,67.34,0.6985720000000001,0.39845200000000003,-1.77022,1
2024-06-14 12:36:39.276,-21.735,-402.36,61.53,1.477176,0.01829999999999999,-2.1640360000000003,1
2024-06-14 12:36:39.281,15.225,-359.24,41.79,1.250744,-0.206424,-2.38022,1
2024-06-14 12:36:39.285,57.015,-327.425,7.3149999999999995,0.452132,-0.39161999999999997,-2.724992,1
2024-06-14 12:36:39.290,72.52000000000001,-288.435,-28.665,-0.044407999999999996,-0.459696,-2.771108,1
2024-06-14 12:36:39.295,72.72999999999999,-245.98,-52.92,-0.063196,-0.44334799999999996,-2.652524,1
2024-06-14 12:36:39.300,49.28,-193.935,-63.80499999999999,0.404796,-0.02415599999999999,-2.45342,1
2024-06-14 12:36:39.305,26.215000000000003,-140.875,-56.42,0.577548,0.328912,-2.080588,1
2024-06-14 12:36:39.310,13.685,-107.73,-33.6,0.654652,0.40503999999999996,-1.746064,1
2024-06-14 12:36:39.315,4.515000000000001,-84.42,-3.2200000000000006,0.474336,0.391132,-1.5774599999999999,1
2024-06-14 12:36:39.319,-0.91,-70.28,19.775,0.259372,0.203984,-1.3990960000000001,1
2024-06-14 12:36:39.324,2.905,-66.675,21.91,-0.0031719999999999977,0.076128,-1.215852,1
2024-06-14 12:36:39.329,6.755,-64.295,8.295,-0.166896,0.032695999999999996,-1.0618880000000002,1
2024-06-14 12:36:39.334,5.25,-58.695,-4.41,-0.11663199999999999,0.060511999999999996,-0.941596,1
2024-06-14 12:36:39.339,1.4000000000000001,-48.685,-7.595,0.038307999999999995,0.083936,-0.8915759999999999,2
2024-06-14 12:36:39.344,-2.9749999999999996,-34.265,-3.0450000000000004,0.14518,0.08588799999999999,-0.971364,2
2024-06-14 12:36:39.348,-2.3449999999999998,-23.975,3.395,0.16592,0.213012,-1.029192,2
2024-06-14 12:36:39.353,3.99,-19.494999999999997,3.29,0.176168,0.169092,-1.120936,2
2024-06-14 12:36:39.358,7.98,-16.905,0.8049999999999999,0.099796,0.108824,-1.1187399999999998,2
2024-06-14 12:36:39.363,8.435,-14.805,-1.645,0.021471999999999998,0.057828000000000004,-1.0740880000000002,2
2024-06-14 12:36:39.368,6.65,-14.629999999999999,-2.31,-0.020984,0.082228,-1.031144,2
2024-06-14 12:36:39.373,6.265000000000001,-15.295000000000002,-2.555,-0.013907999999999998,0.13200399999999998,-1.0035720000000001,2
2024-06-14 12:36:39.378,7.805,-15.05,-2.87,-0.0068319999999999995,0.109068,-1.0399280000000002,2
2024-06-14 12:36:39.382,8.715,-15.925,-3.395,0.01952,0.10492000000000001,-1.120448,2
2024-06-14 12:36:39.387,8.82,-17.64,-3.605,0.0060999999999999995,0.062952,-1.1436279999999999,2
2024-06-14 12:36:39.392,7.105,-19.39,-3.2199999999999998,-0.010003999999999999,0.05124,-1.139236,2
2024-06-14 12:36:39.397,4.585,-22.96,-3.08,-0.02196,0.07319999999999999,-1.1167880000000001,2
2024-06-14 12:36:39.402,2.38,-24.08,-2.38,0.015128,0.067832,-1.080432,2
2024-06-14 12:36:39.407,1.05,-24.185000000000002,-2.52,-0.0009760000000000003,0.063196,-1.0399279999999997,2
2024-06-14 12:36:39.411,-0.245,-22.575,-2.0999999999999996,-0.00244,0.096136,-1.040172,2
2024-06-14 12:36:39.416,0.21,-22.82,-2.415,-0.0034159999999999998,0.11346,-1.0555439999999998,2
2024-06-14 12:36:39.421,1.6099999999999999,-23.415,-2.555,-0.0036599999999999996,0.125416,-1.058472,2
2024-06-14 12:36:39.426,3.465,-24.255,-2.765,-0.005856,0.119316,-1.057008,2
2024-06-14 12:36:39.431,6.65,-23.275,-2.94,-0.004391999999999998,0.11833999999999997,-1.042856,2
2024-06-14 12:36:39.436,7.35,-23.415,-2.94,0.0068319999999999995,0.103212,-1.028216,2
2024-06-14 12:36:39.443,7.3149999999999995,-22.75,-3.045,0.009271999999999999,0.088572,-1.028948,2
2024-06-14 12:36:39.447,6.65,-22.855,-2.8,0.007808000000000001,0.086132,-1.037732,2
2024-06-14 12:36:39.452,6.37,-23.415,-2.73,0.0053679999999999995,0.090768,-1.04798,2
2024-06-14 12:36:39.457,6.65,-24.535,-2.52,0.00488,0.098576,-1.053836,2
2024-06-14 12:36:39.462,7.3149999999999995,-25.9,-2.6950000000000003,-0.0009759999999999999,0.104432,-1.0518839999999998,2
2024-06-14 12:36:39.467,8.33,-28.21,-2.975,0.0034159999999999998,0.106872,-1.0567639999999998,2
2024-06-14 12:36:39.471,9.030000000000001,-30.485,-2.6950000000000003,0.011224,0.093696,-1.052372,2
2024-06-14 12:36:39.476,8.89,-32.199999999999996,-2.7649999999999997,0.018056,0.076616,-1.0421239999999998,2
2024-06-14 12:36:39.481,8.015,-32.620000000000005,-2.415,0.024156,0.09174399999999999,-1.0348039999999998,2
2024-06-14 12:36:39.486,7.665,-34.055,-2.45,0.026352,0.08784,-1.02846,2
2024-06-14 12:36:39.491,7.455,-33.11,-2.485,0.028547999999999997,0.101748,-1.0226039999999998,2
2024-06-14 12:36:39.496,7.665000000000001,-33.18,-2.59,0.028791999999999998,0.119316,-1.0323639999999998,2
2024-06-14 12:36:39.500,8.504999999999999,-32.41,-3.325,0.036356,0.115412,-0.9925919999999999,2
2024-06-14 12:36:39.505,9.765,-31.045,-3.7800000000000002,0.038307999999999995,0.1098,-1.02236,2
2024-06-14 12:36:39.510,9.52,-28.525,-3.885,0.04489599999999999,0.095648,-1.0055239999999999,2
2024-06-14 12:36:39.515,2.38,-43.89,-4.235,0.049776,0.074664,-1.0128439999999999,2
2024-06-14 12:36:39.520,7.175,-31.255000000000003,-3.115,0.050996,0.074176,-1.016748,2
2024-06-14 12:36:39.525,8.925,-30.485,-3.395,0.052704,0.070028,-1.01626,2
2024-06-14 12:36:39.529,-17.5,-85.64500000000001,-2.0300000000000002,0.057096,0.074664,-1.025532,2
2024-06-14 12:36:39.534,15.96,-29.435000000000002,-0.41999999999999993,0.050264,0.071492,-1.0265080000000002,2
2024-06-14 12:36:39.539,-4.55,-29.995,-4.48,0.061244,0.07466400000000001,-1.024556,2
2024-06-14 12:36:39.544,7.63,-30.695,-2.765,0.060268,0.068808,-1.032608,2
2024-06-14 12:36:39.549,-3.6750000000000003,-31.57,-1.19,0.056364,0.07564,-1.033096,2
2024-06-14 12:36:39.554,0.56,-30.905,-0.49,0.061731999999999995,0.074908,-1.035536,2
2024-06-14 12:36:39.558,-2.0999999999999996,-32.129999999999995,-2.205,0.060268,0.079544,-1.03822,2
2024-06-14 12:36:39.563,-3.22,-32.129999999999995,-2.59,0.067832,0.08735200000000001,-1.03212,2
2024-06-14 12:36:39.568,-1.7499999999999998,-32.865,-1.0499999999999998,0.071492,0.078324,-1.0287039999999998,2
2024-06-14 12:36:39.573,-5.1450000000000005,-33.144999999999996,-0.45499999999999996,0.07686,0.088084,-1.031876,2
2024-06-14 12:36:39.578,-1.645,-34.79,-1.0499999999999998,0.07661599999999999,0.089548,-1.028216,2
2024-06-14 12:36:39.583,-3.745,-29.4,-2.2750000000000004,0.076372,0.097844,-1.0201639999999998,2
2024-06-14 12:36:39.587,-0.805,-30.625,-1.575,0.07808000000000001,0.1037,-1.0206520000000001,2
2024-06-14 12:36:39.592,-1.7850000000000001,-31.71,-1.085,0.083448,0.10345599999999999,-1.029436,2
2024-06-14 12:36:39.597,-0.24500000000000005,-32.06,-1.61,0.090036,0.091012,-1.026508,2
2024-06-14 12:36:39.602,-1.54,-31.325000000000003,-2.45,0.092476,0.08784,-1.02114,2
2024-06-14 12:36:39.607,-0.45499999999999996,-27.93,-2.31,0.094428,0.07686,-1.03578,2
2024-06-14 12:36:39.611,-1.26,-31.15,-1.295,0.09833199999999999,0.06758800000000001,-1.03334,2
2024-06-14 12:36:39.616,-0.245,-30.415,-0.45499999999999996,0.101992,0.071492,-1.0309,2
2024-06-14 12:36:39.621,0.35000000000000003,-30.380000000000003,-0.14,0.10345599999999999,0.068564,-1.0316319999999999,2
2024-06-14 12:36:39.626,0.7,-29.189999999999998,0.245,0.104432,0.08832799999999999,-1.033828,2
2024-06-14 12:36:39.631,2.73,-28.84,1.96,0.101016,0.09759999999999999,-1.04432,2
2024-06-14 12:36:39.636,0.49,-30.1,0.875,0.10858000000000001,0.095892,-0.9669719999999999,2
2024-06-14 12:36:39.640,6.4399999999999995,-28.839999999999996,0.42,0.166408,0.0427,-0.921344,2
2024-06-14 12:36:39.645,2.205,-30.380000000000003,0.13999999999999999,0.11102,0.035623999999999996,-0.963312,2
2024-06-14 12:36:39.650,3.85,-28.84,0.63,0.101748,0.154696,-0.992836,2
2024-06-14 12:36:39.655,4.83,-27.825,-0.21000000000000002,0.097112,0.093208,-1.033828,2
2024-06-14 12:36:39.660,-1.435,-32.34,-0.77,0.134932,0.064172,-1.0967799999999999,2
2024-06-14 12:36:39.665,-2.835,-32.235,-0.7,0.127856,0.09125599999999999,-1.027972,2
2024-06-14 12:36:39.669,-6.055,-29.19,-0.77,0.11468,0.073932,-1.043588,2
2024-06-14 12:36:39.674,-7.3149999999999995,-31.990000000000002,-0.6300000000000001,0.124928,0.09101200000000001,-1.03822,2
2024-06-14 12:36:39.679,-7.14,-33.215,-0.875,0.127612,0.106872,-1.064572,2
2024-06-14 12:36:39.684,-6.615,-34.58,-1.085,0.132492,0.078568,-1.089216,2
2024-06-14 12:36:39.689,-6.51,-37.03,-1.05,0.12566,0.097356,-1.081896,2
2024-06-14 12:36:39.694,-7.07,-39.235,-1.435,0.122488,0.100284,-1.0740880000000002,2
2024-06-14 12:36:39.698,-6.79,-41.51,-1.575,0.136396,0.096868,-1.054324,2
2024-06-14 12:36:39.703,-7.63,-44.379999999999995,-1.89,0.13785999999999998,0.09516,-1.1211799999999998,2
2024-06-14 12:36:39.708,-8.504999999999999,-45.254999999999995,-1.855,0.142496,0.07808,-1.0704280000000002,2
2024-06-14 12:36:39.713,-9.73,-46.620000000000005,-1.6099999999999999,0.147864,0.077104,-1.120692,2
2024-06-14 12:36:39.718,-10.71,-47.915,-1.365,0.14518000000000003,0.09223200000000001,-1.128256,2
2024-06-14 12:36:39.723,-11.095,-50.540000000000006,-1.33,0.141276,0.111508,-1.189744,2
2024-06-14 12:36:39.727,-11.515,-53.935,-2.0300000000000002,0.13663999999999998,0.133712,-1.231468,2
2024-06-14 12:36:39.732,-11.095,-58.485,-2.94,0.13834799999999997,0.12322,-1.227808,2
2024-06-14 12:36:39.737,-10.465,-63.455,-3.5700000000000003,0.144448,0.11346,-1.237324,2
2024-06-14 12:36:39.742,-11.865,-70.42,-4.27,0.137616,0.110044,-1.265628,2
2024-06-14 12:36:39.747,-12.145,-75.46000000000001,-4.445,0.16348,0.08857200000000001,-1.281488,2
2024-06-14 12:36:39.752,-12.425,-78.75,-4.655,0.162992,0.10858,-1.233908,2
2024-06-14 12:36:39.756,-15.54,-84.66499999999999,-5.145,0.16592,0.09418399999999999,-1.2663600000000002,2
2024-06-14 12:36:39.761,-16.415,-91.28,-5.285,0.16348,0.103944,-1.278804,2
2024-06-14 12:36:39.766,-17.43,-96.94999999999999,-5.67,0.160308,0.099308,-1.317112,2
2024-06-14 12:36:39.771,-18.06,-102.83,-5.67,0.17519200000000001,0.084424,-1.315404,2
2024-06-14 12:36:39.776,-19.04,-109.69,-5.775,0.179096,0.104432,-1.321992,2
2024-06-14 12:36:39.780,-20.37,-117.39,-6.265,0.178852,0.11760799999999999,-1.388604,2
2024-06-14 12:36:39.785,-18.83,-125.195,-6.965,0.169336,0.13102799999999998,-1.4022679999999998,2
2024-06-14 12:36:39.790,-19.705,-135.66,-7.805,0.172264,0.15128,-1.401048,2
2024-06-14 12:36:39.795,-17.22,-142.17000000000002,-9.24,0.179096,0.19886,-1.539396,2
2024-06-14 12:36:39.800,-12.46,-150.36,-11.06,0.179096,0.178852,-1.454972,2
2024-06-14 12:36:39.805,-11.515,-159.565,-12.46,0.17202,0.168116,-1.5289039999999998,2
2024-06-14 12:36:39.809,-5.949999999999999,-171.535,-13.614999999999998,0.186416,0.15738,-1.549156,2
2024-06-14 12:36:39.814,-5.984999999999999,-182.7,-14.665,0.188368,0.16348000000000001,-1.639192,3
2024-06-14 12:36:39.819,-0.91,-196.385,-15.785,0.188124,0.20007999999999998,-1.675548,3
2024-06-14 12:36:39.824,-0.03499999999999992,-211.015,-17.884999999999998,0.16958,0.237168,-1.8663560000000001,3
2024-06-14 12:36:39.829,8.469999999999999,-229.565,-20.475,0.156404,0.29036,-1.881728,3
2024-06-14 12:36:39.834,13.335,-246.95999999999998,-24.08,0.136152,0.335988,-1.9671279999999998,3
2024-06-14 12:36:39.838,19.005000000000003,-267.05,-28.384999999999998,0.16299199999999997,0.360632,-2.09108,3
2024-06-14 12:36:39.843,20.23,-288.68,-32.585,0.155916,0.34428400000000003,-2.298236,3
2024-06-14 12:36:39.848,23.52,-310.345,-35.91,0.188856,0.30622,-2.495144,3
2024-06-14 12:36:39.853,30.625,-336.80499999999995,-38.885000000000005,0.173728,0.325496,-2.639836,3
2024-06-14 12:36:39.858,33.565,-360.46500000000003,-41.790000000000006,0.127124,0.36112,-2.883836,3
2024-06-14 12:36:39.863,38.64,-383.985,-44.835,0.149328,0.45774399999999993,-3.05244,3
2024-06-14 12:36:39.867,38.745000000000005,-409.15,-48.790000000000006,0.132004,0.550952,-3.149308,3
2024-06-14 12:36:39.872,38.08,-429.625,-53.34,0.11614400000000001,0.6170760000000001,-3.279116,3
2024-06-14 12:36:39.877,38.185,-446.95,-58.03,0.13761600000000002,0.6202479999999999,-3.3123,3
2024-06-14 12:36:39.882,36.505,-462.84000000000003,-62.230000000000004,0.145668,0.558272,-3.319376,3
2024-06-14 12:36:39.887,29.259999999999998,-478.135,-63.735,0.08174000000000001,0.509228,-3.317424,3
2024-06-14 12:36:39.892,11.129999999999999,-490.35,-64.715,0.072956,0.45652400000000004,-3.343288,3
2024-06-14 12:36:39.896,-3.08,-499.625,-64.53999999999999,0.09930800000000001,0.33428,-3.278628,3
2024-06-14 12:36:39.901,-12.915000000000001,-508.62,-62.754999999999995,0.036112,0.22326,-3.410876,3
2024-06-14 12:36:39.906,-20.965,-516.11,-61.6,-0.034159999999999996,0.093452,-3.4494279999999997,3
2024-06-14 12:36:39.911,-27.58,-521.5,-59.815,-0.179828,-0.023424,-3.424296,3
2024-06-14 12:36:39.916,-27.055,-517.405,-56.525,-0.437736,-0.050752,-3.2334880000000004,3
2024-06-14 12:36:39.920,-23.03,-511.56,-54.355000000000004,-0.8410679999999999,0.09198800000000001,-3.00364,3
2024-06-14 12:36:39.925,-14.63,-496.685,-58.870000000000005,-1.1204479999999999,0.042943999999999996,-2.630808,3
2024-06-14 12:36:39.930,-26.915,-479.22,-57.96,-1.549156,0.257176,-2.195512,3
2024-06-14 12:36:39.935,-42.839999999999996,-461.58000000000004,-64.225,-1.88856,0.397964,-1.6079599999999998,3
2024-06-14 12:36:39.940,-47.95,-439.495,-74.655,-1.9825,0.48116800000000004,-1.332972,3
2024-06-14 12:36:39.945,-51.03,-415.79999999999995,-85.785,-2.0378879999999997,0.472384,-0.952088,3
2024-06-14 12:36:39.949,-51.239999999999995,-378.21000000000004,-102.725,-2.089128,0.453596,-0.354044,3
2024-06-14 12:36:39.954,-53.69,-347.585,-117.74000000000001,-0.8581479999999999,0.708576,0.20373999999999998,3
2024-06-14 12:36:39.959,-58.24,-266.84,-116.9,-0.786412,0.41114,-1.555012,3
2024-06-14 12:36:39.964,-77.63,-158.025,-103.81,-1.358592,0.143228,-1.692628,4
2024-06-14 12:36:39.969,-81.235,-55.510000000000005,-80.955,-1.88612,-0.122976,-1.029192,4
2024-06-14 12:36:39.974,-56.455,36.155,-50.365,-1.763876,-0.336232,-0.810812,4
2024-06-14 12:36:39.978,-11.340000000000002,109.86500000000001,-16.169999999999998,-1.4149559999999999,-0.416752,-0.94672,4
2024-06-14 12:36:39.983,33.46,155.54000000000002,13.545,-1.2285400000000002,-0.382836,-1.082628,4
2024-06-14 12:36:39.988,73.745,186.2,33.775,-1.1568040000000002,-0.214476,-0.947452,4
2024-06-14 12:36:39.993,100.8,204.54000000000002,44.45,-1.0845799999999999,-0.031720000000000005,-0.8264279999999999,4
2024-06-14 12:36:39.998,116.725,208.74,48.93,-0.97478,0.186172,-0.765916,4
2024-06-14 12:36:40.003,113.785,211.26,48.265,-0.9057280000000001,0.3782,-0.750788,4
2024-06-14 12:36:40.007,93.80000000000001,214.655,42.735,-0.876204,0.533628,-0.647088,4
2024-06-14 12:36:40.012,62.37,221.34,33.565,-0.868884,0.618052,-0.5611999999999999,4
2024-06-14 12:36:40.017,27.615,230.755,22.715,-0.825696,0.618052,-0.52216,4
2024-06-14 12:36:40.022,-2.66,241.01,11.865,-0.783972,0.5367999999999999,-0.537776,4
2024-06-14 12:36:40.027,-23.835,251.23000000000002,2.415,-0.744688,0.414556,-0.5328959999999999,4
2024-06-14 12:36:40.032,-33.425,260.89,-4.6899999999999995,-0.715164,0.265716,-0.525088,4
2024-06-14 12:36:40.036,-33.67,269.53499999999997,-9.275,-0.6771,0.138104,-0.546316,4
2024-06-14 12:36:40.041,-26.39,277.30499999999995,-11.34,-0.6414759999999999,0.04636,-0.568032,4
2024-06-14 12:36:40.046,-15.26,284.725,-11.969999999999999,-0.602924,0.0075639999999999995,-0.5934079999999999,4
2024-06-14 12:36:40.051,-4.725,291.76,-11.899999999999999,-0.569496,0.00976,-0.616832,4
2024-06-14 12:36:40.056,1.75,298.375,-11.585,-0.536068,0.045384,-0.6624599999999999,4
2024-06-14 12:36:40.061,3.185,305.095,-11.55,-0.5106919999999999,0.080764,-0.692472,4
2024-06-14 12:36:40.065,-0.10499999999999998,311.43,-11.725,-0.48726800000000003,0.11102,-0.716872,4
2024-06-14 12:36:40.070,-7.245,317.135,-11.865,-0.463356,0.12273200000000001,-0.750544,4
2024-06-14 12:36:40.075,-15.785,321.685,-11.585,-0.436272,0.11882799999999999,-0.781776,4
2024-06-14 12:36:40.080,-23.905,325.01,-10.605,-0.40504,0.094184,-0.816424,4
2024-06-14 12:36:40.085,-30.064999999999998,326.83000000000004,-8.715,-0.374784,0.059292,-0.842532,4
2024-06-14 12:36:40.089,-33.53,327.91499999999996,-5.88,-0.343796,0.02684,-0.8698600000000001,4
2024-06-14 12:36:40.094,-34.685,328.265,-2.135,-0.325252,0.009028,-0.9089,4
2024-06-14 12:36:40.099,-34.86,328.3,1.8900000000000001,-0.305488,-0.008539999999999999,-0.951112,4
2024-06-14 12:36:40.104,-34.79,328.825,6.265000000000001,-0.290604,-0.011467999999999999,-0.9896639999999999,4
2024-06-14 12:36:40.109,-34.754999999999995,330.12,10.605,-0.286212,-0.0026839999999999998,-1.029436,4
2024-06-14 12:36:40.114,-35.245000000000005,331.975,14.98,-0.283284,0.0060999999999999995,-1.0784799999999999,4
2024-06-14 12:36:40.118,-36.575,334.705,19.11,-0.272792,0.016835999999999997,-1.1321599999999998,4
2024-06-14 12:36:40.123,-38.5,337.47,23.03,-0.26400799999999996,0.026108,-1.193892,4
2024-06-14 12:36:40.128,-40.775,340.62,26.705,-0.256932,0.033184,-1.253428,4
2024-06-14 12:36:40.133,-42.42,344.04999999999995,30.31,-0.238144,0.0366,-1.314672,4
2024-06-14 12:36:40.138,-43.224999999999994,346.22,33.879999999999995,-0.21960000000000002,0.04148,-1.391776,4
2024-06-14 12:36:40.143,-42.945,347.40999999999997,37.31,-0.204716,0.047824,-1.471076,4
2024-06-14 12:36:40.147,-41.965,347.79499999999996,41.019999999999996,-0.180804,0.061488,-1.551108,4
2024-06-14 12:36:40.152,-40.915000000000006,347.06,45.08,-0.160308,0.08247199999999999,-1.631628,4
2024-06-14 12:36:40.157,-41.44,345.695,49.455,-0.139812,0.1037,-1.708976,4
2024-06-14 12:36:40.162,-43.540000000000006,344.085,53.97,-0.113948,0.120292,-1.781444,4
2024-06-14 12:36:40.167,-47.81,342.02,58.625,-0.071492,0.13663999999999998,-1.868796,4
2024-06-14 12:36:40.172,-52.78,338.625,63.175,-0.025863999999999998,0.14347200000000002,-1.981036,4
2024-06-14 12:36:40.176,-56.42,334.39,67.97,0.02562,0.143716,-2.0732679999999997,4
2024-06-14 12:36:40.181,-58.415000000000006,329.35,73.67500000000001,0.08003199999999999,0.131516,-2.1642799999999998,4
2024-06-14 12:36:40.186,-58.625,323.575,80.605,0.136152,0.113704,-2.2606599999999997,4
2024-06-14 12:36:40.191,-56.665,317.94,88.83,0.227896,0.10345599999999999,-2.345084,4
2024-06-14 12:36:40.196,-52.465,313.775,98.66499999999999,0.36819599999999997,0.09662399999999999,-2.406084,4
2024-06-14 12:36:40.201,-48.055,311.955,109.34,0.5394840000000001,0.102236,-2.494168,4
2024-06-14 12:36:40.205,-45.745000000000005,311.46500000000003,118.50999999999999,0.683444,0.129076,-2.643496,4
2024-06-14 12:36:40.210,-41.72,312.69,125.79,0.8300879999999999,0.154696,-2.7615920000000003,4
2024-06-14 12:36:40.215,-36.75,316.96,131.35500000000002,1.002108,0.191052,-2.86822,4
2024-06-14 12:36:40.220,-28.490000000000002,321.895,135.38,1.170712,0.24326799999999998,-3.0163279999999997,4
2024-06-14 12:36:40.225,-18.165,329.315,136.99,1.344196,0.291092,-3.128812,4
2024-06-14 12:36:40.229,-13.09,338.625,134.925,1.484496,0.338428,-3.236904,4
2024-06-14 12:36:40.234,-8.33,350.98,130.97,1.598688,0.400648,-3.26106,4
2024-06-14 12:36:40.239,-3.815,365.225,136.29,1.712148,0.5097160000000001,-3.217384,4
2024-06-14 12:36:40.244,8.575,378.245,130.865,2.120116,0.08857199999999998,-3.188104,4
2024-06-14 12:36:40.249,25.060000000000002,385.56,107.31,2.090104,0.45676799999999995,-3.1305199999999997,4
2024-06-14 12:36:40.254,44.974999999999994,389.025,98.315,2.144516,0.51484,-2.953864,4
2024-06-14 12:36:40.258,64.47,384.58000000000004,88.305,2.076196,0.557296,-2.7147439999999996,4
2024-06-14 12:36:40.263,71.75,380.345,77.0,2.313608,0.55388,-2.523204,4
2024-06-14 12:36:40.268,57.715,372.61,63.21,2.561512,0.593652,-2.345816,4
2024-06-14 12:36:40.273,39.235,362.775,47.040000000000006,2.797704,0.6068279999999999,-2.049112,4
2024-06-14 12:36:40.278,25.095,350.385,29.505000000000003,2.9875359999999995,0.6980839999999999,-1.7453319999999999,4
2024-06-14 12:36:40.283,18.9,334.775,9.379999999999999,3.1737079999999995,0.8173999999999999,-1.513776,4
2024-06-14 12:36:40.287,16.03,316.19000000000005,-14.84,3.399896,0.93574,-1.34078,4
2024-06-14 12:36:40.292,10.64,295.78499999999997,-42.385000000000005,3.649264,1.016992,-1.2017000000000002,4
2024-06-14 12:36:40.297,-2.9749999999999996,272.51,-71.36500000000001,3.8993640000000003,1.0055239999999999,-1.065792,4
2024-06-14 12:36:40.302,-28.455,246.75,-99.225,4.168495999999999,0.877424,-1.017968,4
2024-06-14 12:36:40.307,-62.44,218.855,-124.25,4.3646720000000006,0.687836,-0.971364,4
2024-06-14 12:36:40.312,-95.13,185.465,-145.14499999999998,4.49082,0.4514,-0.988444,4
2024-06-14 12:36:40.316,-116.55000000000001,147.035,-160.89499999999998,4.4891119999999995,0.18080400000000002,-0.9594079999999999,4
2024-06-14 12:36:40.321,-119.945,95.97,-170.83499999999998,4.3834599999999995,-0.080276,-0.933056,4
2024-06-14 12:36:40.326,-108.28999999999999,53.095,-174.44,4.1663,-0.301828,-0.92964,4
2024-06-14 12:36:40.331,-81.27,1.54,-171.85,3.8891159999999996,-0.45896400000000004,-0.9579439999999999,4
2024-06-14 12:36:40.336,-48.125,-48.335,-163.66000000000003,3.588508,-0.537044,-1.000888,4
2024-06-14 12:36:40.341,-15.085,-93.275,-150.57,3.263256,-0.568276,-1.076772,4
2024-06-14 12:36:40.345,165.89999999999998,-389.83000000000004,-84.91,5.425827999999999,-4.0118480000000005,-8.599291999999998,4
