time,gyroscope_x,gyroscope_y,gyroscope_z,accelerometer_x,accelerometer_y,accelerometer_z,phase
2024-06-14 12:40:33.659,-326.41,-263.06,-56.14,-2.760616,0.711992,8.401408,1
2024-06-14 12:40:33.664,-19.11,4.34,22.75,-1.1873040000000001,-1.180472,-0.307928,1
2024-06-14 12:40:33.669,-83.09,-34.58,-31.5,-2.111576,-0.17079999999999998,-1.868552,1
2024-06-14 12:40:33.674,-27.23,11.41,-64.26,-1.054568,0.26693599999999995,-1.451312,1
2024-06-14 12:40:33.679,-56.21,31.71,-82.25,0.25961599999999996,0.46555199999999997,-1.82024,1
2024-06-14 12:40:33.684,16.17,-9.31,-88.62,1.031144,0.512888,-2.2335760000000002,1
2024-06-14 12:40:33.688,-40.04,4.83,-75.74,0.9969839999999999,0.796904,-2.550288,1
2024-06-14 12:40:33.693,12.67,-44.8,-45.01,0.446032,0.920856,-2.701568,1
2024-06-14 12:40:33.698,-24.36,-47.6,-9.8,0.11516799999999999,0.75152,-2.655208,1
2024-06-14 12:40:33.703,-20.16,-57.05,19.39,0.235216,0.482632,-2.3467919999999998,1
2024-06-14 12:40:33.708,-9.24,-58.31,38.71,0.28450400000000003,0.28401600000000005,-2.147688,1
2024-06-14 12:40:33.713,-30.31,-79.66,48.51,0.24156,-0.08784,-1.840248,1
2024-06-14 12:40:33.717,-12.88,-124.32,41.16,0.161528,-0.377224,-1.579656,1
2024-06-14 12:40:33.722,-10.85,-122.5,15.68,0.172264,-0.399184,-1.434232,1
2024-06-14 12:40:33.727,-3.15,-111.09,-15.54,0.198128,-0.215696,-1.335656,1
2024-06-14 12:40:33.732,7.07,-96.95,-32.9,0.17079999999999998,-0.08784,-1.212192,1
2024-06-14 12:40:33.737,-4.41,-78.26,-27.79,0.11419199999999999,-0.015616,-1.0872639999999998,1
2024-06-14 12:40:33.742,-5.95,-68.95,-10.5,0.08247199999999999,0.07027199999999999,-1.089216,2
2024-06-14 12:40:33.746,-7.63,-56.21,3.85,0.093696,0.049775999999999994,-1.089704,2
2024-06-14 12:40:33.751,-9.52,-49.91,7.14,0.10492,-0.035135999999999994,-1.111176,2
2024-06-14 12:40:33.756,-4.55,-46.55,1.4,0.11858400000000001,-0.06588,-1.1424079999999999,2
2024-06-14 12:40:33.761,-5.81,-43.68,-5.74,0.1098,-0.06490399999999999,-1.1326479999999999,2
2024-06-14 12:40:33.766,-4.27,-39.48,-7.77,0.11516799999999999,-0.014152,-1.1477760000000001,2
2024-06-14 12:40:33.771,-3.99,-34.37,-3.99,0.074176,0.00488,-1.115568,2
2024-06-14 12:40:33.775,-4.41,-30.8,0.28,0.06344,0.042455999999999994,-1.097512,2
2024-06-14 12:40:33.780,-1.47,-27.79,1.12,0.049288,0.02684,-1.0711600000000001,2
2024-06-14 12:40:33.785,-0.63,-25.06,-0.07,0.044896,-0.001464,-1.066768,2
2024-06-14 12:40:33.790,0.49,-23.24,-1.05,0.037576,-0.038064,-1.057008,2
2024-06-14 12:40:33.795,0.7,-21.56,-0.14,0.032695999999999996,-0.033671999999999994,-1.051152,2
2024-06-14 12:40:33.800,-0.14,-19.67,1.19,0.028791999999999998,-0.020984,-1.042368,2
2024-06-14 12:40:33.804,0.0,-17.92,1.82,0.02684,-0.00488,-1.042368,2
2024-06-14 12:40:33.809,-0.07,-16.66,1.12,0.027327999999999998,-0.017567999999999997,-1.039928,2
2024-06-14 12:40:33.814,-0.28,-15.89,0.7,0.021472,-0.032208,-1.035536,2
2024-06-14 12:40:33.819,-0.56,-15.33,0.98,0.020496,-0.029768,-1.020896,2
2024-06-14 12:40:33.824,-0.98,-15.26,1.68,0.015128,-0.015128,-1.013576,2
2024-06-14 12:40:33.829,-1.05,-15.68,1.68,0.014152,-0.012199999999999999,-1.024312,2
2024-06-14 12:40:33.834,-1.12,-17.01,1.19,0.006344,-0.016104,-1.041392,2
2024-06-14 12:40:33.838,-1.4,-18.69,0.77,0.000488,-0.025376,-1.040416,2
2024-06-14 12:40:33.843,-1.82,-21.07,0.84,-0.001464,-0.024887999999999997,-1.033584,2
2024-06-14 12:40:33.848,-2.24,-22.89,0.98,-0.00244,-0.03172,-1.0296800000000002,2
2024-06-14 12:40:33.853,-2.66,-24.43,1.05,0.00244,-0.029768,-1.0248,2
2024-06-14 12:40:33.858,-3.15,-25.2,0.84,0.00488,-0.029768,-1.022848,2
2024-06-14 12:40:33.863,-3.43,-24.15,0.35,0.010248,-0.025864,-1.01748,2
2024-06-14 12:40:33.867,-3.99,-25.41,0.35,0.018056000000000003,-0.026352,-1.0140639999999999,2
2024-06-14 12:40:33.872,-4.62,-25.55,0.7,0.018544,-0.030744,-1.013088,2
2024-06-14 12:40:33.877,-5.18,-24.78,1.19,0.023424,-0.021472,-1.008696,2
2024-06-14 12:40:33.882,-5.39,-25.41,1.33,0.027327999999999998,-0.020496,-1.006744,2
2024-06-14 12:40:33.887,-6.58,-22.19,1.33,0.027327999999999998,-0.01952,-1.00528,2
2024-06-14 12:40:33.892,-5.32,-20.58,1.82,0.03172,-0.016104,-1.00284,2
2024-06-14 12:40:33.896,-5.81,-21.21,2.38,0.03172,-0.018544,-0.9989359999999999,2
2024-06-14 12:40:33.901,-5.6,-14.56,2.8,0.040504,-0.012199999999999999,-0.999912,2
2024-06-14 12:40:33.906,-2.66,-9.52,3.29,0.041479999999999996,-0.017079999999999998,-0.9950319999999999,2
2024-06-14 12:40:33.911,-5.81,-20.09,3.36,0.044896,-0.017567999999999997,-0.989664,2
2024-06-14 12:40:33.916,-6.51,-18.2,3.29,0.049288,-0.020496,-0.984296,2
2024-06-14 12:40:33.921,-5.88,-16.94,3.36,0.047335999999999996,-0.01952,-0.986736,2
2024-06-14 12:40:33.925,-6.86,-16.87,3.43,0.04636,-0.021472,-0.984784,2
2024-06-14 12:40:33.930,-6.79,-17.64,3.64,0.045384,-0.02196,-0.98576,2
2024-06-14 12:40:33.935,-7.07,-17.64,3.92,0.047335999999999996,-0.018544,-0.987712,2
2024-06-14 12:40:33.940,-7.35,-16.8,3.78,0.049775999999999994,-0.018544,-0.988688,2
2024-06-14 12:40:33.945,-6.93,-17.64,3.64,0.048312,-0.013663999999999999,-0.9916159999999999,2
2024-06-14 12:40:33.950,-7.07,-17.08,3.64,0.043432000000000005,-0.010736,-0.986736,2
2024-06-14 12:40:33.954,-6.65,-17.08,3.71,0.04636,-0.003904,-0.993568,2
2024-06-14 12:40:33.959,-18.34,-54.67,3.43,0.047824,-0.000976,-0.9940559999999999,2
2024-06-14 12:40:33.964,-4.34,-23.66,3.78,0.052704,-0.005368,-0.99552,2
2024-06-14 12:40:33.969,-6.86,-22.26,3.5,0.052704,-0.001464,-0.9969839999999999,2
2024-06-14 12:40:33.974,-5.74,-20.72,2.87,0.058072,0.001464,-0.99552,2
2024-06-14 12:40:33.979,-3.99,-20.09,2.66,0.057095999999999994,-0.001952,-1.000888,2
2024-06-14 12:40:33.983,-5.53,-19.25,3.01,0.062464,-0.006344,-1.0004,2
2024-06-14 12:40:33.988,-3.57,-19.53,3.15,0.061488,-0.011712,-1.006256,2
2024-06-14 12:40:33.993,-4.48,-19.04,3.29,0.061488,-0.009272,-1.003328,2
2024-06-14 12:40:33.998,-4.69,-19.32,3.36,0.064416,-0.012688,-1.006256,2
2024-06-14 12:40:34.003,-4.34,-19.74,3.29,0.06490399999999999,-0.012199999999999999,-1.0091839999999999,2
2024-06-14 12:40:34.008,-5.6,-19.18,3.36,0.07173600000000001,-0.011712,-1.013088,2
2024-06-14 12:40:34.012,-6.51,-19.74,3.64,0.07466400000000001,-0.011224,-1.01016,2
2024-06-14 12:40:34.017,-6.65,-20.58,3.71,0.075152,-0.020007999999999998,-1.00528,2
2024-06-14 12:40:34.022,-7.42,-21.28,3.85,0.07222400000000001,-0.015128,-1.00528,2
2024-06-14 12:40:34.027,-7.28,-21.84,3.64,0.07564,-0.004391999999999999,-1.006256,2
2024-06-14 12:40:34.032,-7.35,-22.33,3.43,0.087352,-0.003904,-1.0096720000000001,2
2024-06-14 12:40:34.037,-8.89,-24.85,3.43,0.07466400000000001,0.028791999999999998,-0.986736,2
2024-06-14 12:40:34.041,-4.41,-26.32,3.15,0.074176,0.004391999999999999,-1.01748,2
2024-06-14 12:40:34.046,-8.75,-28.14,2.59,0.077592,-0.006344,-1.01992,2
2024-06-14 12:40:34.051,76.3,6.44,3.92,0.07222400000000001,-0.000488,-1.0555439999999998,2
2024-06-14 12:40:34.056,22.54,-9.87,2.45,0.073688,0.020007999999999998,-1.01992,2
2024-06-14 12:40:34.061,-25.34,-6.93,4.06,0.08784,0.000976,-1.031632,2
2024-06-14 12:40:34.066,1.26,-14.91,3.71,0.08491199999999999,0.006344,-1.0462719999999999,2
2024-06-14 12:40:34.071,-2.03,-22.4,2.17,0.088328,-0.001464,-1.055056,2
2024-06-14 12:40:34.075,-16.87,-27.58,0.84,0.096136,-0.001464,-1.040416,2
2024-06-14 12:40:34.080,2.52,-34.65,1.12,0.096624,-0.00732,-1.0365119999999999,2
2024-06-14 12:40:34.085,-15.19,-40.95,2.1,0.104432,0.005368,-1.043344,2
2024-06-14 12:40:34.090,-9.38,-46.41,1.82,0.102968,0.013176,-1.04432,2
2024-06-14 12:40:34.095,-7.35,-50.47,0.63,0.113704,0.010248,-1.047248,2
2024-06-14 12:40:34.100,-14.84,-50.82,-0.56,0.110776,0.00488,-1.052616,2
2024-06-14 12:40:34.104,-7.84,-55.93,-0.91,0.115656,0.011224,-1.05408,2
2024-06-14 12:40:34.109,-12.32,-54.46,-0.49,0.108336,0.015616,-1.0755519999999998,2
2024-06-14 12:40:34.114,-10.57,-57.33,-0.42,0.118096,0.0034159999999999998,-1.087752,2
2024-06-14 12:40:34.119,-7.14,-62.93,-0.98,0.12736799999999998,-0.020496,-1.10776,2
2024-06-14 12:40:34.124,-8.19,-66.64,-1.47,0.126392,0.00488,-1.091656,2
2024-06-14 12:40:34.129,-3.29,-70.91,-1.61,0.13224799999999998,0.004391999999999999,-1.092632,2
2024-06-14 12:40:34.133,6.58,-78.05,-0.07,0.137616,0.022448,-1.039928,2
2024-06-14 12:40:34.138,53.2,-88.62,4.62,0.14444800000000002,-0.030744,-1.084824,2
2024-06-14 12:40:34.143,19.74,-75.18,1.12,0.179096,0.085888,-1.013576,2
2024-06-14 12:40:34.148,25.83,-71.33,1.75,0.154208,-0.01952,-1.1253279999999999,2
2024-06-14 12:40:34.153,29.68,-72.59,3.22,0.195688,-0.09467199999999999,-1.208288,2
2024-06-14 12:40:34.158,25.97,-78.89,5.04,0.159088,-0.02196,-1.349808,2
2024-06-14 12:40:34.162,17.64,-81.41,3.99,0.145424,-0.023912,-1.370792,2
2024-06-14 12:40:34.167,17.99,-85.4,3.92,0.164456,-0.022448,-1.357128,2
2024-06-14 12:40:34.172,17.57,-90.93,3.43,0.145424,-0.050752,-1.361032,2
2024-06-14 12:40:34.177,15.47,-97.93,3.43,0.14347200000000002,-0.012199999999999999,-1.525,2
2024-06-14 12:40:34.182,9.94,-105.56,3.08,0.13419999999999999,-0.049775999999999994,-1.508408,2
2024-06-14 12:40:34.187,5.25,-116.69,3.99,0.14688800000000002,-0.06344,-1.5542799999999999,2
2024-06-14 12:40:34.191,4.27,-127.19,5.18,0.14591200000000001,-0.038552,-1.563064,2
2024-06-14 12:40:34.196,1.12,-137.76,5.25,0.157136,-0.034159999999999996,-1.626992,2
2024-06-14 12:40:34.201,-0.42,-150.92,5.88,0.12736799999999998,-0.08003199999999999,-1.652856,2
2024-06-14 12:40:34.206,-0.49,-164.29,7.21,0.148352,-0.096136,-1.6836,2
2024-06-14 12:40:34.211,-4.62,-179.41,8.47,0.14347200000000002,-0.112728,-1.7192239999999999,2
2024-06-14 12:40:34.216,-8.05,-194.32,10.85,0.121512,-0.163968,-1.733864,2
2024-06-14 12:40:34.220,-10.43,-210.42,13.86,0.119072,-0.17812,-1.7206879999999998,2
2024-06-14 12:40:34.225,-12.18,-224.98,16.8,0.159088,-0.122976,-1.7563119999999999,2
2024-06-14 12:40:34.230,-13.3,-239.54,18.41,0.1098,-0.07222400000000001,-1.8173119999999998,3
2024-06-14 12:40:34.235,-13.02,-255.78,19.11,0.09516,-0.020984,-1.873432,3
2024-06-14 12:40:34.240,-11.83,-276.22,19.25,0.091256,-0.013663999999999999,-1.989088,3
2024-06-14 12:40:34.245,-12.25,-301.28,19.67,0.061975999999999996,-0.072712,-2.023736,3
2024-06-14 12:40:34.249,-13.79,-328.23,21.91,0.06539199999999999,-0.13566399999999998,-2.643008,3
2024-06-14 12:40:34.254,-27.44,-343.21,24.36,0.057095999999999994,-0.23326399999999997,-2.564928,3
2024-06-14 12:40:34.259,-39.06,-369.95,28.35,0.028791999999999998,-0.328912,-2.69132,3
2024-06-14 12:40:34.264,-51.94,-397.88,33.04,0.011224,-0.389424,-2.844552,3
2024-06-14 12:40:34.269,-63.7,-422.87,38.5,0.07027199999999999,-0.440176,-2.964112,3
2024-06-14 12:40:34.274,-75.25,-447.51,43.05,0.09028,-0.488,-3.075864,3
2024-06-14 12:40:34.279,-85.47,-466.13,47.95,0.222528,-0.5621759999999999,-3.194936,3
2024-06-14 12:40:34.283,-94.08,-480.83,52.57,0.24790399999999999,-0.653432,-3.358904,3
2024-06-14 12:40:34.288,-94.15,-487.27,56.56,0.28938400000000003,-0.71004,-3.429176,3
2024-06-14 12:40:34.293,-93.1,-494.9,60.06,0.215208,-0.646112,-3.35744,3
2024-06-14 12:40:34.298,-87.78,-500.29,60.69,0.20154399999999997,-0.549,-3.38184,3
2024-06-14 12:40:34.303,-75.46,-505.26,60.2,0.160552,-0.50508,-3.413072,3
2024-06-14 12:40:34.308,-56.21,-506.87,58.94,0.16006399999999998,-0.372344,-3.3828159999999996,3
2024-06-14 12:40:34.312,-43.82,-500.5,57.33,-0.019032,-0.209352,-3.22812,3
2024-06-14 12:40:34.317,-37.45,-491.47,54.46,-0.409432,-0.08686400000000001,-2.999248,3
2024-06-14 12:40:34.322,-32.13,-476.49,51.87,-0.747616,-0.186904,-2.795752,3
2024-06-14 12:40:34.327,-36.68,-460.81,51.24,-1.186328,-0.343064,-2.63032,3
2024-06-14 12:40:34.332,-45.92,-454.65,54.46,-1.567944,-0.43968799999999997,-2.629832,3
2024-06-14 12:40:34.337,-48.51,-451.85,56.7,-1.822192,-0.335744,-2.486848,3
2024-06-14 12:40:34.341,-48.86,-437.29,57.82,-2.3667999999999996,-0.29182400000000003,-1.7446,3
2024-06-14 12:40:34.346,-35.84,-406.42,60.76,-2.281888,-0.27669599999999994,-0.565104,3
2024-06-14 12:40:34.351,-56.77,-362.04,54.88,-1.72996,-0.604632,-0.00488,3
2024-06-14 12:40:34.356,-53.62,-325.92,43.12,-1.2341520000000001,-0.822768,1.97884,3
2024-06-14 12:40:34.361,21.63,-197.75,46.34,-1.510848,-0.7481039999999999,-0.336232,4
2024-06-14 12:40:34.366,89.74,-160.37,43.19,-1.367864,-0.7637200000000001,-1.9759120000000001,4
2024-06-14 12:40:34.370,109.2,-32.55,28.35,-1.2541600000000002,-0.364536,-1.8763599999999998,4
2024-06-14 12:40:34.375,99.33,52.15,12.11,-1.347856,-0.12980799999999998,-0.945744,4
2024-06-14 12:40:34.380,71.61,110.88,-4.97,-1.52988,0.07027199999999999,-0.6792959999999999,4
2024-06-14 12:40:34.385,28.07,155.33,-20.44,-1.394704,0.177144,-0.693936,4
2024-06-14 12:40:34.390,-18.76,182.35,-33.53,-1.130696,0.17568,-0.856928,4
2024-06-14 12:40:34.395,-63.35,195.16,-43.61,-0.935496,0.10052799999999999,-0.94672,4
2024-06-14 12:40:34.399,-100.24,199.92,-49.21,-0.852536,-0.052216,-0.879864,4
2024-06-14 12:40:34.404,-122.15,201.88,-49.14,-0.843264,-0.223992,-0.657336,4
2024-06-14 12:40:34.409,-128.24,204.4,-44.03,-0.842776,-0.384056,-0.45139999999999997,4
2024-06-14 12:40:34.414,-117.81,208.11,-34.93,-0.818864,-0.532408,-0.362584,4
2024-06-14 12:40:34.419,-94.99,212.73,-23.24,-0.752008,-0.659288,-0.38308,4
2024-06-14 12:40:34.424,-63.49,215.95,-9.8,-0.674904,-0.7363919999999999,-0.438712,4
2024-06-14 12:40:34.428,-26.67,216.86,4.34,-0.6212239999999999,-0.7422479999999999,-0.464576,4
2024-06-14 12:40:34.433,9.38,217.35,18.2,-0.58804,-0.680272,-0.452376,4
2024-06-14 12:40:34.438,40.39,216.58,30.31,-0.571936,-0.5821839999999999,-0.447984,4
2024-06-14 12:40:34.443,62.58,216.09,39.97,-0.545584,-0.46164799999999995,-0.476288,4
2024-06-14 12:40:34.448,75.81,215.32,47.04,-0.510936,-0.321592,-0.5241119999999999,4
2024-06-14 12:40:34.453,81.06,214.55,51.31,-0.482632,-0.183976,-0.5738880000000001,4
2024-06-14 12:40:34.457,78.89,216.44,52.57,-0.472872,-0.06831999999999999,-0.606096,4
2024-06-14 12:40:34.462,71.89,220.08,51.1,-0.475312,0.022936,-0.630496,4
2024-06-14 12:40:34.467,62.16,226.31,47.04,-0.470432,0.08637600000000001,-0.656848,4
2024-06-14 12:40:34.472,51.87,235.06,41.16,-0.46359999999999996,0.120048,-0.691984,4
2024-06-14 12:40:34.477,43.05,245.77,33.81,-0.449936,0.13419999999999999,-0.731024,4
2024-06-14 12:40:34.482,36.96,256.62,25.62,-0.437736,0.122488,-0.7720159999999999,4
2024-06-14 12:40:34.488,33.74,267.61,16.94,-0.426512,0.09955199999999999,-0.814472,4
2024-06-14 12:40:34.492,33.46,277.83,8.26,-0.406016,0.08052,-0.8418,4
2024-06-14 12:40:34.497,35.28,287.07,-0.49,-0.384544,0.063928,-0.88328,4
2024-06-14 12:40:34.502,37.87,294.84,-9.1,-0.365024,0.061975999999999996,-0.9184159999999999,4
2024-06-14 12:40:34.507,41.02,300.58,-17.71,-0.34745600000000004,0.063928,-0.959408,4
2024-06-14 12:40:34.512,44.03,305.06,-26.11,-0.333792,0.06344,-1.00284,4
2024-06-14 12:40:34.516,46.34,308.42,-34.09,-0.32256799999999997,0.061975999999999996,-1.052128,4
2024-06-14 12:40:34.521,48.44,310.52,-41.58,-0.307928,0.054168,-1.0931199999999999,4
2024-06-14 12:40:34.526,50.47,312.62,-48.02,-0.305,0.042944,-1.146312,4
2024-06-14 12:40:34.531,52.36,315.21,-53.55,-0.28938400000000003,0.032208,-1.206336,4
2024-06-14 12:40:34.536,53.9,318.01,-57.75,-0.26937599999999995,0.016104,-1.264408,4
2024-06-14 12:40:34.541,54.74,321.65,-60.41,-0.251808,0.001952,-1.328336,4
2024-06-14 12:40:34.545,55.23,325.08,-61.95,-0.22447999999999999,-0.012688,-1.41032,4
2024-06-14 12:40:34.550,54.95,329.98,-62.65,-0.19763999999999998,-0.030744,-1.497184,4
2024-06-14 12:40:34.555,54.04,333.55,-63.28,-0.158112,-0.03904,-1.569408,4
2024-06-14 12:40:34.560,52.36,338.03,-63.7,-0.135176,-0.051728,-1.62992,4
2024-06-14 12:40:34.565,51.59,341.67,-63.56,-0.113216,-0.060512,-1.6997039999999999,4
2024-06-14 12:40:34.570,52.08,345.52,-63.14,-0.08930400000000001,-0.071248,-1.78364,4
2024-06-14 12:40:34.574,53.34,350.07,-62.09,-0.07222400000000001,-0.092232,-1.882216,4
2024-06-14 12:40:34.579,55.02,353.92,-61.32,-0.061975999999999996,-0.101992,-1.991528,4
2024-06-14 12:40:34.584,56.28,358.47,-61.6,-0.054655999999999996,-0.10248,-2.0940079999999996,4
2024-06-14 12:40:34.589,58.31,363.02,-63.7,-0.048799999999999996,-0.081008,-2.184776,4
2024-06-14 12:40:34.594,59.5,368.76,-67.55,-0.045872,-0.069296,-2.29848,4
2024-06-14 12:40:34.599,59.71,373.66,-73.15,-0.024399999999999998,-0.061488,-2.4248719999999997,4
2024-06-14 12:40:34.603,59.57,378.91,-79.94,0.009272,-0.056119999999999996,-2.5585839999999997,4
2024-06-14 12:40:34.608,59.36,385.0,-87.71,0.064416,-0.056608,-2.690832,4
2024-06-14 12:40:34.613,58.03,391.44,-96.88,0.149816,-0.073688,-2.824056,4
2024-06-14 12:40:34.618,54.39,397.95,-107.03,0.27181599999999995,-0.121512,-2.9284879999999998,4
2024-06-14 12:40:34.623,48.65,404.6,-117.39,0.434808,-0.189832,-3.015352,4
2024-06-14 12:40:34.628,40.74,411.11,-127.33,0.7461519999999999,-0.195688,-2.882616,4
2024-06-14 12:40:34.632,37.17,417.13,-135.73,0.960384,-0.131272,-2.8738319999999997,4
2024-06-14 12:40:34.637,55.44,417.13,-136.22,1.0950719999999998,-0.11175199999999999,-3.094408,4
2024-06-14 12:40:34.642,69.02,415.8,-131.67,1.333216,-0.094184,-3.231048,4
2024-06-14 12:40:34.647,65.87,409.43,-127.19,1.628456,-0.077592,-3.309616,4
2024-06-14 12:40:34.652,49.35,398.3,-122.85,1.9256479999999998,-0.068808,-3.3803759999999996,4
2024-06-14 12:40:34.657,27.37,385.56,-115.99,2.150616,-0.152744,-3.39404,4
2024-06-14 12:40:34.661,3.22,371.7,-106.12,2.308728,-0.303048,-3.310592,4
2024-06-14 12:40:34.666,-17.71,356.86,-95.27,2.44976,-0.423096,-3.0963600000000002,4
2024-06-14 12:40:34.671,-26.04,341.53,-84.42,2.584448,-0.511424,-2.801608,4
2024-06-14 12:40:34.676,-19.67,323.82,-72.94,2.672288,-0.58316,-2.4653759999999996,4
2024-06-14 12:40:34.681,-2.8,302.33,-59.99,2.680096,-0.6451359999999999,-2.146712,4
2024-06-14 12:40:34.686,19.88,277.69,-45.01,2.84016,-0.705648,-1.91296,4
2024-06-14 12:40:34.690,44.8,254.24,-25.9,3.171512,-0.81252,-1.687016,4
2024-06-14 12:40:34.695,69.51,231.42,-1.61,3.578016,-0.862296,-1.508896,4
2024-06-14 12:40:34.700,94.15,210.21,24.43,4.010872,-0.807152,-1.324432,4
2024-06-14 12:40:34.705,119.77,189.07,50.12,4.407616,-0.6202479999999999,-1.112152,4
2024-06-14 12:40:34.710,146.51,167.79,72.8,4.725304,-0.305488,-0.968192,4
2024-06-14 12:40:34.715,166.81,143.64,91.07,4.954664,0.07076,-0.916952,4
2024-06-14 12:40:34.719,165.9,113.68,109.9,5.00444,0.406992,-0.949648,4
2024-06-14 12:40:34.724,152.25,73.08,105.63,5.062512,0.824232,-0.9813679999999999,4
2024-06-14 12:40:34.729,114.03,28.14,105.56,4.8922,1.1126399999999999,-0.993568,4
2024-06-14 12:40:34.734,63.49,-14.35,100.73,4.571096,1.2483039999999999,-0.9882,4
2024-06-14 12:40:34.739,9.52,-52.92,90.79,4.237792,1.323944,-0.191296,4
2024-06-14 12:40:34.744,-189.63,-534.31,20.3,7.640616,2.246264,-7.9622079999999995,4
