time,gyroscope_x,gyroscope_y,gyroscope_z,accelerometer_x,accelerometer_y,accelerometer_z,phase
2024-06-14 12:19:25.562,365.435,-139.64999999999998,-60.865,-4.294156,1.587708,5.476335999999999,1
2024-06-14 12:19:25.567,368.97,-257.11,-66.535,-1.37738,0.093208,-0.642452,1
2024-06-14 12:19:25.571,425.705,-312.935,-51.555,-0.917928,-0.0488,-1.247328,1
2024-06-14 12:19:25.576,373.52,-361.76,-32.9,0.291092,0.10125999999999999,-2.247972,1
2024-06-14 12:19:25.581,278.25,-378.98,4.970000000000001,0.48775599999999997,-0.13785999999999998,-2.798436,1
2024-06-14 12:19:25.586,148.82,-382.515,40.67,0.531676,-0.485072,-2.666188,1
2024-06-14 12:19:25.591,57.05,-369.25,61.74,0.46921199999999996,-0.41748399999999997,-2.7389,1
2024-06-14 12:19:25.595,10.535,-331.275,66.535,0.493612,-0.639524,-2.70718,1
2024-06-14 12:19:25.600,0.2799999999999998,-281.155,42.455,0.39406,-0.912072,-2.878956,2
2024-06-14 12:19:25.605,21.665,-244.72,2.9750000000000005,0.255224,-0.73322,-2.657404,2
2024-06-14 12:19:25.610,19.53,-215.74,-24.78,0.140788,-0.26108,-2.205516,2
2024-06-14 12:19:25.615,16.695,-193.89999999999998,-28.490000000000002,0.07075999999999999,0.085156,-1.913204,2
2024-06-14 12:19:25.620,3.465,-168.76999999999998,-11.865,0.112484,0.40991999999999995,-1.76656,2
2024-06-14 12:19:25.624,12.74,-131.635,15.995000000000001,0.227408,0.402844,-1.680428,2
2024-06-14 12:19:25.629,17.814999999999998,-106.68,32.760000000000005,0.136396,0.236436,-1.46034,2
2024-06-14 12:19:25.634,21.770000000000003,-90.93,36.05,0.075152,-0.002440000000000001,-1.311988,2
2024-06-14 12:19:25.639,20.545,-67.47999999999999,28.384999999999998,0.038307999999999995,-0.17934,-1.188768,2
2024-06-14 12:19:25.644,18.48,-47.004999999999995,16.31,0.043188,-0.166408,-1.167052,2
2024-06-14 12:19:25.649,17.36,-34.3,7.279999999999999,0.06246399999999999,-0.063928,-1.161196,2
2024-06-14 12:19:25.653,16.1,-29.925,6.055,0.12102399999999999,0.03416,-1.1482640000000002,2
2024-06-14 12:19:25.658,17.15,-22.505,7.0,0.146156,0.084668,-1.164856,2
2024-06-14 12:19:25.663,19.145,-19.915,6.4750000000000005,0.12395199999999999,0.05856,-1.141432,2
2024-06-14 12:19:25.668,19.565,-18.83,3.675,0.057096,-0.040504,-1.127524,2
2024-06-14 12:19:25.673,15.575,-16.380000000000003,-0.28,0.004148000000000001,-0.049532,-1.108004,2
2024-06-14 12:19:25.678,10.254999999999999,-16.520000000000003,-2.38,-0.005368,-0.0244,-1.0982439999999998,2
2024-06-14 12:19:25.682,6.895,-16.835,-1.47,0.006344,0.014884000000000001,-1.068964,2
2024-06-14 12:19:25.687,5.46,-15.82,-1.085,-0.00732,0.015615999999999998,-1.067988,2
2024-06-14 12:19:25.692,3.675,-15.05,-1.715,-0.031231999999999996,-0.010248,-1.065792,2
2024-06-14 12:19:25.697,1.645,-15.61,-3.01,-0.05246,0.0019520000000000002,-1.06018,2
2024-06-14 12:19:25.702,0.8400000000000001,-17.64,-3.71,-0.045872,0.017568,-1.061644,2
2024-06-14 12:19:25.707,0.63,-20.23,-3.605,-0.050752,0.006344,-1.0604239999999998,2
2024-06-14 12:19:25.711,-0.175,-23.064999999999998,-3.64,-0.050752,0.0075639999999999995,-1.05896,2
2024-06-14 12:19:25.716,-1.47,-25.515,-4.305,-0.068564,-0.019763999999999997,-1.068476,2
2024-06-14 12:19:25.721,-3.92,-28.175,-4.165,-0.012444,0.0068319999999999995,-1.068476,2
2024-06-14 12:19:25.726,-6.125,-30.52,-4.0249999999999995,-0.037088,-0.023667999999999998,-1.064328,2
2024-06-14 12:19:25.731,-8.33,-31.64,-4.0600000000000005,-0.052704,-0.012688,-1.0667679999999997,2
2024-06-14 12:19:25.735,-9.87,-32.97,-4.235,-0.044652,0.005124,-1.0545680000000002,2
2024-06-14 12:19:25.740,-10.92,-34.58,-4.34,-0.029768,0.010004,-1.047736,2
2024-06-14 12:19:25.745,-11.515,-37.31,-4.305,-0.06832,0.004636000000000002,-1.072136,2
2024-06-14 12:19:25.750,-11.829999999999998,-39.935,-4.13,-0.012688000000000005,-0.002928,-1.049688,2
2024-06-14 12:19:25.755,-12.18,-41.475,-4.41,-0.055875999999999995,0.015616000000000001,-1.048712,2
2024-06-14 12:19:25.760,-12.25,-42.84,-4.27,-0.013176,0.020496,-1.0304119999999999,2
2024-06-14 12:19:25.764,-12.004999999999999,-44.45,-4.48,-0.027083999999999997,0.020984,-1.053592,2
2024-06-14 12:19:25.769,-13.79,-39.724999999999994,-4.795,-0.032452,0.018543999999999998,-1.052616,2
2024-06-14 12:19:25.774,-10.955,-47.88,-4.55,-0.0019520000000000002,0.023424,-1.0326080000000002,2
2024-06-14 12:19:25.779,-10.254999999999999,-49.455,-4.2,-0.010735999999999999,0.021227999999999997,-1.038708,2
2024-06-14 12:19:25.784,-8.435,-50.68,-4.0600000000000005,-0.004392,0.024155999999999997,-1.0360239999999998,2
2024-06-14 12:19:25.789,-7.77,-51.03,-4.34,-0.00048799999999999885,0.02684,-1.038708,2
2024-06-14 12:19:25.793,12.530000000000001,-114.8,-1.9949999999999999,0.019032,0.03782,-1.0255319999999999,2
2024-06-14 12:19:25.798,-5.005,-51.275000000000006,-5.04,0.00732,0.04758,-1.0238239999999998,2
2024-06-14 12:19:25.803,-3.465,-50.82,-3.535,0.020496,0.04392,-1.0206520000000001,2
2024-06-14 12:19:25.807,0.9450000000000001,-49.175,-3.3950000000000005,0.029036,0.044407999999999996,-1.0133320000000001,2
2024-06-14 12:19:25.812,-1.05,-48.545,-5.495,0.040015999999999996,0.04026,-1.01016,2
2024-06-14 12:19:25.817,5.11,-47.25,-5.495,0.043676000000000006,0.037332,-1.005524,2
2024-06-14 12:19:25.821,2.17,-45.92,-4.6899999999999995,0.047824,0.032451999999999995,-1.0067439999999999,2
2024-06-14 12:19:25.826,4.9350000000000005,-50.33,-3.85,0.046604,0.03172,-1.009672,2
2024-06-14 12:19:25.831,5.355,-43.085,-5.32,0.04758,0.027083999999999997,-1.013088,2
2024-06-14 12:19:25.836,7.77,-41.754999999999995,-5.88,0.051727999999999996,0.0305,-1.011136,2
2024-06-14 12:19:25.841,7.945,-40.565,-5.425,0.055144,0.028547999999999997,-1.008696,2
2024-06-14 12:19:25.846,8.96,-39.69,-5.145,0.053680000000000005,0.027816,-1.02114,2
2024-06-14 12:19:25.850,9.975000000000001,-39.095,-5.775,0.053436,0.031232,-1.0177239999999999,2
2024-06-14 12:19:25.855,10.114999999999998,-38.394999999999996,-6.755,0.056608,0.027816,-1.0213839999999998,2
2024-06-14 12:19:25.860,11.9,-39.095,-6.789999999999999,0.070272,0.025132,-1.0204079999999998,2
2024-06-14 12:19:25.865,15.225000000000001,-39.725,-6.16,0.063928,0.035136,-1.0352919999999999,2
2024-06-14 12:19:25.870,17.57,-39.97,-6.65,0.06612399999999999,0.026352,-1.037732,2
2024-06-14 12:19:25.875,18.305,-41.72,-7.455,0.073688,0.022204,-1.0277280000000002,2
2024-06-14 12:19:25.879,19.494999999999997,-40.53,-7.734999999999999,0.078812,0.016592000000000003,-1.042856,2
2024-06-14 12:19:25.884,19.46,-40.775,-7.3149999999999995,0.088328,0.0031720000000000003,-1.043832,2
2024-06-14 12:19:25.889,19.425,-40.005,-6.93,0.09394,-0.0053679999999999995,-1.0287039999999998,2
2024-06-14 12:19:25.894,17.29,-39.305,-7.385,0.093208,0.015616000000000001,-1.02358,2
2024-06-14 12:19:25.899,13.3,-39.97,-8.295,0.103944,-0.004635999999999999,-1.0267519999999999,2
2024-06-14 12:19:25.904,12.46,-40.25,-7.735,0.103212,0.005611999999999999,-1.028948,2
2024-06-14 12:19:25.908,7.664999999999999,-39.165,-8.155000000000001,0.099552,0.0009760000000000003,-1.0531039999999998,2
2024-06-14 12:19:25.913,5.67,-40.355000000000004,-8.575,0.101748,0.019276,-1.037,2
2024-06-14 12:19:25.918,1.6099999999999999,-41.754999999999995,-9.52,0.09540399999999999,0.008539999999999999,-1.0997080000000001,2
2024-06-14 12:19:25.923,-0.14,-45.254999999999995,-10.045,0.101016,0.0068319999999999995,-1.072624,2
2024-06-14 12:19:25.928,0.03500000000000002,-47.355000000000004,-9.94,0.10394400000000001,0.0012200000000000002,-1.117032,2
2024-06-14 12:19:25.933,-1.4,-52.29,-9.8,0.11102000000000001,0.023668,-1.120936,2
2024-06-14 12:19:25.938,-1.995,-57.260000000000005,-10.535,0.109556,0.020007999999999998,-1.124596,2
2024-06-14 12:19:25.942,-4.62,-62.86,-11.34,0.101504,0.0046359999999999995,-1.147044,2
2024-06-14 12:19:25.947,-8.260000000000002,-69.33500000000001,-10.71,0.11223999999999999,0.015127999999999996,-1.1843759999999999,2
2024-06-14 12:19:25.952,-8.89,-73.99000000000001,-12.18,0.12736799999999998,0.013908,-1.1594879999999999,2
2024-06-14 12:19:25.957,-7.91,-77.455,-11.48,0.118584,-0.010491999999999998,-1.1953559999999999,2
2024-06-14 12:19:25.962,-11.41,-85.855,-11.585,0.143472,0.04392,-1.192916,2
2024-06-14 12:19:25.967,-10.535,-89.215,-12.285,0.12419599999999999,0.044408,-1.269776,2
2024-06-14 12:19:25.971,-11.34,-95.97,-13.16,0.134932,0.037332000000000004,-1.25416,2
2024-06-14 12:19:25.976,-10.885000000000002,-89.145,-14.21,0.13298,0.034648,-1.28222,2
2024-06-14 12:19:25.981,-12.879999999999999,-101.71000000000001,-15.120000000000001,0.13444399999999998,0.033184,-1.30906,2
2024-06-14 12:19:25.986,-13.02,-109.025,-15.575,0.142984,0.030744,-1.317356,2
2024-06-14 12:19:25.991,-14.245000000000001,-115.85,-15.82,0.141276,0.017079999999999998,-1.312964,2
2024-06-14 12:19:25.996,-14.42,-121.41499999999999,-15.68,0.14615599999999998,0.003416,-1.35542,2
2024-06-14 12:19:26.000,-14.385,-126.735,-15.434999999999999,0.14688800000000002,0.0053679999999999995,-1.3832360000000001,2
2024-06-14 12:19:26.005,-15.190000000000001,-136.46499999999997,-15.085,0.160308,-0.012931999999999999,-1.3656679999999999,2
2024-06-14 12:19:26.010,-17.64,-143.78,-14.385,0.15616,-0.027572,-1.3795760000000001,2
2024-06-14 12:19:26.015,-20.93,-152.495,-14.0,0.164456,-0.022692,-1.4059279999999998,2
2024-06-14 12:19:26.020,-25.445,-162.925,-14.035,0.166408,-0.019764,-1.441064,2
2024-06-14 12:19:26.025,-28.07,-174.265,-14.21,0.155428,0.013663999999999999,-1.4278879999999998,2
2024-06-14 12:19:26.029,-29.995,-185.675,-14.945,0.16421200000000002,0.029524,-1.43716,2
2024-06-14 12:19:26.034,-31.465000000000003,-197.155,-16.17,0.157868,0.03538,-1.46766,2
2024-06-14 12:19:26.039,-31.009999999999998,-208.35500000000002,-17.5,0.188124,0.05367999999999999,-1.464976,2
2024-06-14 12:19:26.044,-31.71,-221.79500000000002,-19.6,0.15445199999999998,0.068076,-1.567212,2
2024-06-14 12:19:26.049,-31.115000000000002,-238.315,-21.91,0.16836,0.10345599999999999,-1.582096,2
2024-06-14 12:19:26.054,-28.875,-254.695,-24.815,0.152988,0.122976,-1.640412,3
2024-06-14 12:19:26.058,-27.020000000000003,-273.105,-28.42,0.165188,0.162016,-1.7028759999999998,3
2024-06-14 12:19:26.063,-25.235,-292.25,-31.849999999999998,0.132736,0.138348,-1.746308,3
2024-06-14 12:19:26.068,-25.655,-311.95500000000004,-34.510000000000005,0.15616,0.123708,-1.8561079999999999,3
2024-06-14 12:19:26.073,-31.814999999999998,-333.025,-37.099999999999994,0.157136,0.16104000000000002,-2.0376440000000002,3
2024-06-14 12:19:26.078,-35.665,-358.19,-41.370000000000005,0.119072,0.204472,-2.053504,3
2024-06-14 12:19:26.083,-38.08,-389.305,-45.92,0.101504,0.179584,-2.1037679999999996,3
2024-06-14 12:19:26.087,-38.22,-417.34000000000003,-49.525,0.13395600000000002,0.178608,-2.3062880000000003,3
2024-06-14 12:19:26.092,-39.584999999999994,-446.635,-51.625,0.221308,0.1098,-2.436096,3
2024-06-14 12:19:26.097,-39.69,-475.33500000000004,-49.735,0.273768,0.026840000000000003,-2.75842,3
2024-06-14 12:19:26.102,-45.745,-497.84000000000003,-44.835,0.34306400000000004,0.142496,-3.006812,3
2024-06-14 12:19:26.107,-63.49,-509.985,-40.285,0.571204,0.121756,-3.598512,3
2024-06-14 12:19:26.112,-62.755,-523.2850000000001,-36.54,0.66612,-0.226432,-3.660488,3
2024-06-14 12:19:26.116,-44.765,-539.0699999999999,-24.92,0.310124,-0.026108000000000013,-3.7107520000000003,3
2024-06-14 12:19:26.121,-62.300000000000004,-546.735,-23.73,0.151524,0.24375600000000003,-3.8713040000000003,3
2024-06-14 12:19:26.126,-74.2,-557.4100000000001,-27.58,0.144204,0.037332,-3.760528,3
2024-06-14 12:19:26.131,-49.489999999999995,-563.465,-30.45,0.289628,-0.374784,-3.809816,3
2024-06-14 12:19:26.136,-10.43,-583.2049999999999,-22.119999999999997,0.080276,-0.28011199999999997,-3.902536,3
2024-06-14 12:19:26.141,9.59,-603.015,-15.190000000000001,-0.045384,0.24644,-3.7793159999999997,3
2024-06-14 12:19:26.146,1.925,-610.995,-15.435,-0.21667199999999998,0.553636,-3.3898919999999997,3
2024-06-14 12:19:26.150,-11.165,-606.83,-24.605,-0.416508,0.6043879999999999,-2.9809479999999997,3
2024-06-14 12:19:26.155,-13.685,-589.4,-31.534999999999997,-0.8205720000000001,0.44603200000000004,-2.5463839999999998,3
2024-06-14 12:19:26.160,-23.38,-560.77,-47.599999999999994,-1.3644479999999999,1.123376,-1.897588,3
2024-06-14 12:19:26.165,-35.175,-522.585,-48.265,-1.60186,0.9476959999999999,-1.9600520000000001,3
2024-06-14 12:19:26.170,-50.05,-502.985,-66.36,-1.430328,1.281244,-2.664236,3
2024-06-14 12:19:26.175,-88.19999999999999,-494.13,-86.31,-1.545008,1.24562,-2.8318639999999995,3
2024-06-14 12:19:26.179,-135.065,-449.53999999999996,-111.475,-1.559892,1.132648,-2.4270680000000002,3
2024-06-14 12:19:26.184,-157.045,-412.58,-128.975,-1.066036,0.9852719999999999,-1.7650959999999998,3
2024-06-14 12:19:26.189,-145.985,-412.72,-128.065,-0.695156,0.791048,-1.197308,3
2024-06-14 12:19:26.194,-121.205,-307.895,-117.63499999999999,-1.721908,0.341844,-1.5923439999999998,3
2024-06-14 12:19:26.199,-100.87,-166.04000000000002,-86.87,-2.489776,-0.10345599999999999,-1.350784,4
2024-06-14 12:19:26.204,-43.995000000000005,-44.589999999999996,-32.34,-2.0681439999999998,-0.304268,-0.991616,4
2024-06-14 12:19:26.208,21.805,47.425,21.384999999999998,-1.704828,-0.378932,-1.290028,4
2024-06-14 12:19:26.213,68.985,127.505,62.51,-1.7628999999999997,-0.300364,-1.384456,4
2024-06-14 12:19:26.218,106.61000000000001,188.57999999999998,94.92,-1.646512,-0.04953199999999999,-1.21146,4
2024-06-14 12:19:26.223,135.415,230.16,113.47,-1.4152,0.1464,-1.207312,4
2024-06-14 12:19:26.228,146.055,261.59000000000003,117.67,-1.3097919999999998,0.29645999999999995,-1.1687599999999998,4
2024-06-14 12:19:26.233,143.57,289.625,114.065,-1.250744,0.46311199999999997,-1.008696,4
2024-06-14 12:19:26.237,133.385,315.42,104.37,-1.1790079999999998,0.574376,-0.9220759999999999,4
2024-06-14 12:19:26.242,115.325,337.92499999999995,89.285,-1.080676,0.608292,-0.9469639999999999,4
2024-06-14 12:19:26.247,95.13,356.96500000000003,71.25999999999999,-0.9713639999999999,0.61854,-0.978196,4
2024-06-14 12:19:26.252,76.3,371.735,52.57,-0.88572,0.58804,-0.9598960000000001,4
2024-06-14 12:19:26.257,59.08,384.09000000000003,34.370000000000005,-0.822036,0.514108,-0.946476,4
2024-06-14 12:19:26.262,44.519999999999996,393.645,17.009999999999998,-0.726388,0.44408,-0.9452559999999999,4
2024-06-14 12:19:26.266,33.599999999999994,400.75,0.9449999999999998,-0.650748,0.37332,-0.96502,4
2024-06-14 12:19:26.271,25.585,406.245,-12.81,-0.583648,0.303048,-0.9860039999999999,4
2024-06-14 12:19:26.276,20.37,410.79499999999996,-24.5,-0.520208,0.24302399999999996,-1.000888,4
2024-06-14 12:19:26.281,17.15,414.96000000000004,-34.195,-0.467748,0.18007199999999998,-1.0352919999999999,4
2024-06-14 12:19:26.286,16.134999999999998,419.475,-41.965,-0.433832,0.11931599999999999,-1.071892,4
2024-06-14 12:19:26.291,17.36,424.375,-47.285,-0.40137999999999996,0.059536,-1.125084,4
2024-06-14 12:19:26.295,21.35,430.28999999999996,-49.455,-0.368196,-0.013176,-1.160708,4
2024-06-14 12:19:26.300,28.455,435.96000000000004,-48.72,-0.35746,-0.050508,-1.2019440000000001,4
2024-06-14 12:19:26.305,36.82,441.945,-46.165,-0.34916400000000003,-0.06417199999999999,-1.252452,4
2024-06-14 12:19:26.310,43.855000000000004,448.07,-42.56,-0.34208799999999995,-0.038796,-1.308084,4
2024-06-14 12:19:26.315,49.385,453.88,-38.535,-0.320616,-0.0014639999999999992,-1.3595679999999999,4
2024-06-14 12:19:26.320,53.305,459.20000000000005,-34.44,-0.312808,0.050264,-1.4137359999999999,4
2024-06-14 12:19:26.324,54.635000000000005,464.1,-31.15,-0.287432,0.10467599999999999,-1.47742,4
2024-06-14 12:19:26.329,53.34,467.775,-28.805,-0.26693599999999995,0.16592,-1.548668,4
2024-06-14 12:19:26.334,49.28,471.1,-27.229999999999997,-0.237168,0.21179199999999998,-1.5908799999999998,4
2024-06-14 12:19:26.339,43.155,473.83,-25.865000000000002,-0.217648,0.251808,-1.604056,4
2024-06-14 12:19:26.344,35.629999999999995,476.735,-24.814999999999998,-0.183732,0.28182,-1.667252,4
2024-06-14 12:19:26.349,26.845,478.905,-23.975,-0.131516,0.318176,-1.69336,4
2024-06-14 12:19:26.355,15.68,478.905,-23.66,-0.09345200000000001,0.371124,-1.763388,4
2024-06-14 12:19:26.359,5.3549999999999995,477.71500000000003,-23.555,-0.051484,0.39039999999999997,-1.82756,4
2024-06-14 12:19:26.364,-5.46,475.825,-23.835,-0.00048799999999999885,0.414068,-1.902224,4
2024-06-14 12:19:26.369,-15.365,471.87,-23.765,0.040992,0.417484,-1.966396,4
2024-06-14 12:19:26.374,-23.905,467.25,-22.365000000000002,0.06588,0.42212,-2.026176,4
2024-06-14 12:19:26.379,-31.045,464.83500000000004,-19.915,0.085888,0.41089600000000004,-2.031056,4
2024-06-14 12:19:26.383,-37.765,461.72,-16.52,0.10833599999999999,0.423584,-2.098644,4
2024-06-14 12:19:26.388,-44.66,458.395,-12.495000000000001,0.122976,0.44822799999999996,-2.1786760000000003,4
2024-06-14 12:19:26.393,-52.43,454.78999999999996,-8.26,0.13102799999999998,0.47482399999999997,-2.261636,4
2024-06-14 12:19:26.398,-61.144999999999996,451.46500000000003,-3.92,0.13224799999999998,0.517036,-2.35704,4
2024-06-14 12:19:26.403,-71.505,448.84,0.03500000000000003,0.152256,0.565104,-2.489288,4
2024-06-14 12:19:26.408,-82.25,447.615,4.305,0.22082,0.586332,-2.627148,4
2024-06-14 12:19:26.412,-89.46000000000001,447.37,9.975,0.342088,0.60024,-2.751588,4
2024-06-14 12:19:26.417,-92.015,447.615,17.605,0.476776,0.619516,-2.876028,4
2024-06-14 12:19:26.422,-91.41999999999999,447.23,25.935000000000002,0.634644,0.66246,-2.9941240000000002,4
2024-06-14 12:19:26.427,-89.88,445.865,35.035,0.8242320000000001,0.717604,-3.032432,4
2024-06-14 12:19:26.432,-91.91,442.47,43.89,0.944036,0.7534719999999999,-2.979484,4
2024-06-14 12:19:26.437,-121.87,436.94,50.260000000000005,1.0060120000000001,0.752008,-3.09392,4
2024-06-14 12:19:26.441,-168.035,430.885,54.285,1.244644,0.6849080000000001,-3.2073799999999997,4
2024-06-14 12:19:26.446,-203.7,420.45500000000004,58.415,1.4654639999999999,0.536312,-3.2959519999999998,4
2024-06-14 12:19:26.451,-223.54500000000002,409.57,63.91,1.6845759999999999,0.338916,-3.3532919999999997,4
2024-06-14 12:19:26.456,-227.92000000000002,398.72,71.75,1.945656,0.162504,-3.3801319999999997,4
2024-06-14 12:19:26.461,-216.965,386.71500000000003,81.51499999999999,2.2086879999999995,-0.009516,-3.3481680000000003,4
2024-06-14 12:19:26.466,-196.14,374.22,93.905,2.3728999999999996,0.015615999999999991,-3.244224,4
2024-06-14 12:19:26.470,-171.64,360.185,120.575,2.868464,-0.515084,-3.080012,4
2024-06-14 12:19:26.475,-148.015,344.26,110.67,3.1114879999999996,-0.223016,-2.91336,4
2024-06-14 12:19:26.480,-130.62,323.05,115.78,3.460896,-0.18007199999999998,-2.705228,4
2024-06-14 12:19:26.485,-122.045,297.815,115.78,3.802252,-0.09540399999999999,-2.5378439999999998,4
2024-06-14 12:19:26.490,-120.19,265.93,109.13,4.120428,-0.029768,-2.298968,4
2024-06-14 12:19:26.495,-122.92,233.17,95.095,4.3724799999999995,0.041724,-2.2611479999999995,4
2024-06-14 12:19:26.499,-130.89999999999998,195.265,74.2,4.707492,-0.074664,-2.0949839999999997,4
2024-06-14 12:19:26.504,-131.11,155.19,50.120000000000005,4.887808,-0.267912,-1.9749359999999998,4
2024-06-14 12:19:26.509,-124.425,118.37,26.25,5.082276,-0.527284,-1.863428,4
2024-06-14 12:19:26.514,-108.08000000000001,82.39,5.1450000000000005,5.209887999999999,-0.8051999999999999,-1.819752,4
2024-06-14 12:19:26.519,-83.265,47.144999999999996,-11.235,5.204032,-1.085312,-1.7738800000000001,4
2024-06-14 12:19:26.523,-51.17,12.915000000000001,-20.93,5.129612,-1.2871,-1.6948239999999999,4
2024-06-14 12:19:26.528,-12.32,-21.244999999999997,-24.955,4.953932,-1.394704,-1.658468,4
2024-06-14 12:19:26.533,27.615000000000002,-54.075,-25.585,4.712372,-1.347368,-1.6689599999999998,4
2024-06-14 12:19:26.538,63.385,-84.525,-24.605,4.4281120000000005,-1.167296,-1.714588,4
2024-06-14 12:19:26.543,92.155,-111.93,-23.835,4.105056,-0.923052,-1.75924,4
2024-06-14 12:19:26.548,149.625,-250.425,-54.809999999999995,4.830712,1.5950280000000001,-6.399875999999999,4
