time,gyroscope_x,gyroscope_y,gyroscope_z,accelerometer_x,accelerometer_y,accelerometer_z,phase
2024-06-14 11:53:14.273,-565.985,-248.675,-34.160000000000004,-1.610888,1.1707119999999998,-4.397855999999999,1
2024-06-14 11:53:14.278,-350.875,-42.105000000000004,-9.135,-3.9874479999999997,-0.21716000000000002,0.7498119999999999,1
2024-06-14 11:53:14.283,-415.1,-203.98000000000002,-8.54,-1.4952320000000001,-0.337696,-1.371524,1
2024-06-14 11:53:14.288,-396.20000000000005,-225.82,-47.495,-1.139236,0.12492799999999998,-1.0011320000000001,1
2024-06-14 11:53:14.293,-318.85,-271.67,-86.625,-0.025863999999999998,0.111752,-1.2239039999999999,1
2024-06-14 11:53:14.298,-196.49,-312.025,-122.185,0.546804,0.547292,-1.53964,1
2024-06-14 11:53:14.302,-44.52,-331.275,-157.77999999999997,0.645624,0.6222,-1.632604,1
2024-06-14 11:53:14.307,45.185,-324.695,-186.235,0.373808,0.479704,-1.914424,1
2024-06-14 11:53:14.312,107.52000000000001,-295.225,-192.85,0.183,0.5436319999999999,-2.09474,1
2024-06-14 11:53:14.317,112.97999999999999,-256.83000000000004,-175.035,0.13176,0.8757159999999999,-2.095472,1
2024-06-14 11:53:14.322,90.23,-231.595,-133.7,0.17153200000000002,1.1909640000000001,-1.898808,1
2024-06-14 11:53:14.327,76.125,-224.28,-80.605,0.16128399999999998,1.360544,-1.764364,1
2024-06-14 11:53:14.331,61.425,-229.565,-26.74,0.110288,1.229028,-1.640412,1
2024-06-14 11:53:14.336,56.735,-232.435,21.49,0.081984,0.915,-1.6225999999999998,1
2024-06-14 11:53:14.341,50.54,-219.8,56.455,0.020007999999999998,0.382836,-1.688968,1
2024-06-14 11:53:14.346,41.79,-185.70999999999998,66.045,0.045383999999999994,-0.229116,-1.694336,1
2024-06-14 11:53:14.351,38.114999999999995,-151.72500000000002,47.144999999999996,0.078568,-0.608292,-1.63846,1
2024-06-14 11:53:14.356,35.07,-120.82,13.860000000000001,0.054655999999999996,-0.728828,-1.7055599999999997,1
2024-06-14 11:53:14.360,23.275,-83.93,-19.04,0.13200399999999998,-0.520208,-1.49816,1
2024-06-14 11:53:14.365,13.405000000000001,-57.084999999999994,-39.13,0.133956,-0.214232,-1.5389080000000002,1
2024-06-14 11:53:14.370,-0.7000000000000002,-25.060000000000002,-39.585,0.10492,0.058803999999999995,-1.319308,1
2024-06-14 11:53:14.375,-3.85,-14.595,-26.145,0.076616,0.138836,-1.291248,1
2024-06-14 11:53:14.380,5.215,-3.08,-13.65,0.06514800000000001,0.110044,-1.192428,1
2024-06-14 11:53:14.384,5.25,-1.6099999999999999,-9.52,0.024399999999999998,0.051484,-1.1741279999999998,1
2024-06-14 11:53:14.389,7.63,-1.995,-10.115,-0.023423999999999997,-0.028791999999999998,-1.135088,2
2024-06-14 11:53:14.394,6.65,-6.4399999999999995,-11.9,-0.06831999999999999,-0.042456,-1.097512,2
2024-06-14 11:53:14.399,4.234999999999999,-7.175,-11.445,-0.070516,0.015371999999999999,-1.0687200000000001,2
2024-06-14 11:53:14.404,2.66,-6.825,-7.56,-0.052216,0.051483999999999995,-1.0543239999999998,2
2024-06-14 11:53:14.409,0.35,-9.24,-3.115,-0.042456,0.053436,-1.061156,2
2024-06-14 11:53:14.413,1.505,-11.620000000000001,-1.54,-0.077592,0.0549,-1.069696,2
2024-06-14 11:53:14.418,3.36,-16.73,-1.54,-0.10858,0.013664,-1.0604239999999998,2
2024-06-14 11:53:14.423,3.255,-21.77,-1.855,-0.112972,-0.01098,-1.04676,2
2024-06-14 11:53:14.428,1.96,-24.675,-1.47,-0.087596,-0.016836,-1.039196,2
2024-06-14 11:53:14.433,0.35,-25.340000000000003,-1.225,-0.08149599999999999,0.003172,-1.040904,2
2024-06-14 11:53:14.438,0.31500000000000006,-25.48,-0.45499999999999996,-0.07319999999999999,0.028304,-1.03456,2
2024-06-14 11:53:14.442,0.875,-24.78,-0.56,-0.077348,0.022204,-1.052616,2
2024-06-14 11:53:14.447,0.875,-25.515,-0.8400000000000001,-0.0854,0.017568,-1.0765280000000002,2
2024-06-14 11:53:14.452,0.875,-26.915,-1.12,-0.089304,0.01952,-1.0631080000000002,2
2024-06-14 11:53:14.457,1.05,-28.560000000000002,-1.05,-0.09516,0.017324,-1.057496,2
2024-06-14 11:53:14.462,0.8400000000000001,-29.924999999999997,-0.9450000000000001,-0.0793,0.0036599999999999996,-1.046516,2
2024-06-14 11:53:14.467,-0.07,-31.745,-0.735,-0.078568,-0.00366,-1.048712,2
2024-06-14 11:53:14.471,-1.015,-32.9,-0.665,-0.081984,0.0019519999999999997,-1.035536,2
2024-06-14 11:53:14.476,-1.33,-34.405,-0.455,-0.076128,0.01708,-1.029924,2
2024-06-14 11:53:14.481,-0.805,-35.735,-0.665,-0.07417599999999999,0.020496,-1.028948,2
2024-06-14 11:53:14.486,-0.14,-37.275000000000006,-1.0150000000000001,-0.07466400000000001,0.02318,-1.037488,2
2024-06-14 11:53:14.491,0.175,-39.165,-1.12,-0.07198,0.02074,-1.037,2
2024-06-14 11:53:14.496,0.10499999999999998,-41.825,-1.225,-0.078812,0.012444,-1.0462719999999999,2
2024-06-14 11:53:14.500,-0.525,-44.519999999999996,-1.225,-0.07417599999999999,0.0,-1.027728,2
2024-06-14 11:53:14.505,-1.4,-45.85,-0.98,-0.06734399999999999,-0.0053679999999999995,-1.032852,2
2024-06-14 11:53:14.510,-2.8,-46.480000000000004,-0.77,-0.05245999999999999,-0.007808000000000001,-1.0267519999999999,2
2024-06-14 11:53:14.515,-3.29,-46.2,-0.525,-0.041724,-0.0024400000000000003,-1.021628,2
2024-06-14 11:53:14.520,-5.04,-46.935,-0.35000000000000003,-0.03781999999999999,0.0024399999999999995,-1.0133320000000001,2
2024-06-14 11:53:14.524,-5.88,-44.695,-0.35000000000000003,-0.036356,-0.00024399999999999997,-1.020896,2
2024-06-14 11:53:14.529,-6.51,-42.56,-0.21,-0.027083999999999997,0.001708,-1.020896,2
2024-06-14 11:53:14.534,-6.72,-39.27,-0.14,-0.021471999999999998,0.00122,-1.0213839999999998,2
2024-06-14 11:53:14.539,-7.35,-38.114999999999995,-0.07,-0.020984000000000003,0.007564,-1.016016,2
2024-06-14 11:53:14.544,-7.595000000000001,-37.03,0.10500000000000001,-0.013176,0.011956,-1.02236,2
2024-06-14 11:53:14.549,-6.65,-34.825,0.35,-0.014152,0.01342,-1.023092,2
2024-06-14 11:53:14.553,-7.0,-34.335,0.525,-0.011224,0.020007999999999998,-1.027484,2
2024-06-14 11:53:14.558,-6.265000000000001,-29.4,0.42000000000000004,-0.010004,0.02074,-1.0313879999999997,2
2024-06-14 11:53:14.563,-6.300000000000001,-31.92,0.245,-0.008052,0.021716,-1.021628,2
2024-06-14 11:53:14.568,-6.51,-35.105,0.14,-0.010003999999999999,0.014884,-1.030412,2
2024-06-14 11:53:14.573,-6.615,-31.57,0.21,-0.006587999999999998,0.026595999999999998,-1.037732,2
2024-06-14 11:53:14.578,-6.825,-32.095,0.175,-0.0061,0.025132,-1.037,2
2024-06-14 11:53:14.582,-6.72,-31.36,0.105,-0.007319999999999999,0.024156,-1.03212,2
2024-06-14 11:53:14.587,-7.21,-31.43,-0.07,-0.0017079999999999999,0.02074,-1.041636,2
2024-06-14 11:53:14.592,-6.825,-31.955,0.13999999999999999,0.0017079999999999997,0.0036599999999999996,-1.042124,2
2024-06-14 11:53:14.597,-8.225,-32.480000000000004,0.42000000000000004,0.004636,0.009760000000000001,-1.041148,2
2024-06-14 11:53:14.602,-8.54,-33.985,0.9099999999999999,-0.000244,-0.0026839999999999998,-1.056276,2
2024-06-14 11:53:14.607,-9.344999999999999,-36.225,1.26,0.008296,-0.004148000000000001,-1.048468,2
2024-06-14 11:53:14.611,-10.045,-37.345,1.855,0.011956,0.0019519999999999995,-1.047004,2
2024-06-14 11:53:14.616,-9.8,-37.905,2.415,0.020739999999999998,-0.001464,-1.0438319999999999,2
2024-06-14 11:53:14.621,-8.925,-38.955,2.835,0.02684,0.027083999999999997,-1.0494439999999998,2
2024-06-14 11:53:14.626,-7.49,-39.620000000000005,2.52,0.02684,0.025863999999999998,-1.0460279999999997,2
2024-06-14 11:53:14.631,-7.105,-40.32,2.45,0.02928,0.03172,-1.05042,2
2024-06-14 11:53:14.636,-5.53,-40.46,2.66,0.032452,0.027816,-1.0460279999999997,2
2024-06-14 11:53:14.640,-4.095000000000001,-40.565,2.835,0.038064,0.025863999999999998,-1.0531039999999998,2
2024-06-14 11:53:14.645,-2.275,-39.795,3.01,0.038796,0.020496,-1.0492,2
2024-06-14 11:53:14.650,-0.98,-39.34,3.08,0.04148,0.032208,-1.063108,2
2024-06-14 11:53:14.655,0.21000000000000002,-39.97,3.255,0.03904,0.023424,-1.064572,2
2024-06-14 11:53:14.660,1.365,-40.739999999999995,3.43,0.03294,0.041724,-1.0860439999999998,2
2024-06-14 11:53:14.665,2.555,-41.545,3.675,0.03782,0.04367599999999999,-1.0972680000000001,2
2024-06-14 11:53:14.669,3.4299999999999997,-42.42,3.71,0.043188,0.036844,-1.1346,2
2024-06-14 11:53:14.674,2.24,-39.269999999999996,3.675,0.049776,0.02562,-1.096048,2
2024-06-14 11:53:14.679,2.52,-40.144999999999996,3.675,0.051484,0.026596,-1.100196,2
2024-06-14 11:53:14.684,3.36,-42.0,3.675,0.054168,0.020496,-1.1101999999999999,2
2024-06-14 11:53:14.689,3.6399999999999997,-47.95,3.955,0.056364,0.017324,-1.0796999999999999,2
2024-06-14 11:53:14.693,6.58,-51.415,4.585,0.05612,0.056852,-1.150948,2
2024-06-14 11:53:14.698,9.625,-55.3,4.655,0.058316,0.045872,-1.1309399999999998,2
2024-06-14 11:53:14.703,12.004999999999999,-56.98,5.25,0.059536,0.050508,-1.156316,2
2024-06-14 11:53:14.708,12.04,-56.98,6.51,0.05246,0.084668,-1.1619279999999998,2
2024-06-14 11:53:14.713,11.375,-55.125,11.2,0.046604,0.103456,-1.1070280000000001,2
2024-06-14 11:53:14.718,12.81,-62.16,7.84,0.151036,-0.144692,-1.05042,2
2024-06-14 11:53:14.722,11.095,-63.595,3.15,0.076616,0.04831200000000001,-1.1770559999999999,2
2024-06-14 11:53:14.727,11.725,-66.08000000000001,2.59,0.082228,0.05124,-1.171444,3
2024-06-14 11:53:14.732,12.11,-68.775,1.715,0.078324,0.046116000000000004,-1.202432,3
2024-06-14 11:53:14.737,12.809999999999999,-72.76499999999999,1.225,0.07319999999999999,0.041236,-1.237812,3
2024-06-14 11:53:14.742,12.18,-77.66499999999999,0.49,0.07344400000000001,0.0427,-1.254892,3
2024-06-14 11:53:14.747,12.46,-83.51,0.0,0.07198,0.031231999999999996,-1.2829519999999999,3
2024-06-14 11:53:14.751,13.405000000000001,-89.565,-0.385,0.08003199999999999,0.054167999999999994,-1.307108,3
2024-06-14 11:53:14.756,14.525,-95.9,-1.365,0.081984,0.078324,-1.3207719999999998,3
2024-06-14 11:53:14.761,17.5,-102.06,-2.52,0.08174000000000001,0.080276,-1.339804,3
2024-06-14 11:53:14.766,19.53,-109.47999999999999,-3.885,0.08588799999999999,0.095648,-1.3610319999999998,3
2024-06-14 11:53:14.771,19.46,-119.945,-5.04,0.065636,0.10955599999999999,-1.4220320000000002,3
2024-06-14 11:53:14.776,26.145,-126.105,-4.235,0.062464000000000006,-0.063196,-1.1858399999999998,3
2024-06-14 11:53:14.780,29.295,-133.875,-6.720000000000001,0.078812,0.038551999999999996,-1.653832,3
2024-06-14 11:53:14.785,31.955000000000002,-143.745,-6.475,0.061,0.06514800000000001,-1.4208119999999997,3
2024-06-14 11:53:14.790,30.73,-154.10500000000002,-7.279999999999999,0.072712,0.042455999999999994,-1.50548,3
2024-06-14 11:53:14.795,31.29,-165.2,-7.49,0.069296,0.006344,-1.5096279999999997,3
2024-06-14 11:53:14.800,30.310000000000002,-176.61,-7.385,0.06831999999999999,0.0026839999999999998,-1.549888,3
2024-06-14 11:53:14.805,28.945,-187.565,-7.175000000000001,0.06344,-0.015127999999999999,-1.5523279999999997,3
2024-06-14 11:53:14.809,28.14,-198.24,-6.6850000000000005,0.052216,-0.020739999999999998,-1.5684319999999998,3
2024-06-14 11:53:14.814,26.985,-211.575,-6.6850000000000005,0.049776,0.00854,-1.6150360000000001,3
2024-06-14 11:53:14.819,27.44,-224.63,-6.93,0.04758,0.070028,-1.822436,3
2024-06-14 11:53:14.824,21.875,-229.53,-8.190000000000001,0.010248,0.108092,-1.898076,3
2024-06-14 11:53:14.829,32.515,-261.24,-8.68,0.02928,-0.013663999999999999,-1.647732,3
2024-06-14 11:53:14.834,30.8,-281.78499999999997,-8.434999999999999,0.005856,-0.071492,-1.9234519999999997,3
2024-06-14 11:53:14.838,29.12,-300.78999999999996,-6.4399999999999995,-0.026108,-0.133956,-1.94346,3
2024-06-14 11:53:14.843,26.32,-322.03499999999997,-3.43,-0.053924,-0.210084,-1.951756,3
2024-06-14 11:53:14.848,23.975,-344.47,0.455,-0.068808,-0.249124,-2.0847359999999995,3
2024-06-14 11:53:14.853,22.259999999999998,-369.39,4.515000000000001,-0.060267999999999995,-0.21179199999999998,-2.1603760000000003,3
2024-06-14 11:53:14.858,21.98,-394.45000000000005,6.859999999999999,-0.05612,-0.0915,-2.366556,3
2024-06-14 11:53:14.862,19.075,-418.81,6.23,-0.02562,0.0,-2.567368,3
2024-06-14 11:53:14.867,12.530000000000001,-441.17499999999995,4.2,0.02928,-0.07564,-2.690344,3
2024-06-14 11:53:14.872,7.734999999999999,-460.91499999999996,3.815,0.16592,-0.14395999999999998,-2.814296,3
2024-06-14 11:53:14.877,4.164999999999999,-478.73,2.52,0.301828,-0.202764,-2.9667960000000004,3
2024-06-14 11:53:14.882,13.755,-487.795,1.9249999999999998,0.522648,-0.222772,-3.1029479999999996,3
2024-06-14 11:53:14.887,23.275,-490.03499999999997,1.995,0.6927159999999999,-0.10004,-3.133936,3
2024-06-14 11:53:14.891,20.755,-481.81,2.835,0.910852,0.144692,-3.3554880000000002,3
2024-06-14 11:53:14.896,8.190000000000001,-479.745,-3.71,0.859368,0.041968000000000005,-3.309616,3
2024-06-14 11:53:14.901,11.48,-469.525,0.63,0.7463960000000001,-0.12102399999999999,-3.256912,3
2024-06-14 11:53:14.906,15.785,-452.235,7.49,0.581208,-0.08662,-3.3044919999999998,3
2024-06-14 11:53:14.911,6.0200000000000005,-448.385,10.325,0.17934,0.012688,-3.273992,3
2024-06-14 11:53:14.916,-6.02,-440.615,10.5,-0.19154000000000002,-0.040991999999999994,-3.0866,3
2024-06-14 11:53:14.920,-16.625,-432.32000000000005,13.265,-0.7390760000000001,-0.1891,-2.913116,3
2024-06-14 11:53:14.925,-28.28,-420.245,16.345,-1.0848239999999998,-0.2684,-2.682048,4
2024-06-14 11:53:14.930,-35.14,-406.595,21.490000000000002,-1.286856,-0.388448,-2.460984,4
2024-06-14 11:53:14.935,-33.215,-396.34000000000003,27.79,-1.574044,-0.531676,-2.2433359999999998,4
2024-06-14 11:53:14.940,-21.91,-385.035,38.15,-1.772416,-0.700036,-1.9171079999999998,4
2024-06-14 11:53:14.945,-5.81,-376.03999999999996,54.495000000000005,-1.98982,-0.8723000000000001,-1.512068,4
2024-06-14 11:53:14.949,10.815,-372.96,78.68,-2.044964,-0.912072,-1.117764,4
2024-06-14 11:53:14.954,29.785000000000004,-386.575,108.85,-1.403244,-0.9940559999999999,-0.5687639999999999,4
2024-06-14 11:53:14.959,49.805,-405.125,132.65,-0.691252,-1.141432,-0.645624,4
2024-06-14 11:53:14.964,91.07,-325.15,165.62,-0.9135360000000001,-0.853268,-1.569164,4
2024-06-14 11:53:14.969,134.085,-212.59,197.05,-1.6530999999999998,-0.565836,-1.749236,4
2024-06-14 11:53:14.974,145.39,-107.065,209.265,-2.07888,-0.35136,-0.968436,4
2024-06-14 11:53:14.978,125.61500000000001,-4.690000000000001,189.56,-2.1647679999999996,0.00805199999999999,-0.669048,4
2024-06-14 11:53:14.983,85.53999999999999,104.055,177.66,-2.165744,0.73078,-0.482144,4
2024-06-14 11:53:14.988,36.75,178.07999999999998,157.64,-1.727764,0.5175240000000001,-1.121424,4
2024-06-14 11:53:14.993,-13.125,235.97,131.39,-1.458876,0.47775199999999995,-0.961848,4
2024-06-14 11:53:14.998,-58.519999999999996,276.36,106.435,-1.3078400000000001,0.394548,-0.942816,4
2024-06-14 11:53:15.002,-92.05000000000001,297.22,86.765,-1.195112,0.28181999999999996,-0.910852,4
2024-06-14 11:53:15.007,-115.115,310.03,72.485,-1.0796999999999999,0.13517600000000002,-0.810812,4
2024-06-14 11:53:15.012,-127.36500000000001,315.03499999999997,62.405,-0.97966,-0.017079999999999998,-0.7561559999999999,4
2024-06-14 11:53:15.017,-129.04500000000002,315.07,56.035,-0.894504,-0.140788,-0.69174,4
2024-06-14 11:53:15.022,-119.595,311.22,53.235,-0.831552,-0.24644,-0.631472,4
2024-06-14 11:53:15.027,-102.06,304.64,53.165,-0.7759199999999999,-0.34184400000000004,-0.5909679999999999,4
2024-06-14 11:53:15.031,-79.065,297.01,54.879999999999995,-0.704428,-0.423828,-0.554612,4
2024-06-14 11:53:15.036,-54.39,289.695,56.489999999999995,-0.638548,-0.484584,-0.5321640000000001,4
2024-06-14 11:53:15.041,-28.630000000000003,282.87,59.64,-0.5977999999999999,-0.49507599999999996,-0.5302119999999999,4
2024-06-14 11:53:15.046,-3.7800000000000002,277.76,62.72,-0.560468,-0.49092800000000003,-0.5570519999999999,4
2024-06-14 11:53:15.051,18.200000000000003,273.84000000000003,65.31,-0.543144,-0.42602399999999996,-0.5738880000000001,4
2024-06-14 11:53:15.056,35.455,271.32000000000005,66.675,-0.527772,-0.348188,-0.6017039999999999,4
2024-06-14 11:53:15.060,46.97,270.97,66.15,-0.516792,-0.258884,-0.6251279999999999,4
2024-06-14 11:53:15.065,52.745,272.895,63.56,-0.5106919999999999,-0.161528,-0.650504,4
2024-06-14 11:53:15.070,53.375,277.235,58.870000000000005,-0.5036160000000001,-0.08247199999999999,-0.674172,4
2024-06-14 11:53:15.075,50.015,283.22,52.254999999999995,-0.48678,-0.019032,-0.71492,4
2024-06-14 11:53:15.080,44.415000000000006,290.57000000000005,44.519999999999996,-0.475312,0.019276,-0.7503,4
2024-06-14 11:53:15.085,37.974999999999994,298.725,36.295,-0.458476,0.037576,-0.791048,4
2024-06-14 11:53:15.089,32.760000000000005,307.055,27.965,-0.431636,0.029036,-0.8386279999999999,4
2024-06-14 11:53:15.094,29.54,315.315,20.23,-0.411872,0.003172,-0.888892,4
2024-06-14 11:53:15.099,28.77,323.155,13.335,-0.400404,-0.024156,-0.930616,4
2024-06-14 11:53:15.104,30.835,330.92499999999995,7.630000000000001,-0.38917999999999997,-0.055632,-0.976244,4
2024-06-14 11:53:15.109,34.650000000000006,338.52,2.835,-0.382592,-0.077348,-1.022116,4
2024-06-14 11:53:15.114,39.795,345.975,-1.225,-0.377468,-0.08710799999999999,-1.073356,4
2024-06-14 11:53:15.118,45.57,353.04499999999996,-4.55,-0.37088,-0.09345200000000001,-1.13338,4
2024-06-14 11:53:15.123,51.03,359.83500000000004,-7.665,-0.352092,-0.085644,-1.192428,4
2024-06-14 11:53:15.128,55.754999999999995,366.03,-10.43,-0.345016,-0.077592,-1.25416,4
2024-06-14 11:53:15.133,59.5,371.21,-13.16,-0.330132,-0.067588,-1.3256519999999998,4
2024-06-14 11:53:15.138,62.16,374.71000000000004,-15.75,-0.31232,-0.054168,-1.395436,4
2024-06-14 11:53:15.143,64.57499999999999,377.055,-18.060000000000002,-0.29890000000000005,-0.053192,-1.4759559999999998,4
2024-06-14 11:53:15.147,66.71000000000001,377.685,-19.775,-0.280844,-0.04514,-1.542568,4
2024-06-14 11:53:15.152,69.02000000000001,377.15999999999997,-21.07,-0.254492,-0.035379999999999995,-1.6169879999999999,4
2024-06-14 11:53:15.157,71.575,375.16499999999996,-21.735,-0.23082399999999997,-0.020252,-1.6933599999999998,4
2024-06-14 11:53:15.162,74.2,372.33000000000004,-20.895000000000003,-0.207156,0.020984,-1.752408,4
2024-06-14 11:53:15.167,76.72,368.725,-20.125,-0.134688,-0.05612,-1.8666,4
2024-06-14 11:53:15.171,78.365,365.26,-23.275,-0.11541199999999999,0.021471999999999998,-1.918328,4
2024-06-14 11:53:15.176,80.88499999999999,358.75,-23.345,-0.05831600000000001,0.045384,-2.004948,4
2024-06-14 11:53:15.181,82.11,349.96500000000003,-23.87,0.0019519999999999989,0.05953599999999999,-2.1159679999999996,4
2024-06-14 11:53:15.186,82.565,339.01,-24.535,0.06588,0.074908,-2.2335760000000002,4
2024-06-14 11:53:15.191,82.215,326.795,-25.34,0.12029199999999998,0.08418,-2.35826,4
2024-06-14 11:53:15.196,81.655,314.37,-26.355,0.174948,0.106384,-2.518568,4
2024-06-14 11:53:15.200,80.22,302.225,-28.0,0.22472399999999998,0.134932,-2.6793639999999996,4
2024-06-14 11:53:15.205,76.37,291.27,-30.415,0.283528,0.177144,-2.844796,4
2024-06-14 11:53:15.210,69.125,282.765,-34.614999999999995,0.36282799999999993,0.238388,-2.99266,4
2024-06-14 11:53:15.215,58.065,276.42999999999995,-41.230000000000004,0.443592,0.28791999999999995,-3.0956280000000005,4
2024-06-14 11:53:15.220,45.185,273.525,-49.735,0.527528,0.295972,-3.2395880000000004,4
2024-06-14 11:53:15.225,32.620000000000005,275.485,-59.64,0.6548959999999999,0.304024,-3.3201080000000003,4
2024-06-14 11:53:15.229,21.14,283.01,-70.63,0.7868999999999999,0.2623,-3.3545119999999997,4
2024-06-14 11:53:15.234,11.83,297.95500000000004,-81.47999999999999,0.9542839999999999,0.179828,-3.3642719999999997,4
2024-06-14 11:53:15.239,7.14,319.54999999999995,-90.755,1.127036,0.08906,-3.39892,4
2024-06-14 11:53:15.244,6.895,345.8,-98.10499999999999,1.3171119999999998,-0.028547999999999994,-3.399896,4
2024-06-14 11:53:15.249,8.504999999999999,373.765,-103.25,1.515728,-0.19739599999999996,-3.35012,4
2024-06-14 11:53:15.254,10.43,399.735,-106.015,1.722884,-0.36966,-3.252032,4
2024-06-14 11:53:15.258,11.34,420.41999999999996,-105.315,1.9646879999999998,-0.5892599999999999,-3.172488,4
2024-06-14 11:53:15.263,15.015,433.3,-99.435,2.247972,-0.851804,-3.043412,4
2024-06-14 11:53:15.268,27.37,435.92499999999995,-86.765,2.578592,-1.0765280000000002,-2.894084,4
2024-06-14 11:53:15.273,53.375,427.63,-67.935,2.8716359999999996,-1.2165839999999999,-2.7293839999999996,4
2024-06-14 11:53:15.278,91.66499999999999,408.555,-44.519999999999996,3.108804,-1.2661159999999998,-2.488556,4
2024-06-14 11:53:15.283,139.755,380.24,-18.41,3.318644,-1.1726640000000002,-2.161352,4
2024-06-14 11:53:15.287,194.77499999999998,346.43,8.61,3.570208,-1.006256,-1.899296,4
2024-06-14 11:53:15.292,248.57,309.68,35.245,3.87472,-0.742736,-1.790228,4
2024-06-14 11:53:15.297,292.17999999999995,270.58500000000004,60.2,4.210464,-0.397476,-1.782176,4
2024-06-14 11:53:15.302,318.36,231.14,82.03999999999999,4.565972,0.029524,-1.738012,4
2024-06-14 11:53:15.307,324.17,191.905,100.1,4.795820000000001,0.545584,-1.6023479999999999,4
2024-06-14 11:53:15.311,307.51,154.525,113.25999999999999,4.910256,1.12362,-1.40544,4
2024-06-14 11:53:15.316,261.87,117.88,118.16,4.923188,1.6509040000000001,-1.2031640000000001,4
2024-06-14 11:53:15.321,185.745,80.32499999999999,114.03,4.831932,2.029592,-1.073356,4
2024-06-14 11:53:15.326,85.61,40.74,103.075,4.623068,2.188192,-1.029436,4
2024-06-14 11:53:15.331,-21.385,-0.0699999999999994,89.425,4.345884,2.053016,-1.04676,4
2024-06-14 11:53:15.336,-115.78,-40.495,77.245,4.041615999999999,1.675792,-1.1497279999999999,4
2024-06-14 11:53:15.340,-184.66,-78.575,69.16,3.6782999999999997,1.1848640000000001,-1.3017400000000001,4
2024-06-14 11:53:15.345,-461.15999999999997,-638.9949999999999,30.975,5.581011999999999,1.162416,-6.632408,4
