time,gyroscope_x,gyroscope_y,gyroscope_z,accelerometer_x,accelerometer_y,accelerometer_z,phase
2024-06-14 11:53:15.348,-448.03499999999997,-630.7349999999999,25.795,4.381508,0.741516,-5.036892,1
2024-06-14 11:53:15.353,-419.475,-168.035,5.74,-2.806244,-0.619516,2.872368,1
2024-06-14 11:53:15.357,-427.735,-299.635,57.54,-0.05660799999999999,-0.34647999999999995,-0.26596,1
2024-06-14 11:53:15.362,-438.55,-297.01,26.46,-1.719468,0.433588,-1.468636,1
2024-06-14 11:53:15.367,-379.645,-334.21500000000003,-2.625,-0.8793759999999999,0.32378799999999996,-1.5289039999999998,1
2024-06-14 11:53:15.372,-264.53,-351.05,-29.47,0.015127999999999999,0.552904,-1.799744,1
2024-06-14 11:53:15.377,-154.455,-332.885,-62.755,0.5504640000000001,0.50142,-1.770708,1
2024-06-14 11:53:15.383,-39.375,-308.28,-95.13,0.9435479999999999,0.38844799999999996,-2.115236,1
2024-06-14 11:53:15.387,44.73,-286.72,-116.445,0.5921879999999999,0.302072,-2.2216199999999997,1
2024-06-14 11:53:15.392,71.155,-267.645,-122.11500000000001,0.211304,0.37673599999999996,-2.297992,1
2024-06-14 11:53:15.397,80.22,-253.75,-110.18,-0.038308,0.615612,-2.1825799999999997,1
2024-06-14 11:53:15.402,69.125,-240.8,-81.06,-0.042212,0.99674,-2.04106,1
2024-06-14 11:53:15.407,60.06,-229.075,-41.370000000000005,0.11346,1.043832,-1.87514,1
2024-06-14 11:53:15.411,56.595,-216.37,-0.3849999999999998,0.194712,0.773968,-1.827072,1
2024-06-14 11:53:15.416,44.415,-188.37,34.16,0.166408,0.448472,-1.692628,1
2024-06-14 11:53:15.421,34.93,-161.7,49.980000000000004,0.089304,-0.098576,-1.6650559999999999,1
2024-06-14 11:53:15.426,26.53,-128.695,41.825,0.051484,-0.44798399999999994,-1.5925880000000001,1
2024-06-14 11:53:15.431,18.060000000000002,-100.59,15.82,0.066856,-0.562908,-1.437892,1
2024-06-14 11:53:15.436,15.68,-73.92,-12.32,0.083448,-0.461648,-1.378844,1
2024-06-14 11:53:15.440,4.76,-39.935,-32.9,0.12444000000000001,-0.277428,-1.3781119999999998,1
2024-06-14 11:53:15.445,-4.13,-19.075000000000003,-35.875,0.063684,0.0017079999999999994,-1.231224,1
2024-06-14 11:53:15.450,-9.485,-14.489999999999998,-27.475,0.067832,0.06344,-1.158756,1
2024-06-14 11:53:15.455,-9.765,-2.5549999999999997,-18.83,0.065636,0.140544,-1.179984,1
2024-06-14 11:53:15.460,2.38,9.065,-11.2,0.022204,0.07075999999999999,-1.113128,2
2024-06-14 11:53:15.464,4.234999999999999,10.64,-9.66,-0.03416,0.0007319999999999991,-1.089704,2
2024-06-14 11:53:15.469,3.955,9.8,-9.870000000000001,-0.071004,-0.039772,-1.0821399999999999,2
2024-06-14 11:53:15.474,2.7649999999999997,9.205,-9.66,-0.06490399999999999,-0.005611999999999999,-1.073356,2
2024-06-14 11:53:15.479,0.35000000000000003,9.45,-6.965,-0.04636,0.023424,-1.0667680000000002,2
2024-06-14 11:53:15.484,-1.33,9.344999999999999,-3.955,-0.041968000000000005,0.036356,-1.0704280000000002,2
2024-06-14 11:53:15.489,-1.12,7.98,-2.205,-0.072468,0.045871999999999996,-1.075796,2
2024-06-14 11:53:15.493,0.13999999999999999,4.9350000000000005,-1.47,-0.09516,0.024888,-1.069696,2
2024-06-14 11:53:15.498,0.84,1.995,-1.7149999999999999,-0.099552,-0.0012199999999999997,-1.05408,2
2024-06-14 11:53:15.503,0.42,-0.27999999999999997,-1.785,-0.089304,-0.0039040000000000004,-1.0555439999999998,2
2024-06-14 11:53:15.508,0.035,-2.835,-1.47,-0.090036,0.013664,-1.063596,2
2024-06-14 11:53:15.513,0.28,-5.495,-1.155,-0.096136,0.01708,-1.05042,2
2024-06-14 11:53:15.517,0.385,-7.140000000000001,-1.0150000000000001,-0.09759999999999999,0.010248,-1.046272,2
2024-06-14 11:53:15.522,0.385,-9.065,-0.875,-0.099796,0.0075639999999999995,-1.048468,2
2024-06-14 11:53:15.527,0.245,-11.620000000000001,-0.875,-0.10345599999999999,0.006344,-1.05042,2
2024-06-14 11:53:15.532,-0.10500000000000001,-13.825,-0.77,-0.099552,-0.005855999999999999,-1.047492,2
2024-06-14 11:53:15.537,-0.56,-16.275,-0.595,-0.101748,0.009516,-1.042124,2
2024-06-14 11:53:15.542,-0.49,-18.62,-0.525,-0.10003999999999999,0.008052,-1.038952,2
2024-06-14 11:53:15.546,-0.245,-20.475,-0.56,-0.098576,0.004148,-1.0350479999999997,2
2024-06-14 11:53:15.551,0.315,-21.91,-0.63,-0.09394,0.010248,-1.031876,2
2024-06-14 11:53:15.556,0.56,-22.645,-0.63,-0.094428,0.0053679999999999995,-1.031876,2
2024-06-14 11:53:15.561,0.7,-22.54,-0.42,-0.089548,0.001952,-1.030656,2
2024-06-14 11:53:15.566,0.77,-21.945,-0.56,-0.09394,0.0060999999999999995,-1.021628,2
2024-06-14 11:53:15.570,0.8049999999999999,-21.7,-0.665,-0.09101200000000001,0.00488,-1.022848,2
2024-06-14 11:53:15.575,0.9450000000000001,-22.12,-0.77,-0.094916,0.006588,-1.0218720000000001,2
2024-06-14 11:53:15.580,1.05,-22.75,-0.875,-0.092476,0.005856,-1.01992,2
2024-06-14 11:53:15.585,1.715,-22.854999999999997,-0.8049999999999999,-0.088328,0.007076000000000001,-1.0213839999999998,2
2024-06-14 11:53:15.590,3.6399999999999997,-22.4,-0.525,-0.0854,0.012199999999999999,-1.0152839999999999,2
2024-06-14 11:53:15.595,3.4299999999999997,-20.895000000000003,-0.7,-0.08979200000000001,0.008539999999999999,-1.012112,2
2024-06-14 11:53:15.599,3.955,-23.555,-0.8049999999999999,-0.08296,0.007808,-1.0165039999999999,2
2024-06-14 11:53:15.604,4.0600000000000005,-23.695,-0.84,-0.08735200000000001,0.005856,-1.012356,2
2024-06-14 11:53:15.609,3.605,-24.045,-0.735,-0.08784,-0.00366,-1.0155279999999998,2
2024-06-14 11:53:15.614,4.305,-20.79,-0.665,-0.08588799999999999,-0.0053679999999999995,-1.0072320000000001,2
2024-06-14 11:53:15.619,1.54,-24.955,-0.63,-0.08271599999999998,-0.011467999999999999,-1.013576,2
2024-06-14 11:53:15.623,-0.07,-26.775,-0.315,-0.077104,-0.013663999999999999,-1.0130879999999998,2
2024-06-14 11:53:15.628,-1.26,-28.245,-0.13999999999999999,-0.06880800000000001,-0.016592,-1.014308,2
2024-06-14 11:53:15.633,-3.605,-28.245,0.105,-0.06344,-0.011712,-1.0140639999999999,2
2024-06-14 11:53:15.638,-4.4799999999999995,-28.7,0.03500000000000002,-0.06344,-0.010248,-1.0145520000000001,2
2024-06-14 11:53:15.643,-6.475,-30.66,0.49,-0.057095999999999994,-0.008052,-1.012356,2
2024-06-14 11:53:15.648,-7.664999999999999,-29.96,0.77,-0.05831599999999999,-0.008296,-1.011868,2
2024-06-14 11:53:15.652,-8.295,-32.515,0.8049999999999999,-0.050508,-0.0026839999999999998,-1.0240679999999998,2
2024-06-14 11:53:15.657,-9.065,-30.38,0.77,-0.05246,0.009272,-1.0250439999999998,2
2024-06-14 11:53:15.662,-9.1,-29.68,0.77,-0.046848,0.011467999999999999,-1.024068,2
2024-06-14 11:53:15.667,-8.68,-29.82,0.875,-0.049776,0.013420000000000001,-1.0287039999999998,2
2024-06-14 11:53:15.672,-8.05,-29.855,0.875,-0.044896000000000005,0.01952,-1.04066,2
2024-06-14 11:53:15.676,-6.125,-30.1,0.735,-0.039772,0.02318,-1.0348039999999998,2
2024-06-14 11:53:15.681,-5.494999999999999,-30.835,0.45499999999999996,-0.033184000000000005,0.024399999999999998,-1.036268,2
2024-06-14 11:53:15.686,-4.76,-31.115000000000002,0.27999999999999997,-0.034159999999999996,0.02074,-1.040416,2
2024-06-14 11:53:15.691,-4.06,-31.57,0.245,-0.029768,0.01586,-1.032852,2
2024-06-14 11:53:15.696,-3.8499999999999996,-32.06,0.245,-0.026352,0.011712,-1.031876,2
2024-06-14 11:53:15.701,-3.955,-34.125,0.595,-0.02074,0.010491999999999998,-1.036756,2
2024-06-14 11:53:15.705,-3.29,-31.22,0.8400000000000001,-0.020007999999999998,0.0061,-1.0348039999999998,2
2024-06-14 11:53:15.710,-4.305,-34.055,1.12,-0.021471999999999998,0.0039040000000000004,-1.031632,2
2024-06-14 11:53:15.715,-5.109999999999999,-31.185000000000002,1.295,-0.02562,0.00048799999999999994,-1.0323639999999998,2
2024-06-14 11:53:15.720,-5.775,-31.71,1.33,-0.020252,-0.0061,-1.0401719999999999,2
2024-06-14 11:53:15.725,-7.35,-32.41,1.54,-0.019276,-0.0019520000000000002,-1.0445639999999998,2
2024-06-14 11:53:15.729,-8.295,-31.465,1.54,-0.011467999999999999,0.00488,-1.046516,2
2024-06-14 11:53:15.734,-9.24,-33.46,1.855,-0.007808000000000001,0.008539999999999999,-1.043588,2
2024-06-14 11:53:15.739,-10.675,-34.05500000000001,1.995,-0.012444,0.002196,-1.0545680000000002,2
2024-06-14 11:53:15.744,-12.39,-35.665,1.96,-0.012931999999999999,0.010492,-1.061156,2
2024-06-14 11:53:15.749,-13.125,-37.135,2.065,-0.010735999999999999,0.0,-1.062864,2
2024-06-14 11:53:15.754,-14.315,-39.375,2.45,-0.00122,-0.010735999999999999,-1.0762839999999998,2
2024-06-14 11:53:15.758,-15.75,-44.24,2.835,0.00024400000000000008,0.0075639999999999995,-1.07848,2
2024-06-14 11:53:15.763,-16.415,-45.71,2.94,0.00976,0.009271999999999999,-1.082872,2
2024-06-14 11:53:15.768,-16.939999999999998,-48.474999999999994,3.29,0.01586,0.0046359999999999995,-1.070184,2
2024-06-14 11:53:15.773,-16.869999999999997,-48.545,3.92,0.021716,-0.0034159999999999998,-1.085068,2
2024-06-14 11:53:15.778,-15.295,-52.465,4.234999999999999,0.017812,-0.001952,-1.097756,2
2024-06-14 11:53:15.783,-14.350000000000001,-54.144999999999996,4.234999999999999,0.018056,0.040992,-1.111908,2
2024-06-14 11:53:15.787,-10.29,-57.47,4.48,0.01586,0.010491999999999996,-1.1480199999999998,2
2024-06-14 11:53:15.792,-5.285,-57.400000000000006,4.83,0.01708,0.05978,-1.162172,2
2024-06-14 11:53:15.797,-1.085,-59.815,5.285,0.017324,0.024156,-1.164368,2
2024-06-14 11:53:15.802,-0.2799999999999999,-61.81,5.915,0.02318,0.040015999999999996,-1.212192,2
2024-06-14 11:53:15.807,-3.465,-55.16,5.18,0.023912,0.04148,-1.147776,2
2024-06-14 11:53:15.811,-2.9050000000000002,-67.86500000000001,4.6899999999999995,0.021716,0.032451999999999995,-1.138748,2
2024-06-14 11:53:15.816,4.655,-74.095,5.6,0.017812,0.128832,-1.2807559999999998,2
2024-06-14 11:53:15.821,8.05,-69.755,4.76,0.015127999999999999,0.14371599999999998,-1.3366320000000003,2
2024-06-14 11:53:15.826,9.345,-68.985,4.445,0.024888,0.11809599999999999,-1.239032,2
2024-06-14 11:53:15.831,10.045,-76.405,1.645,0.022447999999999996,0.111996,-1.3415119999999998,2
2024-06-14 11:53:15.836,10.92,-80.5,0.034999999999999976,0.027572,0.100772,-1.3115,2
2024-06-14 11:53:15.840,13.405000000000001,-87.57,-1.61,0.035868000000000004,0.086376,-1.347612,2
2024-06-14 11:53:15.845,15.785,-95.75999999999999,-3.6050000000000004,0.024888,0.099552,-1.387872,2
2024-06-14 11:53:15.850,18.445,-103.66999999999999,-5.18,0.024644,0.098576,-1.4083679999999998,2
2024-06-14 11:53:15.855,21.735,-111.72,-6.369999999999999,0.02074,0.098332,-1.408612,2
2024-06-14 11:53:15.860,21.315,-120.75,-7.7,0.024888,0.0854,-1.432036,2
2024-06-14 11:53:15.864,19.95,-130.095,-8.33,0.023667999999999998,0.027328,-1.4396,2
2024-06-14 11:53:15.869,14.489999999999998,-144.13,-6.93,-0.024399999999999998,-0.022936000000000005,-1.453996,2
2024-06-14 11:53:15.874,28.455,-143.92000000000002,-7.3149999999999995,0.017324,0.036112,-1.2392759999999998,3
2024-06-14 11:53:15.879,18.865000000000002,-162.995,-9.030000000000001,-0.0036600000000000005,0.039284,-1.6772559999999999,3
2024-06-14 11:53:15.884,18.935,-176.64499999999998,-8.645,-0.011467999999999999,-0.0034159999999999998,-1.6167439999999997,3
2024-06-14 11:53:15.889,16.205000000000002,-190.435,-8.47,-0.014884,-0.006344000000000001,-1.705804,3
2024-06-14 11:53:15.893,10.29,-205.17000000000002,-8.75,-0.018056000000000003,-0.04514,-1.753384,3
2024-06-14 11:53:15.898,5.215,-221.655,-7.56,-0.02928,-0.130052,-1.752896,3
2024-06-14 11:53:15.903,0.665,-238.98000000000002,-4.83,-0.029523999999999998,-0.16226,-1.7994999999999999,3
2024-06-14 11:53:15.908,-7.35,-256.795,-2.135,-0.047824,-0.199592,-1.844152,3
2024-06-14 11:53:15.913,-13.65,-274.505,1.54,-0.06709999999999999,-0.22447999999999999,-1.887584,3
2024-06-14 11:53:15.917,-19.775,-292.845,5.145,-0.07539599999999999,-0.190076,-1.939312,3
2024-06-14 11:53:15.922,-25.34,-313.03999999999996,8.12,-0.108336,-0.1891,-2.0132440000000003,3
2024-06-14 11:53:15.927,-29.365000000000002,-334.075,10.989999999999998,-0.125904,-0.159088,-2.1293879999999996,3
2024-06-14 11:53:15.931,-35.63,-355.845,13.3,-0.144692,-0.19690800000000003,-2.2384560000000002,3
2024-06-14 11:53:15.936,-40.04,-380.695,16.275,-0.15616000000000002,-0.27767200000000003,-2.347524,3
2024-06-14 11:53:15.941,-45.92,-405.895,20.65,-0.15982,-0.315492,-2.449272,3
2024-06-14 11:53:15.945,-60.97,-429.73,24.009999999999998,-0.11223999999999999,-0.362828,-2.5490679999999997,3
2024-06-14 11:53:15.950,-77.28,-449.96000000000004,27.475,-0.06953999999999999,-0.48677999999999993,-2.66448,3
2024-06-14 11:53:15.955,-88.06,-467.075,32.935,0.041235999999999995,-0.472628,-2.769644,3
2024-06-14 11:53:15.960,-96.39,-479.22,38.36,0.31744399999999995,-0.24570799999999998,-2.80844,3
2024-06-14 11:53:15.965,-105.56,-481.775,37.065,0.60146,-0.16616399999999998,-3.0687879999999996,3
2024-06-14 11:53:15.970,-99.155,-476.525,34.37,0.9213439999999999,-0.254248,-3.366956,3
2024-06-14 11:53:15.974,-85.05,-474.32,33.11,0.74298,-0.360144,-3.1693160000000002,3
2024-06-14 11:53:15.979,-65.275,-454.78999999999996,39.41,0.74908,-0.256688,-3.317668,3
2024-06-14 11:53:15.984,-66.5,-440.86,42.105000000000004,0.523868,-0.03147599999999999,-3.313276,3
2024-06-14 11:53:15.989,-82.03999999999999,-430.605,41.019999999999996,0.138348,0.036843999999999995,-3.029504,3
2024-06-14 11:53:15.994,-98.84,-414.925,37.765,-0.24180400000000002,-0.090036,-2.8140519999999998,3
2024-06-14 11:53:15.999,-107.73,-402.395,38.64,-0.601216,-0.288652,-2.6000639999999997,3
2024-06-14 11:53:16.003,-113.36500000000001,-390.985,39.269999999999996,-0.963556,-0.446276,-2.336788,3
2024-06-14 11:53:16.008,-108.22,-378.35,43.015,-1.152168,-0.6031679999999999,-2.040572,3
2024-06-14 11:53:16.013,-95.515,-368.655,48.894999999999996,-1.384212,-0.7595719999999999,-1.7441119999999999,3
2024-06-14 11:53:16.018,-77.38499999999999,-361.40999999999997,59.01,-1.484252,-0.820816,-1.4727839999999999,3
2024-06-14 11:53:16.023,-53.585,-359.45,73.43,-1.587952,-0.9013359999999999,-1.2239039999999999,3
2024-06-14 11:53:16.027,-28.42,-370.615,93.03,-1.52256,-0.9274439999999999,-0.97356,3
2024-06-14 11:53:16.032,-0.7349999999999999,-393.26,112.17500000000001,-0.900604,-1.0328519999999999,-0.6636799999999999,3
2024-06-14 11:53:16.037,34.65,-397.81,131.6,-0.516304,-1.0614,-1.094584,3
2024-06-14 11:53:16.042,80.185,-324.065,156.51999999999998,-0.8879159999999999,-0.641232,-1.74094,3
2024-06-14 11:53:16.047,106.995,-230.685,170.975,-1.5145080000000002,-0.381372,-1.4486279999999998,3
2024-06-14 11:53:16.052,97.78999999999999,-124.17999999999999,164.885,-1.794864,-0.22326,-1.0553,3
2024-06-14 11:53:16.056,70.28,-30.415,136.185,-1.880508,0.379176,-0.006587999999999997,3
2024-06-14 11:53:16.061,41.965,37.555,120.365,-1.663592,0.361364,-0.974536,3
2024-06-14 11:53:16.066,1.3650000000000002,112.77000000000001,89.915,-1.4335,0.34940799999999994,-0.8435079999999999,3
2024-06-14 11:53:16.071,-30.275,163.485,59.325,-1.2768519999999999,0.25302800000000003,-0.8635160000000001,3
2024-06-14 11:53:16.076,-49.105000000000004,191.345,32.795,-1.166808,0.084668,-0.766648,4
2024-06-14 11:53:16.081,-56.385000000000005,210.91,12.425,-1.066768,-0.09418399999999999,-0.6670959999999999,4
2024-06-14 11:53:16.085,-50.715,219.52,-1.645,-0.967704,-0.252784,-0.631228,4
2024-06-14 11:53:16.090,-35.105,221.305,-10.395,-0.874252,-0.38308,-0.56242,4
2024-06-14 11:53:16.095,-14.21,220.185,-16.975,-0.7966599999999999,-0.493612,-0.4819,4
2024-06-14 11:53:16.100,9.555,215.005,-21.490000000000002,-0.7473719999999999,-0.5131319999999999,-0.4453,4
2024-06-14 11:53:16.105,32.83,208.81,-22.995,-0.6897880000000001,-0.49849199999999994,-0.403332,4
2024-06-14 11:53:16.110,53.41,202.54500000000002,-23.66,-0.6368400000000001,-0.457988,-0.38527599999999995,4
2024-06-14 11:53:16.114,69.37,196.525,-23.765,-0.598776,-0.400404,-0.384056,4
2024-06-14 11:53:16.119,79.765,191.97500000000002,-24.045,-0.5504640000000001,-0.32208,-0.38527599999999995,4
2024-06-14 11:53:16.124,84.45500000000001,188.89499999999998,-24.92,-0.52704,-0.24204799999999999,-0.398208,4
2024-06-14 11:53:16.129,84.66499999999999,187.495,-26.39,-0.51606,-0.16616399999999998,-0.418948,4
2024-06-14 11:53:16.134,81.58500000000001,188.57999999999998,-28.384999999999998,-0.5121560000000001,-0.107116,-0.44042,4
2024-06-14 11:53:16.139,75.985,191.87,-30.835,-0.507764,-0.055388,-0.46238,4
2024-06-14 11:53:16.143,68.985,196.875,-33.565,-0.5070319999999999,-0.025375999999999996,-0.48434,4
2024-06-14 11:53:16.148,61.74,204.015,-36.120000000000005,-0.5060560000000001,-0.001708,-0.5084960000000001,4
2024-06-14 11:53:16.153,55.125,212.17000000000002,-38.185,-0.49507599999999996,-0.002928,-0.537044,4
2024-06-14 11:53:16.158,50.120000000000005,221.305,-39.795,-0.482144,-0.011956,-0.56608,4
2024-06-14 11:53:16.163,47.25,230.54500000000002,-40.6,-0.47165199999999996,-0.026108,-0.5970679999999999,4
2024-06-14 11:53:16.167,46.375,240.17000000000002,-40.6,-0.45676799999999995,-0.043188000000000004,-0.632204,4
2024-06-14 11:53:16.172,47.39,249.725,-39.83,-0.440176,-0.058803999999999995,-0.6719759999999999,4
2024-06-14 11:53:16.177,49.7,258.78999999999996,-38.29,-0.427,-0.065148,-0.71614,4
2024-06-14 11:53:16.182,52.745,267.435,-36.19,-0.41089600000000004,-0.066856,-0.762744,4
2024-06-14 11:53:16.187,56.105,275.835,-33.985,-0.401868,-0.059536000000000006,-0.8132520000000001,4
2024-06-14 11:53:16.192,58.975,284.16499999999996,-31.605000000000004,-0.380884,-0.04148,-0.8620519999999999,4
2024-06-14 11:53:16.196,60.55,292.11,-29.4,-0.37088,-0.025376,-0.91378,4
2024-06-14 11:53:16.201,61.18,299.565,-27.509999999999998,-0.352336,-0.010492,-0.9694119999999999,4
2024-06-14 11:53:16.206,61.075,306.32,-25.655,-0.33818400000000004,0.0004880000000000006,-1.023336,4
2024-06-14 11:53:16.211,60.55,312.62,-23.869999999999997,-0.32452,0.011224,-1.093852,4
2024-06-14 11:53:16.216,59.885000000000005,318.5,-22.259999999999998,-0.30866,0.019764000000000004,-1.161684,4
2024-06-14 11:53:16.221,59.185,324.24,-20.93,-0.29670399999999997,0.02196,-1.236348,4
2024-06-14 11:53:16.225,58.415000000000006,329.41999999999996,-19.6,-0.281576,0.031476,-1.312964,4
2024-06-14 11:53:16.230,58.065,334.075,-18.200000000000003,-0.27010799999999996,0.032451999999999995,-1.380308,4
2024-06-14 11:53:16.235,57.96,337.96000000000004,-16.765,-0.25376,0.035136,-1.453996,4
2024-06-14 11:53:16.240,58.24,341.6,-15.61,-0.235948,0.038307999999999995,-1.528416,4
2024-06-14 11:53:16.245,58.45,344.61,-14.385000000000002,-0.22228399999999998,0.044408,-1.60186,4
2024-06-14 11:53:16.250,58.03,347.79499999999996,-13.545,-0.208376,0.049044,-1.669936,4
2024-06-14 11:53:16.254,57.364999999999995,350.17499999999995,-12.74,-0.19812799999999997,0.05368,-1.7526519999999999,4
2024-06-14 11:53:16.259,56.665000000000006,353.395,-11.969999999999999,-0.1891,0.06368399999999999,-1.83854,4
2024-06-14 11:53:16.264,56.07,355.46000000000004,-10.64,-0.178364,0.08052000000000001,-1.9215,4
2024-06-14 11:53:16.269,55.370000000000005,357.315,-10.045,-0.139568,0.024644,-2.040572,4
2024-06-14 11:53:16.274,53.935,360.36,-12.705,-0.13590799999999997,0.051484,-2.115724,4
2024-06-14 11:53:16.279,53.584999999999994,360.57,-12.985,-0.11102,0.042943999999999996,-2.223572,4
2024-06-14 11:53:16.283,54.18,359.905,-12.985,-0.090524,0.02562,-2.3441080000000003,4
2024-06-14 11:53:16.288,55.58,358.225,-12.775,-0.051239999999999994,0.007075999999999999,-2.457324,4
2024-06-14 11:53:16.293,57.120000000000005,355.775,-12.425,-0.013908,-0.002928,-2.590548,4
2024-06-14 11:53:16.298,58.45,352.695,-12.145,0.02806,-0.0060999999999999995,-2.7647639999999996,4
2024-06-14 11:53:16.303,58.905,349.86,-12.32,0.10760399999999999,0.013175999999999998,-2.955572,4
2024-06-14 11:53:16.308,55.3,349.23,-15.015,0.20691199999999998,0.058803999999999995,-3.0492679999999996,4
2024-06-14 11:53:16.312,47.355000000000004,349.685,-20.299999999999997,0.274744,0.083448,-3.1707799999999997,4
2024-06-14 11:53:16.317,37.239999999999995,352.52,-26.635,0.393816,0.087596,-3.3081519999999998,4
2024-06-14 11:53:16.322,25.725,357.28,-34.370000000000005,0.533628,0.071248,-3.3496319999999997,4
2024-06-14 11:53:16.327,18.27,363.96500000000003,-41.405,0.6861280000000001,-0.035136,-3.4250279999999997,4
2024-06-14 11:53:16.332,20.09,372.855,-45.010000000000005,0.8386279999999999,-0.11589999999999998,-3.47944,4
2024-06-14 11:53:16.336,30.869999999999997,383.25,-45.71,1.029192,-0.216184,-3.5253119999999996,4
2024-06-14 11:53:16.341,46.375,394.415,-43.645,1.228784,-0.300608,-3.5582519999999995,4
2024-06-14 11:53:16.346,61.81,404.81,-39.655,1.458144,-0.369904,-3.5419039999999997,4
2024-06-14 11:53:16.351,72.66,412.23,-34.265,1.709952,-0.447252,-3.4667519999999996,4
2024-06-14 11:53:16.356,79.83500000000001,415.485,-27.229999999999997,2.013244,-0.559736,-3.355244,4
2024-06-14 11:53:16.361,87.28999999999999,413.41999999999996,-17.535,2.335324,-0.698572,-3.1912760000000002,4
2024-06-14 11:53:16.365,101.28999999999999,404.6,-4.095000000000001,2.65716,-0.809348,-2.9697240000000003,4
2024-06-14 11:53:16.370,127.26,388.255,13.72,2.95484,-0.837896,-2.703276,4
2024-06-14 11:53:16.375,167.44,365.75,34.65,3.255692,-0.7590839999999999,-2.38388,4
2024-06-14 11:53:16.380,219.66,338.1,57.015,3.5753319999999995,-0.561932,-2.0969360000000004,4
2024-06-14 11:53:16.385,277.20000000000005,307.72,79.345,3.9176640000000003,-0.219112,-1.892464,4
2024-06-14 11:53:16.390,328.265,276.185,98.805,4.310748,0.22252799999999998,-1.76534,4
2024-06-14 11:53:16.394,357.90999999999997,243.74,112.63,4.783132,0.7127239999999999,-1.6450479999999998,4
2024-06-14 11:53:16.399,357.455,210.14,119.84,5.166456,1.253672,-1.4278879999999998,4
2024-06-14 11:53:16.404,325.64,174.08999999999997,119.875,5.356776,1.8053560000000002,-1.2114599999999998,4
2024-06-14 11:53:16.409,267.365,134.645,111.78999999999999,5.386544,2.284572,-1.0897039999999998,4
2024-06-14 11:53:16.414,182.63,88.19999999999999,96.03999999999999,5.268447999999999,2.60104,-1.0809199999999999,4
2024-06-14 11:53:16.419,75.005,34.51,75.775,4.973208,2.661064,-1.0870199999999999,4
2024-06-14 11:53:16.423,-39.725,-21.42,55.754999999999995,4.57134,2.426092,-1.085556,4
2024-06-14 11:53:16.428,-142.48499999999999,-75.565,39.34,4.133604,1.9507800000000002,-1.199748,4
2024-06-14 11:53:16.433,-218.68,-122.60499999999999,28.42,3.662196,1.426912,-1.446188,4
2024-06-14 11:53:16.438,-386.575,-382.445,4.97,-0.0009760000000000324,-0.09271999999999997,-6.206628,4
2024-06-14 11:53:16.443,-276.885,5.6,-5.144999999999998,-1.6428519999999998,-0.12444000000000001,5.263567999999999,4
