time,gyroscope_x,gyroscope_y,gyroscope_z,accelerometer_x,accelerometer_y,accelerometer_z,phase
2024-06-14 12:38:46.771,127.12000000000002,-401.38,-98.91,7.641348,-2.689612,-9.449632,1
2024-06-14 12:38:46.776,123.86500000000001,-242.06,-73.15,-0.2022759999999999,0.04245599999999994,3.466264,1
2024-06-14 12:38:46.780,244.26500000000001,-257.95,-67.97,0.30622000000000005,1.260992,0.3237880000000001,1
2024-06-14 12:38:46.785,168.84,-395.675,-66.395,-0.145424,0.22716399999999998,-2.207468,1
2024-06-14 12:38:46.790,124.91499999999999,-413.84000000000003,-38.394999999999996,-1.6655440000000001,-0.092476,-1.74338,1
2024-06-14 12:38:46.795,83.16,-428.68,-8.225,-0.916952,0.60878,-1.7272759999999998,1
2024-06-14 12:38:46.800,64.57499999999999,-422.555,13.370000000000001,0.551196,0.436272,-2.095228,1
2024-06-14 12:38:46.805,43.75,-390.17999999999995,29.365000000000002,1.2685559999999998,-0.0793,-2.382416,1
2024-06-14 12:38:46.809,44.03,-350.21,32.585,1.0304119999999999,-0.149084,-2.341668,1
2024-06-14 12:38:46.814,47.53,-320.495,22.155,0.34282,-0.257176,-2.373388,1
2024-06-14 12:38:46.819,48.16,-291.06,-0.5249999999999999,-0.130052,-0.437736,-2.403156,1
2024-06-14 12:38:46.824,54.74,-259.56,-31.57,-0.14713199999999999,-0.46042799999999995,-2.305312,1
2024-06-14 12:38:46.829,63.49,-226.66000000000003,-58.17,0.088084,-0.2074,-2.131584,1
2024-06-14 12:38:46.833,60.095,-188.335,-68.495,0.314028,0.129076,-2.0618,1
2024-06-14 12:38:46.838,33.739999999999995,-144.865,-55.58,0.39161999999999997,0.38405599999999995,-1.9449239999999999,1
2024-06-14 12:38:46.843,21.104999999999997,-109.095,-23.17,0.39137600000000006,0.46042799999999995,-1.7502119999999999,1
2024-06-14 12:38:46.848,8.155,-89.985,5.845000000000001,0.34599199999999997,0.45188799999999996,-1.603568,1
2024-06-14 12:38:46.853,9.555,-81.86500000000001,20.755,0.184708,0.280844,-1.460096,1
2024-06-14 12:38:46.858,12.705,-75.285,19.18,0.002928,0.039040000000000005,-1.275388,1
2024-06-14 12:38:46.862,11.375,-68.81,6.335,-0.05392400000000001,-0.03440399999999999,-1.111664,1
2024-06-14 12:38:46.867,6.965,-61.915,-6.16,-0.05856,-0.053191999999999996,-1.0448080000000002,1
2024-06-14 12:38:46.872,-0.14,-53.935,-11.48,0.00854,0.068564,-1.029924,1
2024-06-14 12:38:46.877,-4.41,-45.849999999999994,-9.45,0.09223200000000001,0.138592,-1.03456,2
2024-06-14 12:38:46.882,-6.755000000000001,-37.24,-3.325,0.09638,0.24888,-1.064328,2
2024-06-14 12:38:46.885,-3.6750000000000003,-33.040000000000006,1.365,0.064904,0.23277599999999998,-1.09068,2
2024-06-14 12:38:46.889,0.8049999999999999,-30.1,1.855,0.016104,0.158112,-1.082384,2
2024-06-14 12:38:46.894,3.6399999999999997,-27.86,-0.06999999999999998,0.0007319999999999991,0.139568,-1.093852,2
2024-06-14 12:38:46.899,4.9,-26.705,-1.8900000000000001,-0.005856,0.12029199999999998,-1.088972,2
2024-06-14 12:38:46.904,5.145,-25.655,-2.24,-0.00024399999999999997,0.119804,-1.085312,2
2024-06-14 12:38:46.909,5.25,-24.325000000000003,-2.38,0.034648,0.13054,-1.05286,2
2024-06-14 12:38:46.914,6.055,-24.71,-1.4700000000000002,-0.020252000000000003,0.133712,-1.114592,2
2024-06-14 12:38:46.918,6.195,-25.025,-1.575,-0.034648,0.119804,-1.072136,2
2024-06-14 12:38:46.923,6.335,-26.18,-2.065,-0.047824000000000005,0.122976,-1.06872,2
2024-06-14 12:38:46.928,6.37,-27.86,-2.625,-0.049776,0.11956,-1.064572,2
2024-06-14 12:38:46.933,6.545,-29.295,-2.3449999999999998,-0.016104,0.13102799999999998,-1.057496,2
2024-06-14 12:38:46.938,6.6850000000000005,-29.259999999999998,-2.205,-0.017324,0.118096,-1.036512,2
2024-06-14 12:38:46.943,6.4399999999999995,-28.77,-1.9949999999999999,-0.015616000000000001,0.106872,-1.0448079999999997,2
2024-06-14 12:38:46.947,6.16,-28.42,-2.24,-0.019764,0.113704,-1.053592,2
2024-06-14 12:38:46.952,6.4399999999999995,-28.875,-2.38,-0.027328,0.08881599999999999,-1.046028,2
2024-06-14 12:38:46.957,7.0,-29.785,-2.45,-0.028791999999999998,0.142008,-1.047004,2
2024-06-14 12:38:46.962,8.190000000000001,-30.905,-2.73,-0.037332000000000004,0.13078399999999998,-1.04554,2
2024-06-14 12:38:46.967,9.45,-31.57,-2.555,-0.035136,0.127612,-1.0445639999999998,2
2024-06-14 12:38:46.972,12.425,-30.799999999999997,-2.6950000000000003,-0.032940000000000004,0.132248,-1.049688,2
2024-06-14 12:38:46.976,13.335,-30.8,-2.52,-0.023668,0.121268,-1.038952,2
2024-06-14 12:38:46.981,13.65,-30.835,-2.73,-0.017079999999999998,0.12419599999999999,-1.036024,2
2024-06-14 12:38:46.986,13.719999999999999,-31.5,-2.625,-0.0034160000000000006,0.125416,-1.040172,2
2024-06-14 12:38:46.991,13.93,-31.255000000000003,-2.4850000000000003,-0.0021959999999999996,0.114436,-1.023824,2
2024-06-14 12:38:46.996,14.175,-31.395,-2.31,0.0009759999999999994,0.098088,-1.0201639999999998,2
2024-06-14 12:38:47.001,13.719999999999999,-31.08,-2.38,0.004392000000000001,0.11419199999999999,-1.0238239999999998,2
2024-06-14 12:38:47.005,13.65,-30.73,-2.135,0.005368,0.107848,-1.021384,2
2024-06-14 12:38:47.010,13.51,-30.799999999999997,-2.205,0.017812,0.11175199999999999,-1.023824,2
2024-06-14 12:38:47.015,13.58,-30.240000000000002,-2.485,0.019764,0.11224,-1.015528,2
2024-06-14 12:38:47.020,13.16,-28.805,-2.6950000000000003,0.022204,0.102236,-1.0079639999999999,2
2024-06-14 12:38:47.025,12.39,-27.58,-2.835,0.024156,0.101992,-1.01016,2
2024-06-14 12:38:47.030,11.83,-26.740000000000002,-3.01,0.023668,0.10931199999999999,-1.0133320000000001,2
2024-06-14 12:38:47.034,11.375,-25.095,-3.185,0.025863999999999998,0.101992,-1.01016,2
2024-06-14 12:38:47.039,11.2,-24.990000000000002,-3.29,0.026352,0.107604,-1.010404,2
2024-06-14 12:38:47.044,10.815,-25.83,-3.43,0.022448,0.114192,-1.016992,2
2024-06-14 12:38:47.049,10.815,-24.08,-3.78,0.033428,0.097112,-1.009672,2
2024-06-14 12:38:47.054,10.5,-23.1,-3.815,0.036112,0.105164,-1.0096720000000001,2
2024-06-14 12:38:47.059,10.185,-22.435000000000002,-3.955,0.035379999999999995,0.102724,-1.014308,2
2024-06-14 12:38:47.063,9.835,-21.77,-4.025,0.037820000000000006,0.095648,-1.009184,2
2024-06-14 12:38:47.068,9.344999999999999,-20.369999999999997,-4.025,0.0427,0.08832799999999999,-1.01016,2
2024-06-14 12:38:47.073,4.97,-31.85,-3.535,0.03904,0.08784,-1.0106479999999998,2
2024-06-14 12:38:47.078,-11.27,-19.355000000000004,-3.115,0.053192,0.083204,-1.002108,2
2024-06-14 12:38:47.083,3.6399999999999997,-21.315,-3.185,0.047091999999999995,0.07808,-1.013576,2
2024-06-14 12:38:47.088,6.65,-21.104999999999997,-3.255,0.04636,0.090768,-1.020408,2
2024-06-14 12:38:47.092,3.08,-20.755,-3.8850000000000002,0.045872,0.08539999999999999,-1.0182120000000001,2
2024-06-14 12:38:47.097,3.955,-20.09,-3.01,0.047091999999999995,0.09296399999999999,-1.023336,2
2024-06-14 12:38:47.102,3.325,-21.14,-2.45,0.04636,0.089304,-1.0226039999999998,2
2024-06-14 12:38:47.107,2.38,-20.685000000000002,-2.5549999999999997,0.039772,0.097112,-1.029436,2
2024-06-14 12:38:47.112,3.045,-21.175,-3.045,0.044652000000000004,0.099308,-1.0291919999999999,2
2024-06-14 12:38:47.117,2.3449999999999998,-22.26,-3.08,0.04758,0.102724,-1.02724,2
2024-06-14 12:38:47.122,-1.7850000000000001,23.974999999999998,0.9449999999999994,0.03172,0.126636,-1.146068,2
2024-06-14 12:38:47.126,-2.555,-25.900000000000002,-0.7350000000000003,0.053680000000000005,0.10931199999999999,-1.0243120000000001,2
2024-06-14 12:38:47.131,8.435,-26.775,0.1750000000000007,0.052216,0.10931199999999999,-1.0238239999999998,2
2024-06-14 12:38:47.136,-2.31,-26.32,-6.44,0.054412,0.111264,-1.020896,2
2024-06-14 12:38:47.141,9.135,-26.25,-6.859999999999999,0.062708,0.103212,-1.0228479999999998,2
2024-06-14 12:38:47.146,-0.8049999999999999,-26.32,-3.5699999999999994,0.06344,0.101504,-1.0230920000000001,2
2024-06-14 12:38:47.151,7.455,-26.985,-1.3650000000000002,0.06636799999999998,0.102968,-1.027728,2
2024-06-14 12:38:47.155,2.485,-26.985,-4.795,0.06588,0.094428,-1.030168,2
2024-06-14 12:38:47.160,6.195,-27.615000000000002,-6.720000000000001,0.06612399999999999,0.094428,-1.0311439999999998,2
2024-06-14 12:38:47.165,4.165,-29.085,-4.865,0.06953999999999999,0.085644,-1.0362680000000002,2
2024-06-14 12:38:47.170,3.64,-30.17,-2.59,0.07295600000000001,0.08174000000000001,-1.040416,2
2024-06-14 12:38:47.175,4.235,-30.729999999999997,-3.5700000000000003,0.077348,0.08515600000000001,-1.041148,2
2024-06-14 12:38:47.180,2.8,-31.99,-5.5649999999999995,0.07588400000000001,0.08784,-1.055056,2
2024-06-14 12:38:47.184,4.48,-33.144999999999996,-4.62,0.08149599999999999,0.084912,-1.040904,2
2024-06-14 12:38:47.189,2.94,-28.560000000000002,-3.08,0.074176,0.09076799999999999,-1.085312,2
2024-06-14 12:38:47.194,3.605,-39.375,-2.31,0.075884,0.067344,-1.1082480000000001,2
2024-06-14 12:38:47.199,1.96,-42.07,-3.99,0.081008,0.098332,-1.0826280000000001,2
2024-06-14 12:38:47.204,3.8499999999999996,-44.415,-3.99,0.087108,0.090524,-1.087264,2
2024-06-14 12:38:47.209,3.57,-48.58,-2.94,0.090768,0.101748,-1.073356,2
2024-06-14 12:38:47.213,3.78,-48.86,-2.2750000000000004,0.09759999999999999,0.08613200000000001,-1.067988,2
2024-06-14 12:38:47.218,3.115,-46.375,-2.975,0.099064,0.06612399999999999,-1.115812,2
2024-06-14 12:38:47.223,8.120000000000001,-41.615,-1.645,0.113948,0.070516,-1.093364,2
2024-06-14 12:38:47.228,10.149999999999999,-46.165,-0.31500000000000006,0.095648,0.08418,-1.0923880000000001,2
2024-06-14 12:38:47.233,10.989999999999998,-46.445,0.945,0.10467599999999999,0.069052,-1.2068240000000001,2
2024-06-14 12:38:47.238,13.825,-51.17,0.45499999999999996,0.09638,0.110288,-1.212436,2
2024-06-14 12:38:47.242,10.57,-56.769999999999996,-1.225,0.105652,0.093696,-1.058472,2
2024-06-14 12:38:47.247,-3.5,-60.480000000000004,-2.4499999999999997,0.11224,0.111752,-1.2212200000000002,2
2024-06-14 12:38:47.252,-5.705,-66.815,-2.24,0.108824,0.0915,-1.257088,2
2024-06-14 12:38:47.257,-7.279999999999999,-75.53,-2.45,0.109556,0.100528,-1.272948,2
2024-06-14 12:38:47.262,-8.89,-80.71000000000001,-3.3949999999999996,0.118584,0.101016,-1.260992,2
2024-06-14 12:38:47.267,-10.115,-86.16999999999999,-4.0600000000000005,0.12858799999999998,0.116144,-1.324188,2
2024-06-14 12:38:47.271,-12.25,-90.755,-4.34,0.125904,0.082716,-1.34444,2
2024-06-14 12:38:47.276,-12.879999999999999,-96.91499999999999,-4.095000000000001,0.13078399999999998,0.095892,-1.3878720000000002,2
2024-06-14 12:38:47.281,-15.33,-102.55,-4.865,0.12736799999999998,0.09345200000000001,-1.40056,2
2024-06-14 12:38:47.286,-17.08,-108.465,-5.11,0.12370799999999998,0.068076,-1.400072,2
2024-06-14 12:38:47.291,-18.095,-115.43,-5.04,0.136152,0.104188,-1.4510679999999998,2
2024-06-14 12:38:47.296,-17.92,-122.00999999999999,-5.425,0.126636,0.09930800000000001,-1.42252,2
2024-06-14 12:38:47.300,-18.619999999999997,-131.425,-6.195,0.12932,0.11419199999999999,-1.4769320000000001,2
2024-06-14 12:38:47.305,-16.835,-141.39999999999998,-7.63,0.126392,0.15884399999999999,-1.544032,2
2024-06-14 12:38:47.310,-15.225,-151.165,-9.31,0.131272,0.152256,-1.46522,2
2024-06-14 12:38:47.315,-15.329999999999998,-164.57,-11.445,0.12248799999999999,0.19812799999999997,-1.5706280000000001,3
2024-06-14 12:38:47.320,-11.934999999999999,-175.35,-13.65,0.121756,0.182512,-1.5554999999999999,3
2024-06-14 12:38:47.325,-11.620000000000001,-190.12,-15.68,0.12444,0.149084,-1.5925880000000001,3
2024-06-14 12:38:47.330,-1.225,-193.48,-16.45,0.10711599999999999,0.140544,-1.73606,3
2024-06-14 12:38:47.334,1.4,-208.53,-17.64,0.106628,0.165188,-1.776076,3
2024-06-14 12:38:47.339,9.17,-225.365,-19.634999999999998,0.081984,0.24009599999999998,-1.906372,3
2024-06-14 12:38:47.344,13.09,-242.095,-23.205,0.10736,0.307928,-1.9622480000000002,3
2024-06-14 12:38:47.349,25.41,-263.58500000000004,-27.58,0.081984,0.391132,-2.0420359999999995,3
2024-06-14 12:38:47.354,32.480000000000004,-283.95500000000004,-33.144999999999996,0.08393599999999998,0.45066799999999996,-2.1184079999999996,3
2024-06-14 12:38:47.359,35.0,-304.99,-38.64,0.10369999999999999,0.426268,-2.3270280000000003,3
2024-06-14 12:38:47.363,41.055,-330.085,-43.295,0.067344,0.383568,-2.538088,3
2024-06-14 12:38:47.368,47.67,-353.57,-47.075,0.07075999999999999,0.371612,-2.650816,3
2024-06-14 12:38:47.373,58.415,-379.015,-50.575,0.07100400000000001,0.41626399999999997,-2.891644,3
2024-06-14 12:38:47.378,66.22,-401.765,-54.459999999999994,0.100284,0.588528,-3.095628,3
2024-06-14 12:38:47.383,77.21000000000001,-425.25,-59.675,0.060756,0.64172,-3.2827759999999997,3
2024-06-14 12:38:47.388,73.22,-447.545,-66.00999999999999,0.057828000000000004,0.686616,-3.446744,3
2024-06-14 12:38:47.392,75.81,-467.74,-69.965,0.0366,0.658068,-3.58436,3
2024-06-14 12:38:47.397,72.83500000000001,-488.6,-73.28999999999999,-0.015127999999999999,0.6597759999999999,-3.54898,3
2024-06-14 12:38:47.402,60.655,-507.22,-75.565,-0.12078,0.639768,-3.5599600000000002,3
2024-06-14 12:38:47.407,48.125,-523.46,-78.155,-0.126392,0.524112,-3.644384,3
2024-06-14 12:38:47.412,42.665,-537.005,-78.4,-0.08247199999999999,0.351116,-3.6773240000000005,3
2024-06-14 12:38:47.417,46.235,-548.59,-75.42500000000001,-0.145424,0.165188,-3.667808,3
2024-06-14 12:38:47.421,45.325,-553.14,-71.225,-0.23912,0.0488,-3.659756,3
2024-06-14 12:38:47.426,46.165000000000006,-554.54,-65.45,-0.424316,-0.035136,-3.6595120000000003,4
2024-06-14 12:38:47.431,48.3,-553.385,-58.205,-0.70394,0.07832399999999999,-3.463336,4
2024-06-14 12:38:47.437,56.525000000000006,-543.06,-54.46,-1.136064,0.09784400000000001,-2.9919279999999997,4
2024-06-14 12:38:47.442,24.465,-522.62,-54.425,-1.739964,0.537532,-2.2953080000000003,4
2024-06-14 12:38:47.447,11.13,-501.865,-54.739999999999995,-1.823656,0.427244,-1.9158879999999998,4
2024-06-14 12:38:47.451,12.39,-479.99,-59.745000000000005,-1.9825,0.451644,-1.628456,4
2024-06-14 12:38:47.456,8.925,-463.82,-67.06,-2.319708,0.41626399999999997,-1.0931199999999999,4
2024-06-14 12:38:47.461,-4.0249999999999995,-422.87,-81.655,-2.636908,0.41626399999999997,-0.5131319999999999,4
2024-06-14 12:38:47.466,-7.9799999999999995,-390.39,-86.87,-1.107272,0.769332,0.427732,4
2024-06-14 12:38:47.471,-26.32,-320.145,-76.61500000000001,-0.646844,0.660508,-1.3493199999999999,4
2024-06-14 12:38:47.476,-65.66,-211.015,-55.510000000000005,-1.3542,0.30256,-1.981036,4
2024-06-14 12:38:47.480,-90.79,-100.485,-27.020000000000003,-2.140124,-0.002683999999999999,-1.22,4
2024-06-14 12:38:47.485,-78.4,6.965000000000002,11.515,-2.12768,-0.325496,-0.7510319999999999,4
2024-06-14 12:38:47.490,-31.15,93.87,56.349999999999994,-1.677012,-0.504592,-0.97356,4
2024-06-14 12:38:47.495,23.38,149.87,96.775,-1.4818120000000001,-0.534604,-1.2361039999999999,4
2024-06-14 12:38:47.500,74.83,186.76,127.715,-1.4120279999999998,-0.37014800000000003,-1.004548,4
2024-06-14 12:38:47.505,119.84,207.2,146.93,-1.3644479999999999,-0.155428,-0.8410679999999999,4
2024-06-14 12:38:47.509,143.115,218.64499999999998,155.82,-1.270264,0.11321600000000001,-0.831064,4
2024-06-14 12:38:47.514,143.185,224.28,156.625,-1.2065800000000002,0.410896,-0.815204,4
2024-06-14 12:38:47.519,121.345,228.655,149.8,-1.187304,0.647576,-0.699792,4
2024-06-14 12:38:47.524,83.33500000000001,235.48000000000002,136.815,-1.1690040000000002,0.785192,-0.597312,4
2024-06-14 12:38:47.529,39.935,243.95,119.97999999999999,-1.098976,0.824964,-0.5746199999999999,4
2024-06-14 12:38:47.533,0.6300000000000008,252.56,101.815,-1.013576,0.742492,-0.578768,4
2024-06-14 12:38:47.538,-28.595,260.645,83.895,-0.962092,0.5946279999999999,-0.559248,4
2024-06-14 12:38:47.543,-44.870000000000005,268.31,67.13,-0.9186599999999999,0.429928,-0.563152,4
2024-06-14 12:38:47.548,-49.175,275.45000000000005,52.78,-0.8625399999999999,0.26083599999999996,-0.58926,4
2024-06-14 12:38:47.553,-43.015,281.995,40.845,-0.809836,0.131516,-0.6143919999999999,4
2024-06-14 12:38:47.558,-30.520000000000003,288.82,30.59,-0.762256,0.051239999999999994,-0.6417200000000001,4
2024-06-14 12:38:47.562,-16.240000000000002,296.555,21.875,-0.7302919999999999,0.0068319999999999995,-0.682956,4
2024-06-14 12:38:47.567,-4.4799999999999995,304.885,14.105,-0.700768,0.006344,-0.733708,4
2024-06-14 12:38:47.572,2.52,314.475,6.824999999999999,-0.6597759999999999,0.020496,-0.7890959999999999,4
2024-06-14 12:38:47.577,4.06,324.24,-0.10499999999999998,-0.6329359999999999,0.030987999999999998,-0.83692,4
2024-06-14 12:38:47.582,1.645,334.81,-6.475,-0.605852,0.035868,-0.8791319999999999,4
2024-06-14 12:38:47.587,-3.01,344.89,-12.145,-0.577792,0.031964,-0.9184159999999999,4
2024-06-14 12:38:47.591,-7.91,354.27,-16.939999999999998,-0.542412,0.010492000000000001,-0.9696559999999999,4
2024-06-14 12:38:47.596,-12.495000000000001,362.25,-20.79,-0.504348,-0.032452,-1.020896,4
2024-06-14 12:38:47.601,-16.66,368.69,-23.485,-0.47384799999999994,-0.076616,-1.0704280000000002,4
2024-06-14 12:38:47.606,-18.619999999999997,374.15,-24.990000000000002,-0.438712,-0.112972,-1.108736,4
2024-06-14 12:38:47.611,-18.409999999999997,378.35,-25.27,-0.406748,-0.14517999999999998,-1.154364,4
2024-06-14 12:38:47.616,-16.59,381.64,-24.22,-0.376004,-0.168848,-1.20658,4
2024-06-14 12:38:47.620,-14.735,384.09000000000003,-21.875,-0.340624,-0.174704,-1.2600159999999998,4
2024-06-14 12:38:47.625,-13.895,385.455,-18.585,-0.313052,-0.17519200000000001,-1.311256,4
2024-06-14 12:38:47.630,-14.14,386.29499999999996,-14.385,-0.29402,-0.169092,-1.36274,4
2024-06-14 12:38:47.635,-15.96,386.54,-9.31,-0.279868,-0.16592,-1.417152,4
2024-06-14 12:38:47.640,-18.725,386.4,-3.5,-0.271328,-0.15128,-1.4803479999999998,4
2024-06-14 12:38:47.645,-22.155,386.05,2.3449999999999998,-0.26400799999999996,-0.13346799999999998,-1.54574,4
2024-06-14 12:38:47.649,-25.97,385.595,8.155000000000001,-0.26303199999999993,-0.11638799999999999,-1.631872,4
2024-06-14 12:38:47.654,-29.96,385.35,13.93,-0.25254,-0.094672,-1.724592,4
2024-06-14 12:38:47.659,-33.18,385.385,19.740000000000002,-0.2379,-0.08149600000000001,-1.8038919999999998,4
2024-06-14 12:38:47.664,-35.245000000000005,386.225,26.145,-0.219356,-0.07173600000000001,-1.8902679999999998,4
2024-06-14 12:38:47.669,-36.19,386.645,33.18,-0.18031599999999998,-0.071248,-1.99104,4
2024-06-14 12:38:47.673,-35.21,386.225,39.97,-0.13786,-0.070028,-2.08742,4
2024-06-14 12:38:47.678,-33.53,384.3,46.235,-0.09028,-0.052704,-2.1896560000000003,4
2024-06-14 12:38:47.683,-31.43,381.04499999999996,52.01,-0.040016,-0.034159999999999996,-2.292868,4
2024-06-14 12:38:47.688,-28.84,376.355,57.015,0.012932,-0.011467999999999999,-2.3863199999999996,4
2024-06-14 12:38:47.693,-26.215,370.15999999999997,61.915,0.071736,0.015616,-2.462936,4
2024-06-14 12:38:47.698,-23.8,363.405,66.465,0.142008,0.059048,-2.5427239999999998,4
2024-06-14 12:38:47.702,-20.965,355.6,71.61,0.23985199999999998,0.093208,-2.658624,4
2024-06-14 12:38:47.707,-18.27,347.83000000000004,78.155,0.369904,0.09881999999999999,-2.7611039999999996,4
2024-06-14 12:38:47.712,-16.73,341.21500000000003,86.905,0.5282600000000001,0.103212,-2.843088,4
2024-06-14 12:38:47.717,-15.05,337.995,96.845,0.698572,0.135664,-2.9223879999999998,4
2024-06-14 12:38:47.722,-16.869999999999997,336.77,104.79,0.860588,0.18226799999999999,-3.0700079999999996,4
2024-06-14 12:38:47.727,-18.97,338.905,109.69,1.055544,0.21349999999999997,-3.181272,4
2024-06-14 12:38:47.731,-18.41,344.68,112.455,1.253428,0.26181199999999993,-3.268624,4
2024-06-14 12:38:47.736,-12.739999999999998,353.36,112.77,1.4525320000000002,0.28792,-3.3252319999999997,4
2024-06-14 12:38:47.741,-4.9350000000000005,365.12,110.915,1.648464,0.319884,-3.359636,4
2024-06-14 12:38:47.746,7.175,378.105,106.75,1.8470799999999998,0.395524,-3.3774480000000002,4
2024-06-14 12:38:47.751,26.985,390.005,109.75999999999999,1.966396,0.643672,-3.364028,4
2024-06-14 12:38:47.756,54.005,396.83000000000004,107.94,2.244068,0.5753520000000001,-3.2681359999999997,4
2024-06-14 12:38:47.760,75.74000000000001,397.07500000000005,81.2,2.300432,0.7864120000000001,-3.083672,4
2024-06-14 12:38:47.765,88.655,390.88,70.84,2.3167799999999996,0.8669319999999999,-2.8240559999999997,4
2024-06-14 12:38:47.770,80.955,380.79999999999995,60.620000000000005,2.444392,0.863516,-2.612996,4
2024-06-14 12:38:47.775,49.07,370.09000000000003,50.295,2.733532,0.863516,-2.4304840000000003,4
2024-06-14 12:38:47.780,3.2199999999999998,355.74,36.68000000000001,3.085868,0.8376520000000001,-2.163304,4
2024-06-14 12:38:47.785,-27.405,338.8,20.615,3.393796,0.842776,-1.874164,4
2024-06-14 12:38:47.789,-42.455,319.16499999999996,2.17,3.73564,0.835944,-1.63724,4
2024-06-14 12:38:47.794,-49.175,295.71500000000003,-19.425,4.0752880000000005,0.763964,-1.4618039999999999,4
2024-06-14 12:38:47.799,-56.385,268.73,-42.35,4.400295999999999,0.61366,-1.2914919999999999,4
2024-06-14 12:38:47.804,-67.58500000000001,238.315,-64.435,4.679919999999999,0.396988,-1.131184,4
2024-06-14 12:38:47.809,-80.535,205.17000000000002,-83.965,4.902203999999999,0.172508,-1.029436,4
2024-06-14 12:38:47.814,-87.045,168.7,-100.765,5.053972,-0.011712,-0.9925919999999999,4
2024-06-14 12:38:47.818,-80.535,127.225,-115.36,5.0817879999999995,-0.134932,-1.01138,4
2024-06-14 12:38:47.823,-59.85,80.255,-128.275,4.924652,-0.203984,-1.047248,4
2024-06-14 12:38:47.828,-28.315,30.45,-138.565,4.627216,-0.235216,-1.0421239999999998,4
2024-06-14 12:38:47.833,7.629999999999999,-19.25,-145.53,4.244135999999999,-0.21667199999999998,-1.042612,4
2024-06-14 12:38:47.838,37.765,-64.61,-148.71499999999997,3.83446,-0.15079199999999998,-1.0982439999999998,4
2024-06-14 12:38:47.842,56.525,-103.18,-147.595,3.419416,-0.052947999999999995,-1.226588,4
2024-06-14 12:38:47.847,63.28,-133.0,-141.715,3.020232,0.036112,-1.351028,4
2024-06-14 12:38:47.852,62.16,-152.355,-130.9,2.628124,0.086864,-1.434964,4
2024-06-14 12:38:47.857,87.22,-227.15,-114.69500000000001,1.720932,-0.9237839999999999,-8.756428,4
2024-06-14 12:38:47.862,-10.954999999999998,-24.885,-92.75,-4.71042,-0.36697599999999997,0.89792,0
