time,gyroscope_x,gyroscope_y,gyroscope_z,accelerometer_x,accelerometer_y,accelerometer_z,phase
2024-06-14 11:56:38.222,372.75,-53.760000000000005,-14.98,0.6785640000000001,-0.207156,-4.38346,1
2024-06-14 11:56:38.227,435.33000000000004,-122.78,-18.97,-3.9374279999999997,1.378112,4.897812,1
2024-06-14 11:56:38.232,457.1,-263.06,-21.7,-1.222196,-0.142496,-1.005768,1
2024-06-14 11:56:38.237,461.65,-311.71000000000004,7.0,-2.00934,0.132492,-0.7400519999999999,1
2024-06-14 11:56:38.242,395.745,-369.28499999999997,34.02,-0.8876719999999999,-0.031232,-1.345172,1
2024-06-14 11:56:38.249,301.07,-392.875,67.515,-0.073444,-0.332084,-1.84586,1
2024-06-14 11:56:38.253,160.09,-380.31,113.47,0.45432799999999995,-0.4331,-1.983476,1
2024-06-14 11:56:38.258,29.47,-353.15,165.375,0.8405799999999999,-0.298412,-2.1069400000000003,1
2024-06-14 11:56:38.263,-77.175,-309.225,205.485,0.6617279999999999,-0.24058400000000002,-2.2079560000000003,1
2024-06-14 11:56:38.268,-132.825,-264.915,219.905,0.453352,-0.450912,-2.1745279999999996,1
2024-06-14 11:56:38.273,-133.35000000000002,-232.95999999999998,202.755,0.21472,-0.833992,-1.941996,1
2024-06-14 11:56:38.277,-111.33500000000001,-218.505,160.265,0.070272,-1.211948,-1.681648,1
2024-06-14 11:56:38.282,-78.96,-212.765,105.595,0.029768,-1.3876279999999999,-1.4923039999999999,1
2024-06-14 11:56:38.287,-56.035,-215.285,45.885,0.008296000000000001,-1.356884,-1.3978760000000001,1
2024-06-14 11:56:38.292,-42.595,-214.655,-9.59,0.00976,-1.120936,-1.2809999999999997,1
2024-06-14 11:56:38.297,-46.095,-204.925,-48.825,-0.00024399999999999943,-0.65392,-1.426668,1
2024-06-14 11:56:38.301,-54.18,-185.815,-64.295,0.001464,-0.06344000000000001,-1.437648,1
2024-06-14 11:56:38.306,-51.974999999999994,-165.795,-56.769999999999996,-0.007075999999999999,0.429928,-1.585268,1
2024-06-14 11:56:38.311,-47.18,-143.78,-35.21,0.06124400000000001,0.622688,-1.6079599999999998,1
2024-06-14 11:56:38.316,-43.96,-120.785,-7.595,0.104188,0.5873079999999999,-1.553792,1
2024-06-14 11:56:38.321,-45.325,-92.365,15.645,0.099796,0.405284,-1.557696,1
2024-06-14 11:56:38.325,-37.625,-70.98,27.195,0.136152,0.16714,-1.4959639999999998,1
2024-06-14 11:56:38.330,-32.62,-44.17,21.735,0.084668,-0.093208,-1.392752,1
2024-06-14 11:56:38.335,-25.655,-22.155,8.75,0.06466,-0.139812,-1.2944200000000001,1
2024-06-14 11:56:38.340,-21.665,-10.57,-0.14,0.054900000000000004,-0.071736,-1.2202439999999999,1
2024-06-14 11:56:38.345,-20.475,-3.92,-2.2399999999999998,0.06709999999999999,-0.042699999999999995,-1.237568,1
2024-06-14 11:56:38.350,-14.91,-3.115,0.385,0.062708,0.038064,-1.19194,2
2024-06-14 11:56:38.354,-9.1,-5.8100000000000005,2.135,0.014395999999999999,0.006588,-1.146068,2
2024-06-14 11:56:38.359,-5.145,-7.91,1.645,-0.091256,0.0026839999999999998,-1.06384,2
2024-06-14 11:56:38.364,-3.255,-8.33,0.42000000000000004,-0.121268,-0.0075639999999999995,-1.027728,2
2024-06-14 11:56:38.369,-1.855,-7.875,-0.63,-0.08832799999999999,-0.010248,-1.044808,2
2024-06-14 11:56:38.374,-1.085,-9.205,-1.54,-0.069784,-0.012932,-1.071892,2
2024-06-14 11:56:38.378,-0.63,-10.955,-1.435,-0.081252,-0.012444,-1.067012,2
2024-06-14 11:56:38.383,-1.435,-12.915,-1.015,-0.1037,-0.010248,-1.0543239999999998,2
2024-06-14 11:56:38.388,-1.96,-16.169999999999998,-0.805,-0.11541199999999999,-0.0024400000000000003,-1.04554,2
2024-06-14 11:56:38.393,-1.435,-18.9,-1.365,-0.108824,0.005856,-1.0462719999999999,2
2024-06-14 11:56:38.398,-0.77,-20.895,-1.75,-0.09418399999999999,-0.003172,-1.050908,2
2024-06-14 11:56:38.402,-0.665,-22.68,-1.855,-0.094428,-0.014395999999999999,-1.0462719999999999,2
2024-06-14 11:56:38.407,-1.225,-23.1,-1.75,-0.094916,-0.019032,-1.0445639999999998,2
2024-06-14 11:56:38.412,-4.725,-18.725,-1.295,-0.09662399999999999,-0.017812,-1.038708,2
2024-06-14 11:56:38.417,0.10499999999999998,-23.905,-1.26,-0.093696,-0.011224000000000001,-1.04188,2
2024-06-14 11:56:38.422,-1.0150000000000001,-24.71,-1.26,-0.096136,-0.011223999999999998,-1.0396839999999998,2
2024-06-14 11:56:38.426,0.175,-26.11,-0.945,-0.091744,-0.0068319999999999995,-1.0352919999999999,2
2024-06-14 11:56:38.431,-0.735,-27.475,-1.05,-0.090036,-0.0031720000000000003,-1.028216,2
2024-06-14 11:56:38.436,0.105,-28.175,-1.015,-0.091988,-0.002684,-1.0250439999999998,2
2024-06-14 11:56:38.441,-0.21,-29.47,-1.05,-0.091988,-0.00048800000000000004,-1.026996,2
2024-06-14 11:56:38.446,0.28,-30.134999999999998,-0.84,-0.083204,-0.00122,-1.025288,2
2024-06-14 11:56:38.451,0.385,-31.15,-0.7,-0.078568,-0.007076,-1.0248,2
2024-06-14 11:56:38.455,0.665,-32.13,-0.77,-0.077348,-0.0009759999999999999,-1.018456,2
2024-06-14 11:56:38.460,1.26,-32.305,-0.735,-0.075152,0.000976,-1.0177239999999999,2
2024-06-14 11:56:38.465,1.54,-32.375,-0.665,-0.067832,-0.0026839999999999998,-1.016016,2
2024-06-14 11:56:38.470,2.1,-32.339999999999996,-0.49,-0.06953999999999999,-0.000732,-1.0177239999999999,2
2024-06-14 11:56:38.475,2.38,-32.025,-0.63,-0.061975999999999996,-0.000488,-1.0230920000000001,2
2024-06-14 11:56:38.479,3.2199999999999998,-31.045,-0.63,-0.05831599999999999,0.0,-1.0189439999999998,2
2024-06-14 11:56:38.484,3.5,-30.134999999999998,-0.8049999999999999,-0.054412,0.005612000000000001,-1.01626,2
2024-06-14 11:56:38.489,4.234999999999999,-29.47,-0.875,-0.054412,0.003172,-1.015284,2
2024-06-14 11:56:38.494,4.83,-28.805,-1.05,-0.050264,0.00366,-1.01504,2
2024-06-14 11:56:38.499,5.46,-27.965,-1.19,-0.05124,0.005612,-1.019188,2
2024-06-14 11:56:38.503,6.265000000000001,-29.155,-1.33,-0.050264,0.009028,-1.017236,2
2024-06-14 11:56:38.508,7.21,-27.09,-1.645,-0.044896000000000005,0.008296000000000001,-1.0177239999999999,2
2024-06-14 11:56:38.513,7.875,-26.53,-1.575,-0.043432,0.0012200000000000002,-1.01626,2
2024-06-14 11:56:38.518,8.05,-25.549999999999997,-1.505,-0.03781999999999999,-0.00244,-1.014796,2
2024-06-14 11:56:38.523,7.945,-25.060000000000002,-1.6800000000000002,-0.029768,-0.0068319999999999995,-1.011136,2
2024-06-14 11:56:38.528,7.455,-24.08,-1.68,-0.03196399999999999,-0.012444,-1.0126,2
2024-06-14 11:56:38.532,6.545,-23.835,-1.54,-0.03660000000000001,-0.015616,-1.0182120000000001,2
2024-06-14 11:56:38.537,5.775,-24.29,-1.365,-0.038552,-0.01464,-1.0250439999999998,2
2024-06-14 11:56:38.542,4.97,-24.08,-1.505,-0.034648,-0.012931999999999999,-1.0384639999999998,2
2024-06-14 11:56:38.547,4.0600000000000005,-21.56,-1.645,-0.030988,-0.012199999999999999,-1.038952,2
2024-06-14 11:56:38.552,3.675,-22.295,-1.7149999999999999,-0.028548,-0.010735999999999999,-1.04066,2
2024-06-14 11:56:38.556,3.395,-21.770000000000003,-1.7850000000000001,-0.029036,-0.010248,-1.0384639999999998,2
2024-06-14 11:56:38.561,3.2199999999999998,-20.335,-1.96,-0.02928,-0.007076,-1.038464,2
2024-06-14 11:56:38.566,2.835,-21.909999999999997,-1.89,-0.024156,-0.007075999999999999,-1.03944,2
2024-06-14 11:56:38.571,3.08,-20.439999999999998,-2.0999999999999996,-0.021716,-0.006344,-1.038708,2
2024-06-14 11:56:38.576,3.325,-19.950000000000003,-2.24,-0.019032,0.0026839999999999998,-1.038952,2
2024-06-14 11:56:38.580,6.02,-13.895,-1.575,-0.005612,0.001952,-1.095072,2
2024-06-14 11:56:38.585,2.345,-20.159999999999997,-4.48,-0.020008,0.006343999999999999,-1.03578,2
2024-06-14 11:56:38.590,-1.0499999999999998,0.9450000000000003,-5.215,0.0009760000000000012,0.013176,-1.06994,2
2024-06-14 11:56:38.595,13.3,-15.575000000000001,-0.7,-0.01708,0.0031719999999999995,-1.0262639999999998,2
2024-06-14 11:56:38.600,-4.445,-7.245,-2.9050000000000002,-0.023424,0.016592,-1.032852,2
2024-06-14 11:56:38.604,8.4,-20.545,-6.09,-0.027327999999999998,0.017812,-1.0506639999999998,2
2024-06-14 11:56:38.609,-2.31,-20.229999999999997,-7.244999999999999,-0.013908,0.033184,-1.06628,2
2024-06-14 11:56:38.614,-2.31,-20.51,-4.725,-0.006587999999999998,0.017568,-1.063108,2
2024-06-14 11:56:38.619,-6.405,-22.295,-5.180000000000001,-0.009028,-0.030011999999999997,-1.10288,2
2024-06-14 11:56:38.624,-3.535,5.565000000000001,-9.695,-0.020252,-0.025863999999999998,-1.1202040000000002,2
2024-06-14 11:56:38.629,-12.355,-31.605,-9.66,-0.02318,-0.04514,-1.212924,2
2024-06-14 11:56:38.633,-13.825,-36.715,-6.125,-0.030743999999999997,-0.08783999999999999,-1.194868,2
2024-06-14 11:56:38.638,-16.555,-42.945,-5.11,-0.036112000000000005,0.026108,-1.2099959999999998,2
2024-06-14 11:56:38.643,-19.145,-45.99,-6.335,-0.0183,-0.039284,-1.181692,2
2024-06-14 11:56:38.648,-7.42,-57.61,-6.23,-0.02806,0.016104,-1.171444,2
2024-06-14 11:56:38.653,-4.62,-62.65,-7.665,-0.015615999999999998,0.018788,-1.156804,2
2024-06-14 11:56:38.657,2.205,-68.04,-5.845,0.0,-0.017079999999999998,-1.136308,2
2024-06-14 11:56:38.662,4.13,-70.07,-3.605,-0.0017080000000000003,-0.019032,-1.140212,3
2024-06-14 11:56:38.667,5.32,-73.535,-3.465,0.0029279999999999996,-0.025863999999999998,-1.203652,3
2024-06-14 11:56:38.672,-14.35,-63.665000000000006,-6.195,0.004636,-0.030988,-1.2361039999999999,3
2024-06-14 11:56:38.677,-14.665,-67.34,-5.005,0.02318,-0.038552,-1.18096,3
2024-06-14 11:56:38.681,-15.015,-70.35,-4.235,0.016836,-0.01952,-1.234152,3
2024-06-14 11:56:38.686,-16.134999999999998,-73.39500000000001,-4.655,0.0068319999999999995,-0.023668,-1.243424,3
2024-06-14 11:56:38.691,-17.185000000000002,-78.68,-4.654999999999999,0.00024399999999999943,-0.044408,-1.2695319999999999,3
2024-06-14 11:56:38.696,-17.465,-86.205,-4.025,0.009028000000000001,0.024155999999999997,-1.3049119999999998,3
2024-06-14 11:56:38.701,-19.53,-90.72,-4.375,0.015616,-0.020984,-1.222196,3
2024-06-14 11:56:38.706,-20.23,-95.445,-3.7800000000000002,0.021228,-0.040504,-1.267824,3
2024-06-14 11:56:38.710,-21.665,-100.80000000000001,-3.3949999999999996,0.030011999999999997,-0.04196799999999999,-1.269044,3
2024-06-14 11:56:38.715,-23.905,-105.35,-2.66,0.030255999999999998,-0.048312,-1.304668,3
2024-06-14 11:56:38.720,-26.18,-111.61500000000001,-1.8900000000000001,0.018299999999999997,-0.023424,-1.35054,3
2024-06-14 11:56:38.725,-27.545,-118.51,-1.505,0.020007999999999998,-0.015371999999999999,-1.3500519999999998,3
2024-06-14 11:56:38.730,-28.28,-127.365,-1.75,0.009028,0.004392,-1.3656679999999999,3
2024-06-14 11:56:38.734,-28.0,-137.2,-2.415,0.009516,0.017079999999999998,-1.4173959999999999,3
2024-06-14 11:56:38.739,-28.84,-147.63,-2.87,0.001952,0.0068319999999999995,-1.447896,3
2024-06-14 11:56:38.744,-29.19,-158.76,-3.115,-0.0060999999999999995,0.006588,-1.4818119999999997,3
2024-06-14 11:56:38.749,-28.945,-170.17,-3.36,0.0009759999999999999,0.0009759999999999999,-1.4886439999999999,3
2024-06-14 11:56:38.754,-28.525,-183.085,-3.92,-0.016348,0.028304000000000003,-1.5474480000000002,3
2024-06-14 11:56:38.758,-29.085,-197.47,-5.145,-0.02928,0.038307999999999995,-1.6091799999999998,3
2024-06-14 11:56:38.763,-28.0,-212.065,-5.8100000000000005,-0.02806,0.043676,-1.613816,3
2024-06-14 11:56:38.768,-25.97,-226.275,-6.825,-0.041235999999999995,0.063928,-1.591856,3
2024-06-14 11:56:38.773,-25.48,-241.22,-8.26,-0.050264,0.043188,-1.70556,3
2024-06-14 11:56:38.778,-26.775,-258.15999999999997,-9.205,-0.05734,-0.017812,-1.772416,3
2024-06-14 11:56:38.782,-28.385,-276.46500000000003,-9.065000000000001,-0.081008,-0.029036,-1.88856,3
2024-06-14 11:56:38.787,-29.189999999999998,-296.87,-8.89,-0.10833599999999999,0.033916,-1.974692,3
2024-06-14 11:56:38.792,-28.560000000000002,-318.78,-10.815,-0.149084,0.130296,-2.013732,3
2024-06-14 11:56:38.795,-26.215,-341.25,-14.035,-0.165432,0.216916,-2.1110879999999996,3
2024-06-14 11:56:38.800,-23.45,-363.33500000000004,-18.619999999999997,-0.17202,0.24375600000000003,-2.245532,3
2024-06-14 11:56:38.805,-18.48,-387.24,-22.12,-0.15323199999999998,0.22448,-2.391444,3
2024-06-14 11:56:38.809,-15.120000000000001,-409.99,-24.71,-0.052947999999999995,0.182512,-2.5822519999999995,3
2024-06-14 11:56:38.814,-10.99,-433.02,-25.095,0.011956000000000001,0.104432,-2.789652,3
2024-06-14 11:56:38.819,-9.24,-451.045,-23.975,0.10491999999999999,0.081984,-3.05488,3
2024-06-14 11:56:38.824,-5.8100000000000005,-470.575,-22.61,0.19861600000000001,0.11419199999999999,-3.263256,3
2024-06-14 11:56:38.829,-4.165,-483.63,-19.53,0.311588,0.244,-3.4540640000000002,3
2024-06-14 11:56:38.834,-12.915,-488.635,-21.035,0.433832,0.36356,-3.59778,3
2024-06-14 11:56:38.838,-19.810000000000002,-491.29499999999996,-23.205,0.48726800000000003,0.32208,-3.667808,3
2024-06-14 11:56:38.843,-26.04,-498.43499999999995,-24.605,0.460916,0.310368,-3.4967639999999998,3
2024-06-14 11:56:38.848,-31.185,-505.05,-28.314999999999998,0.32256799999999997,0.33232799999999996,-3.35988,3
2024-06-14 11:56:38.853,-31.535000000000004,-494.20000000000005,-33.565,0.234728,0.281332,-3.542148,3
2024-06-14 11:56:38.858,-24.990000000000002,-481.88,-39.165,0.104432,0.193736,-3.5258000000000003,3
2024-06-14 11:56:38.863,-5.355,-475.79,-39.095,-0.271084,0.149328,-3.5014,3
2024-06-14 11:56:38.867,10.29,-460.32,-40.285,-0.741516,0.20691199999999998,-3.310592,3
2024-06-14 11:56:38.872,27.02,-441.21,-40.215,-1.302228,0.267424,-3.111488,3
2024-06-14 11:56:38.877,35.980000000000004,-421.855,-43.504999999999995,-1.616988,0.34599199999999997,-2.918484,3
2024-06-14 11:56:38.882,44.59,-412.96500000000003,-48.510000000000005,-2.047648,0.42236399999999996,-2.6171439999999997,3
2024-06-14 11:56:38.887,49.489999999999995,-411.04,-55.545,-2.373876,0.457744,-2.071072,4
2024-06-14 11:56:38.891,46.795,-420.595,-68.81,-2.6437399999999998,0.49263599999999996,-1.47376,4
2024-06-14 11:56:38.896,50.68000000000001,-426.615,-92.645,-2.4751359999999996,0.674904,-0.150792,4
2024-06-14 11:56:38.901,66.63999999999999,-443.55499999999995,-114.975,-1.424716,1.033828,0.994056,4
2024-06-14 11:56:38.906,33.67,-393.365,-139.09,-1.0618879999999997,0.7803119999999999,-1.1480199999999998,4
2024-06-14 11:56:38.911,-28.805,-272.195,-159.495,-1.201212,0.893772,-2.649108,4
2024-06-14 11:56:38.916,-59.675,-156.415,-167.825,-1.779248,0.7444439999999999,-2.0010440000000003,4
2024-06-14 11:56:38.920,-59.22,-46.06,-157.745,-2.313852,0.094184,-1.055788,4
2024-06-14 11:56:38.925,-48.58,57.75,-137.515,-2.4273119999999997,-0.25376,-0.845216,4
2024-06-14 11:56:38.930,-16.94,141.575,-114.1,-2.1618399999999998,-0.22521200000000002,-1.087996,4
2024-06-14 11:56:38.935,25.060000000000002,198.87,-90.50999999999999,-1.727276,-0.20910800000000002,-1.204628,4
2024-06-14 11:56:38.940,61.6,234.745,-67.445,-1.4339879999999998,-0.20935199999999998,-1.1711999999999998,4
2024-06-14 11:56:38.945,90.58,255.675,-46.795,-1.344684,-0.14957199999999998,-1.077504,4
2024-06-14 11:56:38.949,112.21000000000001,266.595,-30.310000000000002,-1.3197960000000002,-0.033916,-0.9347639999999999,4
2024-06-14 11:56:38.954,126.14000000000001,271.11,-18.585,-1.260992,0.091256,-0.775432,4
2024-06-14 11:56:38.959,128.695,273.14,-11.585,-1.177788,0.211792,-0.675636,4
2024-06-14 11:56:38.964,120.295,274.08500000000004,-9.1,-1.0884839999999998,0.348676,-0.643672,4
2024-06-14 11:56:38.969,103.14500000000001,274.505,-9.8,-1.0108920000000001,0.45408400000000004,-0.6239079999999999,4
2024-06-14 11:56:38.974,80.325,275.03,-12.67,-0.947208,0.51362,-0.5870639999999999,4
2024-06-14 11:56:38.978,54.425,275.73,-16.8,-0.898164,0.5392399999999999,-0.567056,4
2024-06-14 11:56:38.983,29.19,276.5,-21.07,-0.835456,0.5265519999999999,-0.5624199999999999,4
2024-06-14 11:56:38.988,7.5600000000000005,277.69,-24.43,-0.774944,0.482388,-0.576816,4
2024-06-14 11:56:38.993,-8.68,280.0,-26.25,-0.717848,0.410408,-0.5960920000000001,4
2024-06-14 11:56:38.998,-19.005,283.325,-26.215,-0.674904,0.327692,-0.617076,4
2024-06-14 11:56:39.003,-23.590000000000003,287.90999999999997,-24.325,-0.635864,0.25180800000000003,-0.6463559999999999,4
2024-06-14 11:56:39.007,-23.134999999999998,293.65,-20.86,-0.610244,0.18348799999999998,-0.6832,4
2024-06-14 11:56:39.012,-19.215,300.755,-16.03,-0.58194,0.133712,-0.71736,4
2024-06-14 11:56:39.017,-13.125,308.90999999999997,-10.57,-0.556076,0.105408,-0.7595719999999999,4
2024-06-14 11:56:39.022,-7.279999999999999,318.57000000000005,-5.215,-0.5375319999999999,0.10345599999999999,-0.802516,4
2024-06-14 11:56:39.027,-2.9050000000000002,329.21000000000004,-0.665,-0.5236240000000001,0.123708,-0.8471679999999999,4
2024-06-14 11:56:39.031,-1.26,339.885,2.5549999999999997,-0.5023960000000001,0.15860000000000002,-0.9001159999999999,4
2024-06-14 11:56:39.036,-2.38,350.385,4.48,-0.483852,0.190076,-0.958432,4
2024-06-14 11:56:39.041,-5.88,360.605,5.145,-0.46726,0.22082,-1.010648,4
2024-06-14 11:56:39.046,-11.025,369.74,5.005000000000001,-0.45164399999999993,0.24180400000000002,-1.053348,4
2024-06-14 11:56:39.051,-16.73,378.105,4.375,-0.428952,0.24570799999999998,-1.113372,4
2024-06-14 11:56:39.056,-22.085,385.455,3.7800000000000002,-0.40991999999999995,0.24058399999999996,-1.1482639999999997,4
2024-06-14 11:56:39.060,-26.810000000000002,391.05499999999995,3.43,-0.393084,0.227896,-1.1919400000000002,4
2024-06-14 11:56:39.065,-30.8,395.15,3.605,-0.371612,0.215696,-1.24562,4
2024-06-14 11:56:39.070,-33.985,397.635,4.234999999999999,-0.35916800000000004,0.200324,-1.3054,4
2024-06-14 11:56:39.075,-36.644999999999996,399.315,5.005,-0.33720799999999995,0.186172,-1.364204,4
2024-06-14 11:56:39.080,-38.745000000000005,400.505,5.775,-0.32086,0.177144,-1.4271559999999999,4
2024-06-14 11:56:39.085,-40.285,401.45000000000005,6.4399999999999995,-0.30036399999999996,0.17446,-1.5032839999999998,4
2024-06-14 11:56:39.089,-40.845,402.045,6.93,-0.28792000000000006,0.16469999999999999,-1.575752,4
2024-06-14 11:56:39.094,-41.09,402.91999999999996,7.42,-0.26596,0.15372,-1.640168,4
2024-06-14 11:56:39.099,-41.86,404.03999999999996,7.84,-0.25132,0.160796,-1.7019,4
2024-06-14 11:56:39.104,-43.82,405.02,7.98,-0.23912,0.16543199999999997,-1.7770519999999999,4
2024-06-14 11:56:39.109,-47.81,405.265,7.49,-0.203252,0.177632,-1.8675760000000001,4
2024-06-14 11:56:39.114,-54.075,404.075,6.300000000000001,-0.14639999999999997,0.20007999999999998,-1.959076,4
2024-06-14 11:56:39.118,-61.95,400.26,4.34,-0.088084,0.224236,-2.072536,4
2024-06-14 11:56:39.123,-70.66499999999999,393.61,1.4000000000000001,-0.013176,0.24034,-2.177212,4
2024-06-14 11:56:39.128,-80.185,384.02,-2.38,0.06832,0.25473599999999996,-2.28506,4
2024-06-14 11:56:39.133,-89.495,370.92999999999995,-7.140000000000001,0.15079199999999998,0.27059599999999995,-2.424384,4
2024-06-14 11:56:39.138,-97.37,354.62,-12.635,0.223748,0.2776719999999999,-2.5854239999999997,4
2024-06-14 11:56:39.143,-102.69,336.84000000000003,-18.165,0.279136,0.2562,-2.7835520000000002,4
2024-06-14 11:56:39.147,-104.685,321.29999999999995,-22.645,0.333548,0.19032,-2.9919279999999997,4
2024-06-14 11:56:39.152,-100.52000000000001,311.64,-23.939999999999998,0.405772,0.08637600000000001,-3.104656,4
2024-06-14 11:56:39.157,-89.215,309.89,-20.125,0.47458,0.0183,-3.2085999999999997,4
2024-06-14 11:56:39.162,-72.695,315.175,-12.004999999999999,0.5550999999999999,0.002684,-3.346216,4
2024-06-14 11:56:39.167,-56.945,325.99,-1.295,0.675148,0.04636,-3.4918839999999998,4
2024-06-14 11:56:39.172,-46.935,341.91499999999996,10.675,0.8337479999999999,0.12614799999999998,-3.5785039999999997,4
2024-06-14 11:56:39.176,-47.004999999999995,363.195,22.47,0.9994240000000001,0.202764,-3.615836,4
2024-06-14 11:56:39.181,-58.59,387.555,33.25,1.178032,0.271328,-3.620716,4
2024-06-14 11:56:39.186,-76.65,410.06,43.19,1.394216,0.306952,-3.638772,4
2024-06-14 11:56:39.191,-95.75999999999999,427.0,52.989999999999995,1.648952,0.29865600000000003,-3.5785039999999997,4
2024-06-14 11:56:39.196,-111.78999999999999,434.77,62.545,1.918084,0.269864,-3.496276,4
2024-06-14 11:56:39.200,-122.185,432.495,71.715,2.187704,0.240096,-3.396724,4
2024-06-14 11:56:39.205,-127.61000000000001,420.84000000000003,79.275,2.474404,0.19763999999999998,-3.269356,4
2024-06-14 11:56:39.210,-129.57,401.94000000000005,83.58,2.7501239999999996,0.167628,-3.099044,4
2024-06-14 11:56:39.215,-128.66,377.78999999999996,82.67,2.989,0.11858399999999998,-2.9070159999999996,4
2024-06-14 11:56:39.220,-127.68,350.945,75.39,3.1932279999999995,0.053436000000000004,-2.6964439999999996,4
2024-06-14 11:56:39.225,-127.12,323.365,61.11,3.428444,-0.030256,-2.518568,4
2024-06-14 11:56:39.229,-125.405,296.065,40.46,3.710508,-0.132248,-2.3882719999999997,4
2024-06-14 11:56:39.234,-118.265,267.19,15.120000000000001,3.994036,-0.237412,-2.242116,4
2024-06-14 11:56:39.239,-104.125,236.215,-12.495000000000001,4.2334,-0.324276,-2.060336,4
2024-06-14 11:56:39.244,-85.64500000000001,204.155,-40.705,4.488868,-0.396988,-1.866112,4
2024-06-14 11:56:39.249,-69.22999999999999,171.465,-68.6,4.760439999999999,-0.506788,-1.6936039999999999,4
2024-06-14 11:56:39.254,-61.355,137.82999999999998,-94.95500000000001,4.983700000000001,-0.681492,-1.557696,4
2024-06-14 11:56:39.258,-59.605000000000004,102.34,-116.34,5.060560000000001,-0.911828,-1.446432,4
2024-06-14 11:56:39.263,-54.144999999999996,63.769999999999996,-129.71,5.042748,-1.139236,-1.34688,4
2024-06-14 11:56:39.268,-35.735,22.505,-132.96499999999997,4.935144000000001,-1.3322399999999999,-1.32126,4
2024-06-14 11:56:39.273,-2.5199999999999996,-20.195,-126.385,4.730916,-1.446432,-1.3537119999999998,4
2024-06-14 11:56:39.278,40.635,-61.18000000000001,-112.28,4.467639999999999,-1.444724,-1.441064,4
2024-06-14 11:56:39.283,83.545,-97.405,-94.78,4.12848,-1.277828,-1.519876,4
2024-06-14 11:56:39.287,118.125,-127.435,-77.805,3.76858,-1.023824,-1.6372399999999998,4
2024-06-14 11:56:39.292,258.54499999999996,-305.025,-23.17,-1.7672919999999999,-2.209908,-9.844667999999999,4
