time,gyroscope_x,gyroscope_y,gyroscope_z,accelerometer_x,accelerometer_y,accelerometer_z,phase
2024-06-14 10:58:25.976,233.555,-420.735,19.740000000000002,6.437939999999999,-0.7634759999999999,-3.09392,1
2024-06-14 10:58:25.981,163.73,-395.465,-12.46,0.09686800000000007,-0.488,0.5590040000000001,1
2024-06-14 10:58:25.985,223.01999999999998,-363.58,-17.5,0.011712000000000056,0.49239199999999994,-0.093696,1
2024-06-14 10:58:25.990,269.395,-348.6,0.8400000000000003,0.62098,0.130052,-1.389824,1
2024-06-14 10:58:25.995,247.975,-341.005,25.025,-0.19056399999999998,-0.01537200000000001,-1.6850640000000001,1
2024-06-14 10:58:26.000,201.285,-326.34000000000003,47.915,-0.010004000000000002,-0.069052,-1.8295119999999998,1
2024-06-14 10:58:26.005,176.785,-319.375,62.23,-0.048555999999999995,-0.16836,-1.787544,1
2024-06-14 10:58:26.009,120.92500000000001,-288.82,71.715,0.25961599999999996,-0.468236,-2.1862399999999997,1
2024-06-14 10:58:26.014,82.03999999999999,-274.645,75.35499999999999,0.437736,-0.424072,-2.046916,1
2024-06-14 10:58:26.019,34.894999999999996,-237.23000000000002,71.54,0.613416,-0.7929999999999999,-2.5254000000000003,1
2024-06-14 10:58:26.024,24.78,-233.765,52.605000000000004,0.5419240000000001,-0.676612,-2.03252,1
2024-06-14 10:58:26.029,1.9249999999999998,-203.28,28.980000000000004,0.37454,-0.805932,-2.555656,1
2024-06-14 10:58:26.033,-4.234999999999999,-165.095,5.7749999999999995,0.25546800000000003,-0.506788,-2.109868,1
2024-06-14 10:58:26.038,-1.8900000000000001,-140.66500000000002,-6.4399999999999995,0.29548399999999997,-0.249124,-2.0420359999999995,1
2024-06-14 10:58:26.043,-9.065,-118.685,-8.82,0.29304399999999997,0.052947999999999995,-1.8260959999999997,1
2024-06-14 10:58:26.048,-9.765,-98.945,-6.195,0.16909200000000002,0.25449199999999994,-1.592832,1
2024-06-14 10:58:26.053,-14.665,-86.38,2.905,0.15616000000000002,0.336964,-1.554036,1
2024-06-14 10:58:26.058,-16.065,-76.405,12.530000000000001,0.216916,0.048556,-1.521096,1
2024-06-14 10:58:26.062,-13.545,-56.105000000000004,15.505,0.12956399999999998,0.030256,-1.230004,1
2024-06-14 10:58:26.067,-3.815,-46.55,12.495000000000001,0.08174000000000001,0.027327999999999998,-1.096048,1
2024-06-14 10:58:26.072,5.145,-39.83,10.115,0.10394400000000001,-0.06344,-1.038708,1
2024-06-14 10:58:26.077,8.155000000000001,-28.840000000000003,4.62,0.10614,-0.07344400000000001,-0.98088,1
2024-06-14 10:58:26.082,10.71,-19.425,1.6800000000000002,0.09881999999999999,-0.058803999999999995,-0.952088,1
2024-06-14 10:58:26.086,11.445,-12.600000000000001,0.8049999999999999,0.0549,-0.017324,-0.941352,1
2024-06-14 10:58:26.091,13.545000000000002,-5.215,3.045,0.08637600000000001,-0.18617199999999998,-1.06872,1
2024-06-14 10:58:26.096,17.675,-3.64,5.075,0.163236,0.251564,-1.0177239999999999,2
2024-06-14 10:58:26.101,20.16,-3.8499999999999996,2.9050000000000002,0.075396,-0.061732,-1.113616,2
2024-06-14 10:58:26.106,22.715,-4.445,2.135,0.051972,-0.0427,-1.0760399999999999,2
2024-06-14 10:58:26.110,21.63,-4.76,0.735,0.041479999999999996,-0.062708,-1.090192,2
2024-06-14 10:58:26.115,17.395,-5.984999999999999,0.27999999999999997,0.029523999999999998,-0.110532,-1.093852,2
2024-06-14 10:58:26.120,8.89,-8.084999999999999,-0.07,0.011956,-0.11980400000000001,-1.087508,2
2024-06-14 10:58:26.125,0.20999999999999985,-10.675,0.035,0.008784,-0.101748,-1.077504,2
2024-06-14 10:58:26.130,-4.48,-12.18,1.75,0.079544,0.18202400000000002,-1.01504,2
2024-06-14 10:58:26.134,-8.82,-14.805,-0.035,0.009516,-0.137128,-1.086288,2
2024-06-14 10:58:26.139,-10.57,-17.744999999999997,-0.07,-0.00048799999999999885,-0.119072,-1.074332,2
2024-06-14 10:58:26.144,-12.74,-21.21,-0.17500000000000002,0.032208,0.06588,-1.046028,2
2024-06-14 10:58:26.149,-14.280000000000001,-26.285,-0.49,-0.004392,-0.12004799999999999,-1.065548,2
2024-06-14 10:58:26.154,-16.59,-29.995,-0.7,0.021716,0.004880000000000002,-1.045296,2
2024-06-14 10:58:26.159,-18.9,-31.605,-0.63,-0.007808,-0.0793,-1.060668,2
2024-06-14 10:58:26.163,-21.21,-31.92,-0.525,0.055632,0.007319999999999993,-1.028948,2
2024-06-14 10:58:26.168,-23.345,-33.11,-0.7000000000000001,0.04758,-0.078324,-1.034072,2
2024-06-14 10:58:26.173,-25.9,-36.260000000000005,-0.7,0.02928,-0.093208,-1.037244,2
2024-06-14 10:58:26.178,-27.72,-39.34,-0.77,0.014152,-0.05319199999999999,-1.04066,2
2024-06-14 10:58:26.183,-27.86,-36.575,-0.7350000000000001,0.060268,-0.006588,-1.030412,2
2024-06-14 10:58:26.187,-31.57,-44.765,0.175,0.061487999999999994,-0.02074,-1.025532,2
2024-06-14 10:58:26.192,-32.620000000000005,-46.41,-0.20999999999999996,0.03294,-0.073932,-1.0372439999999998,2
2024-06-14 10:58:26.197,-34.3,-47.144999999999996,-1.295,0.048799999999999996,-0.052704,-1.0262639999999998,2
2024-06-14 10:58:26.202,-34.265,-47.425,-0.875,0.028304,-0.035136,-1.010648,2
2024-06-14 10:58:26.207,-34.475,-48.614999999999995,-0.455,0.04636,-0.035136,-1.0243120000000001,2
2024-06-14 10:58:26.211,-34.72,-48.965,-0.42,0.08881599999999999,-0.03538,-1.0079639999999999,2
2024-06-14 10:58:26.216,-33.25,-49.525,-0.7699999999999999,0.06466,-0.03538,-1.012356,2
2024-06-14 10:58:26.221,-31.92,-43.19,-1.54,0.096136,-0.029524,-0.985516,2
2024-06-14 10:58:26.226,-30.1,-48.965,-1.19,0.050019999999999995,-0.019275999999999998,-1.02236,2
2024-06-14 10:58:26.231,-27.79,-49.245,-1.05,0.07344400000000001,-0.026596,-0.9755119999999999,2
2024-06-14 10:58:26.236,-26.39,-49.07,-1.645,0.08710799999999999,0.010735999999999999,-1.007232,2
2024-06-14 10:58:26.240,-23.310000000000002,-54.879999999999995,-1.7149999999999999,0.040015999999999996,-0.010735999999999999,-0.992348,2
2024-06-14 10:58:26.245,-21.595,-47.915,-1.995,0.19080799999999998,0.013907999999999993,-0.9496479999999999,2
2024-06-14 10:58:26.250,-19.25,-44.17,-1.645,0.19617600000000002,0.011956000000000001,-0.9125599999999999,2
2024-06-14 10:58:26.255,-16.520000000000003,-44.45,-1.4,0.05856,-0.031476,-0.954528,2
2024-06-14 10:58:26.260,-13.545,-41.44,-2.415,0.20593599999999998,0.04562800000000001,-0.947696,2
2024-06-14 10:58:26.264,-11.305,-39.55,-2.0300000000000002,0.015372000000000004,-0.03294,-0.967216,2
2024-06-14 10:58:26.269,-8.19,-34.86,-1.82,0.222528,-0.039772,-0.8520479999999999,2
2024-06-14 10:58:26.274,-7.5249999999999995,-34.685,-1.54,0.10736000000000001,-0.0002440000000000003,-0.955992,2
2024-06-14 10:58:26.279,-5.5649999999999995,-29.225,-2.45,0.287188,0.080764,-0.955992,2
2024-06-14 10:58:26.284,-3.78,-30.31,-1.8900000000000001,0.051728,-0.027328,-0.991616,3
2024-06-14 10:58:26.288,-1.505,-26.775,-1.96,0.120048,0.0002440000000000003,-0.9657519999999999,3
2024-06-14 10:58:26.293,0.525,-35.0,-1.75,0.10711599999999999,0.00024399999999999986,-0.9740479999999999,3
2024-06-14 10:58:26.298,2.975,-28.700000000000003,-2.87,-0.023180000000000006,-0.06197599999999999,-0.965264,3
2024-06-14 10:58:26.303,6.335000000000001,-30.415,-2.45,0.132248,0.0024399999999999995,-0.9838079999999999,3
2024-06-14 10:58:26.308,8.434999999999999,-29.435,-3.71,0.12444,0.002684,-0.975268,3
2024-06-14 10:58:26.312,12.355,-27.720000000000002,-4.305,0.121024,0.00366,-0.9664839999999999,3
2024-06-14 10:58:26.317,16.205,-25.515,-4.41,0.12614799999999998,0.011224,-0.9591639999999999,3
2024-06-14 10:58:26.322,19.215,-23.765,-4.34,0.127856,0.0053679999999999995,-0.958676,3
2024-06-14 10:58:26.327,22.295,-21.665,-4.83,0.13419999999999999,0.00244,-0.953552,3
2024-06-14 10:58:26.332,24.744999999999997,-20.37,-5.74,0.140788,-0.0053679999999999995,-0.96136,3
2024-06-14 10:58:26.337,26.355,-20.055,-5.775,0.13810399999999998,-0.016835999999999997,-0.970876,3
2024-06-14 10:58:26.341,26.634999999999998,-19.705,-5.5649999999999995,0.137372,-0.017324,-0.977708,3
2024-06-14 10:58:26.346,27.475,-19.634999999999998,-5.46,0.14151999999999998,-0.028791999999999998,-0.975512,3
2024-06-14 10:58:26.351,25.9,-20.65,-5.705,0.148596,-0.043188,-0.991128,3
2024-06-14 10:58:26.356,23.695,-22.365000000000002,-5.5649999999999995,0.154452,-0.053436,-1.039684,3
2024-06-14 10:58:26.361,21.28,-24.605,-5.005,0.15128000000000003,-0.050508,-1.070916,3
2024-06-14 10:58:26.365,19.6,-26.495,-4.34,0.14444800000000002,-0.047336,-1.077748,3
2024-06-14 10:58:26.370,19.355,-30.345,-4.095000000000001,0.139324,-0.048799999999999996,-1.092632,3
2024-06-14 10:58:26.375,18.305,-33.739999999999995,-4.13,0.147376,-0.06246399999999999,-1.081896,3
2024-06-14 10:58:26.380,15.365,-46.97,-3.2550000000000003,0.155916,-0.064416,-1.083604,3
2024-06-14 10:58:26.385,12.739999999999998,-39.69,-2.485,0.154696,-0.06490399999999999,-1.076772,3
2024-06-14 10:58:26.389,7.735,-43.715,-1.82,0.161528,-0.062708,-1.067988,3
2024-06-14 10:58:26.394,3.465,-48.614999999999995,-2.1350000000000002,0.163968,-0.061731999999999995,-1.0728680000000002,3
2024-06-14 10:58:26.399,-0.45500000000000007,-50.54,-1.8900000000000001,0.164456,-0.084668,-1.0765280000000002,3
2024-06-14 10:58:26.404,-4.27,-52.989999999999995,-1.1199999999999999,0.179096,-0.062708,-1.06384,3
2024-06-14 10:58:26.409,-3.6050000000000004,-51.695,-0.315,0.177632,-0.05831599999999999,-1.05164,3
2024-06-14 10:58:26.414,-4.41,-52.5,-0.20999999999999996,0.1891,-0.043432,-1.1053199999999999,3
2024-06-14 10:58:26.418,-0.8049999999999997,-54.67,-0.13999999999999996,0.190564,-0.049532,-1.085312,3
2024-06-14 10:58:26.423,-3.885,-47.215,-0.49,0.175192,-0.08662,-1.036756,3
2024-06-14 10:58:26.428,-9.1,-42.945,2.6950000000000003,0.212036,-0.16348,-1.14314,3
2024-06-14 10:58:26.433,-7.455,-46.06,4.305,0.20544800000000002,-0.049044000000000004,-1.15778,3
2024-06-14 10:58:26.438,-10.71,-53.69,4.8999999999999995,0.21301199999999998,-0.12468399999999999,-1.18462,3
2024-06-14 10:58:26.442,-8.295,-59.745000000000005,6.125,0.20617999999999997,-0.042212,-1.178032,3
2024-06-14 10:58:26.447,-10.5,-62.755,6.755000000000001,0.21911199999999997,-0.05978,-1.2539159999999998,3
2024-06-14 10:58:26.452,-17.325,-63.035,7.629999999999999,0.24936799999999998,-0.088816,-1.470344,3
2024-06-14 10:58:26.457,-8.855,-65.41499999999999,7.734999999999999,0.146888,-0.036112000000000005,-1.1455799999999998,3
2024-06-14 10:58:26.462,-37.065,-76.685,8.33,0.148596,-0.079056,-1.2988119999999999,3
2024-06-14 10:58:26.466,-43.120000000000005,-78.75,8.82,0.24278,-0.085644,-1.2343959999999998,3
2024-06-14 10:58:26.471,-43.19,-83.33500000000001,9.835,0.209596,-0.091988,-1.274168,3
2024-06-14 10:58:26.476,-43.120000000000005,-87.22,10.78,0.246928,-0.080764,-1.320772,3
2024-06-14 10:58:26.481,-44.66,-93.41499999999999,11.48,0.214232,-0.08296,-1.331508,3
2024-06-14 10:58:26.486,-42.35,-100.44999999999999,12.530000000000001,0.24448799999999998,-0.071736,-1.364692,3
2024-06-14 10:58:26.490,-41.230000000000004,-109.41,12.565000000000001,0.239852,-0.063196,-1.347612,3
2024-06-14 10:58:26.495,-39.69,-116.58500000000001,12.845,0.227896,-0.042943999999999996,-1.4217879999999998,3
2024-06-14 10:58:26.500,-38.535,-126.56,12.775,0.22033199999999997,0.003660000000000001,-1.44082,3
2024-06-14 10:58:26.502,-32.269999999999996,-139.685,11.969999999999999,0.22155199999999997,0.021228,-1.447408,3
2024-06-14 10:58:26.507,-29.259999999999998,-150.07999999999998,11.655000000000001,0.23326399999999997,-0.010492000000000001,-1.4884,3
2024-06-14 10:58:26.512,-28.105,-161.7,11.41,0.21984399999999998,0.027815999999999997,-1.5167039999999998,3
2024-06-14 10:58:26.516,-27.475,-173.355,10.64,0.232288,0.010492,-1.4910839999999999,3
2024-06-14 10:58:26.521,-30.45,-183.05,9.73,0.23399599999999998,0.030987999999999998,-1.4945,3
2024-06-14 10:58:26.526,-30.065,-190.85500000000002,8.12,0.220576,0.06953999999999999,-1.518656,3
2024-06-14 10:58:26.531,-31.01,-205.17000000000002,5.880000000000001,0.211304,0.10491999999999999,-1.5542799999999999,3
2024-06-14 10:58:26.536,-29.645000000000003,-219.66,2.9749999999999996,0.215696,0.107604,-1.602348,3
2024-06-14 10:58:26.541,-26.705,-234.85,-0.35,0.22350399999999998,0.13176,-1.720444,3
2024-06-14 10:58:26.545,-24.255000000000003,-247.555,-3.85,0.213744,0.13663999999999998,-1.814628,3
2024-06-14 10:58:26.550,-25.48,-265.33500000000004,-7.945,0.25668799999999997,0.141764,-1.968836,3
2024-06-14 10:58:26.555,-24.36,-282.625,-12.425,0.27279200000000003,0.157136,-2.163792,3
2024-06-14 10:58:26.560,-24.255000000000003,-302.53999999999996,-16.38,0.220088,0.13590799999999997,-2.202588,3
2024-06-14 10:58:26.565,-23.555,-326.025,-19.145,0.168116,0.13541999999999998,-2.222352,3
2024-06-14 10:58:26.570,-22.365000000000002,-350.245,-22.085,0.186172,0.174704,-2.252852,3
2024-06-14 10:58:26.574,-24.884999999999998,-376.32,-25.759999999999998,0.11931599999999999,0.30036399999999996,-2.434632,3
2024-06-14 10:58:26.579,-29.96,-406.595,-30.975,0.144936,0.360632,-2.553216,3
2024-06-14 10:58:26.584,-29.05,-437.57,-35.56,0.174948,0.31842,-2.8001439999999995,3
2024-06-14 10:58:26.589,-21.175,-465.64,-39.129999999999995,0.23277599999999998,0.27645200000000003,-2.947032,3
2024-06-14 10:58:26.594,-13.09,-491.96000000000004,-40.88,0.27205999999999997,0.233508,-3.012424,3
2024-06-14 10:58:26.599,-13.265,-509.495,-39.095,0.30231600000000003,0.207888,-3.140524,3
2024-06-14 10:58:26.603,-20.685000000000002,-521.5,-36.435,0.363804,0.15372,-3.080256,3
2024-06-14 10:58:26.608,-31.849999999999998,-528.8499999999999,-33.775,0.503128,-0.06026799999999999,-2.853092,3
2024-06-14 10:58:26.613,-50.75,-529.41,-33.285,0.58438,-0.142984,-3.180052,3
2024-06-14 10:58:26.618,-50.575,-519.2950000000001,-32.095,0.659044,-0.19397999999999999,-3.1859079999999995,3
2024-06-14 10:58:26.623,-27.090000000000003,-519.295,-29.96,0.575352,-0.11882799999999999,-3.33304,3
2024-06-14 10:58:26.628,0.48999999999999977,-504.66499999999996,-31.045,0.43334399999999995,0.151524,-3.088064,3
2024-06-14 10:58:26.633,5.705,-496.055,-39.480000000000004,0.47946,0.43846799999999997,-2.970944,3
2024-06-14 10:58:26.637,15.26,-487.34000000000003,-50.365,-0.03318399999999999,0.5367999999999999,-2.671312,3
2024-06-14 10:58:26.642,24.815,-463.29499999999996,-59.849999999999994,-0.61854,0.6954,-1.651392,3
2024-06-14 10:58:26.647,28.98,-420.07000000000005,-67.62,-1.1101999999999999,0.8544879999999999,-0.7134560000000001,3
2024-06-14 10:58:26.652,27.86,-359.135,-74.375,-1.9595639999999999,1.0328519999999999,-1.06994,3
2024-06-14 10:58:26.657,5.915,-283.43,-95.795,-1.8951479999999998,1.2065800000000002,-1.3054,3
2024-06-14 10:58:26.662,-14.21,-217.42000000000002,-123.13,-1.519388,1.0492,-1.67628,3
2024-06-14 10:58:26.666,-45.150000000000006,-153.93,-145.775,-1.5884399999999999,0.6910080000000001,-1.7199559999999998,3
2024-06-14 10:58:26.671,-73.745,-99.33,-165.09500000000003,-1.205604,0.393084,-1.457656,3
2024-06-14 10:58:26.676,-55.65,-85.12,-161.98000000000002,-0.83326,0.187636,-1.0157720000000001,3
2024-06-14 10:58:26.681,-44.765,-34.195,-149.45,-1.228052,0.133468,-1.3293119999999998,3
2024-06-14 10:58:26.686,-18.515,29.015,-136.46499999999997,-1.7687559999999998,0.100772,-1.114592,3
2024-06-14 10:58:26.691,14.315,74.69,-124.495,-1.91662,-0.05002,-1.0152839999999999,3
2024-06-14 10:58:26.695,42.315,108.815,-111.86,-1.632116,-0.15884399999999999,-0.9550160000000001,3
2024-06-14 10:58:26.700,64.995,126.525,-100.31,-1.260992,-0.10711599999999999,-0.9203679999999999,3
2024-06-14 10:58:26.705,85.155,130.375,-91.77,-1.070428,0.03904,-0.8784,3
2024-06-14 10:58:26.710,100.83500000000001,129.99,-84.595,-1.0701839999999998,0.17836400000000002,-0.806908,4
2024-06-14 10:58:26.715,105.84,132.79000000000002,-77.315,-1.132892,0.285724,-0.688812,4
2024-06-14 10:58:26.720,99.25999999999999,139.54500000000002,-70.175,-1.143628,0.394548,-0.5819399999999999,4
2024-06-14 10:58:26.724,83.33500000000001,147.49,-64.96000000000001,-1.086776,0.495564,-0.525332,4
2024-06-14 10:58:26.729,61.005,156.41500000000002,-62.195,-1.01138,0.559004,-0.510204,4
2024-06-14 10:58:26.734,34.475,167.23000000000002,-61.39,-0.9664839999999999,0.568764,-0.49898,4
2024-06-14 10:58:26.739,6.405,180.145,-60.97,-0.9520879999999999,0.546072,-0.483364,4
2024-06-14 10:58:26.744,-19.81,195.37,-59.885000000000005,-0.929152,0.49824799999999997,-0.4758,4
2024-06-14 10:58:26.749,-42.63,211.715,-57.225,-0.884012,0.422608,-0.49166,4
2024-06-14 10:58:26.753,-60.550000000000004,227.885,-53.2,-0.83326,0.327448,-0.532896,4
2024-06-14 10:58:26.758,-73.465,243.565,-47.74,-0.773968,0.231068,-0.5763280000000001,4
2024-06-14 10:58:26.763,-81.41,258.15999999999997,-40.845,-0.71858,0.138592,-0.6209799999999999,4
2024-06-14 10:58:26.768,-85.365,271.53,-32.48,-0.6568479999999999,0.054655999999999996,-0.667584,4
2024-06-14 10:58:26.773,-85.505,283.53499999999997,-23.134999999999998,-0.6019479999999999,-0.010492,-0.7127239999999999,4
2024-06-14 10:58:26.778,-82.285,294.105,-13.16,-0.5453399999999999,-0.05246000000000001,-0.7451760000000001,4
2024-06-14 10:58:26.782,-76.65,303.345,-3.2199999999999998,-0.49117199999999994,-0.08027599999999999,-0.776164,4
2024-06-14 10:58:26.787,-70.56,311.395,5.95,-0.44408,-0.08271599999999998,-0.82106,4
2024-06-14 10:58:26.792,-65.765,318.045,14.14,-0.40381999999999996,-0.072468,-0.865956,4
2024-06-14 10:58:26.797,-62.44,323.71500000000003,21.56,-0.365512,-0.051972,-0.9147559999999999,4
2024-06-14 10:58:26.802,-60.620000000000005,328.54499999999996,27.93,-0.339648,-0.032208,-0.9638,4
2024-06-14 10:58:26.807,-60.165000000000006,333.62,33.495000000000005,-0.311588,-0.02074,-1.01016,4
2024-06-14 10:58:26.811,-61.075,339.01,38.255,-0.288164,-0.011956000000000001,-1.070428,4
2024-06-14 10:58:26.816,-62.965,344.75,41.895,-0.26327599999999995,0.004880000000000001,-1.134356,4
2024-06-14 10:58:26.821,-65.52000000000001,350.805,44.239999999999995,-0.233508,0.016835999999999997,-1.2038959999999999,4
2024-06-14 10:58:26.826,-68.985,356.51,45.43,-0.199592,0.031476000000000004,-1.2734360000000002,4
2024-06-14 10:58:26.831,-73.185,361.79499999999996,45.5,-0.163968,0.042212,-1.349564,4
2024-06-14 10:58:26.836,-78.36500000000001,366.905,44.275,-0.11785199999999998,0.054412,-1.42496,4
2024-06-14 10:58:26.841,-84.315,371.42,41.790000000000006,-0.06344,0.061976,-1.507676,4
2024-06-14 10:58:26.845,-90.65,375.62,38.255,-0.008052,0.06222,-1.5847799999999999,4
2024-06-14 10:58:26.850,-97.195,379.19,33.775,0.051972000000000004,0.061976,-1.6655440000000001,4
2024-06-14 10:58:26.855,-103.775,382.06,28.490000000000002,0.11467999999999998,0.054412,-1.736792,4
2024-06-14 10:58:26.860,-110.91499999999999,384.3,22.68,0.19154,0.034404000000000004,-1.813164,4
2024-06-14 10:58:26.865,-118.51,385.455,17.185000000000002,0.259372,-0.015372,-1.890268,4
2024-06-14 10:58:26.870,-125.09,385.735,13.265,0.321836,-0.09540400000000002,-1.9622480000000002,4
2024-06-14 10:58:26.874,-128.31,384.44,12.11,0.383812,-0.190076,-2.0220279999999997,4
2024-06-14 10:58:26.879,-126.84,381.255,14.350000000000001,0.43554,-0.29548399999999997,-2.082052,4
2024-06-14 10:58:26.884,-120.25999999999999,376.46000000000004,20.195,0.484096,-0.385032,-2.1459799999999998,4
2024-06-14 10:58:26.889,-109.86500000000001,370.51,28.98,0.526796,-0.449692,-2.215764,4
2024-06-14 10:58:26.894,-97.3,364.875,40.11,0.574864,-0.492636,-2.2850599999999996,4
2024-06-14 10:58:26.899,-83.58000000000001,360.08000000000004,52.5,0.612196,-0.49873599999999996,-2.337764,4
2024-06-14 10:58:26.903,-69.93,357.41999999999996,65.205,0.643184,-0.477508,-2.380464,4
2024-06-14 10:58:26.908,-57.155,357.84000000000003,77.315,0.6690479999999999,-0.416996,-2.4319479999999998,4
2024-06-14 10:58:26.913,-47.11,361.16499999999996,87.39500000000001,0.705648,-0.340868,-2.480748,4
2024-06-14 10:58:26.918,-40.95,366.31,95.55,0.7688440000000001,-0.25229599999999996,-2.528816,4
2024-06-14 10:58:26.923,-38.745000000000005,372.155,100.87,0.846192,-0.17641199999999999,-2.5695639999999997,4
2024-06-14 10:58:26.928,-40.845,377.755,102.9,0.934276,-0.102968,-2.62666,4
2024-06-14 10:58:26.932,-44.835,383.495,101.64,1.0543239999999998,-0.04514,-2.6901,4
2024-06-14 10:58:26.937,-47.39,387.83500000000004,97.755,1.199992,-0.003904,-2.7428039999999996,4
2024-06-14 10:58:26.942,-45.36,389.935,91.84,1.3681079999999999,0.033672,-2.784772,4
2024-06-14 10:58:26.947,-38.78,389.515,84.91,1.554768,0.062952,-2.806,4
2024-06-14 10:58:26.952,-28.07,385.875,77.63,1.740208,0.08296,-2.80966,4
2024-06-14 10:58:26.957,-14.489999999999998,378.90999999999997,71.225,1.934432,0.11833999999999999,-2.7776959999999997,4
2024-06-14 10:58:26.961,1.1550000000000002,368.9,66.28999999999999,2.1323160000000003,0.17665599999999998,-2.7144999999999997,4
2024-06-14 10:58:26.966,16.240000000000002,355.53,62.86,2.3382519999999998,0.25742,-2.608116,4
2024-06-14 10:58:26.971,28.07,339.08,60.69,2.5339400000000003,0.3538,-2.454152,4
2024-06-14 10:58:26.976,32.83,318.57,59.535,2.7042520000000003,0.449936,-2.270908,4
2024-06-14 10:58:26.981,28.14,294.21000000000004,59.5,2.818444,0.5216719999999999,-2.052772,4
2024-06-14 10:58:26.986,15.715,265.58000000000004,59.22,2.8975,0.6512359999999999,-1.809016,4
2024-06-14 10:58:26.990,-4.62,239.155,56.629999999999995,3.128324,0.840092,-1.5330519999999999,4
2024-06-14 10:58:26.995,-41.125,219.87,52.15,3.5528839999999997,0.8891359999999999,-1.262944,4
2024-06-14 10:58:27.000,-82.075,199.465,32.515,3.936696,0.883524,-0.97966,4
2024-06-14 10:58:27.005,-128.695,176.61,13.475,4.227787999999999,0.743468,-0.873032,4
2024-06-14 10:58:27.010,-176.05,152.91500000000002,-3.675,4.48716,0.36380399999999996,-0.847656,4
2024-06-14 10:58:27.015,-208.88,124.495,-19.18,4.619896,-0.105408,-0.825452,4
2024-06-14 10:58:27.019,-215.635,87.815,-25.479999999999997,4.63478,-0.6031679999999999,-0.8435079999999999,4
2024-06-14 10:58:27.024,-192.325,42.175,-23.485,4.51522,-1.0584719999999999,-0.8781559999999999,4
2024-06-14 10:58:27.029,-141.855,-8.75,-15.085,4.246576,-1.3717679999999999,-0.948672,4
2024-06-14 10:58:27.034,-73.08,-60.305,-2.8,3.8647159999999996,-1.4793720000000001,-1.03334,4
2024-06-14 10:58:27.039,2.205,-105.97999999999999,10.465,3.443328,-1.361276,-1.0760399999999999,4
2024-06-14 10:58:27.044,111.545,-238.98000000000002,27.020000000000003,3.808108,-0.878888,-3.031456,4
