time,gyroscope_x,gyroscope_y,gyroscope_z,accelerometer_x,accelerometer_y,accelerometer_z,phase
2024-06-14 10:58:22.784,215.04000000000002,-425.705,-19.53,6.271775999999999,-0.5648599999999999,-5.694959999999999,1
2024-06-14 10:58:22.789,173.285,-370.825,-42.175,2.1367079999999996,0.25229599999999996,0.750544,1
2024-06-14 10:58:22.794,129.39499999999998,-326.79499999999996,-63.80500000000001,-0.792756,0.18397600000000008,-1.109956,1
2024-06-14 10:58:22.799,241.99,-329.105,-31.36,0.990884,0.401624,-1.573556,1
2024-06-14 10:58:22.803,244.44,-322.90999999999997,-9.8,-0.23204399999999997,0.212036,-2.1184079999999996,1
2024-06-14 10:58:22.808,194.495,-301.525,12.46,-0.27279200000000003,-0.013176,-1.904176,1
2024-06-14 10:58:22.813,170.20499999999998,-292.355,30.450000000000003,-0.16250399999999998,0.069784,-1.66164,1
2024-06-14 10:58:22.818,154.84,-290.325,42.629999999999995,-0.0019520000000000023,0.053191999999999996,-1.77144,1
2024-06-14 10:58:22.823,121.87,-274.82,55.265,0.170068,-0.218136,-1.979816,1
2024-06-14 10:58:22.828,75.005,-252.73499999999999,64.435,0.441884,-0.282552,-1.8841679999999998,1
2024-06-14 10:58:22.832,45.010000000000005,-242.62,63.455,0.437004,-0.47384799999999994,-1.9451680000000002,1
2024-06-14 10:58:22.837,7.595,-207.515,54.915000000000006,0.466528,-0.661972,-1.810724,1
2024-06-14 10:58:22.842,2.24,-195.825,35.525,0.20544799999999996,-0.6788080000000001,-1.69214,1
2024-06-14 10:58:22.847,-4.55,-170.8,16.240000000000002,0.21715999999999996,-0.49751599999999996,-1.67628,1
2024-06-14 10:58:22.852,-6.58,-135.975,-0.5599999999999998,0.17470399999999997,-0.281088,-1.6157679999999999,1
2024-06-14 10:58:22.857,-1.505,-115.85,-10.535,0.10125999999999999,-0.16860399999999998,-1.485716,1
2024-06-14 10:58:22.861,-0.07,-102.27000000000001,-9.8,0.066856,-0.297436,-1.7080000000000002,1
2024-06-14 10:58:22.866,-8.54,-89.985,-4.34,-0.05831600000000001,-0.312076,-1.570384,1
2024-06-14 10:58:22.871,-2.59,-72.625,1.6800000000000002,0.11834,0.10687200000000002,-1.452044,1
2024-06-14 10:58:22.876,2.94,-62.370000000000005,9.73,0.117608,0.345016,-1.24684,1
2024-06-14 10:58:22.881,8.715,-47.04,14.245000000000001,0.071736,0.092476,-1.2553800000000002,1
2024-06-14 10:58:22.886,12.53,-21.105,8.365,0.188856,0.261812,-1.059692,1
2024-06-14 10:58:22.890,22.96,-18.55,5.845000000000001,0.216184,0.326716,-1.005768,1
2024-06-14 10:58:22.895,24.36,-13.195,0.17500000000000004,0.111752,-0.42943999999999993,-1.18096,1
2024-06-14 10:58:22.900,22.645,-7.035,-2.52,0.055632,-0.035624,-1.080188,1
2024-06-14 10:58:22.905,21.665,-6.755,1.12,0.07588400000000001,-0.131272,-1.086532,1
2024-06-14 10:58:22.910,15.61,-6.859999999999999,0.98,0.061488,-0.11834000000000001,-1.079456,1
2024-06-14 10:58:22.915,17.08,-8.365,3.4299999999999997,0.10882399999999999,-0.02562,-1.100196,1
2024-06-14 10:58:22.919,15.155000000000001,-10.254999999999999,1.575,0.068076,-0.11199599999999998,-1.119716,1
2024-06-14 10:58:22.924,15.68,-15.575,0.385,0.057828,-0.073688,-1.113128,2
2024-06-14 10:58:22.929,11.865,-8.4,0.0,0.05319199999999999,-0.08125199999999999,-1.096292,2
2024-06-14 10:58:22.934,6.93,-8.26,-0.034999999999999976,0.018544,-0.094916,-1.069696,2
2024-06-14 10:58:22.939,2.59,-8.434999999999999,0.77,-0.0366,-0.33720800000000006,-1.1101999999999999,2
2024-06-14 10:58:22.944,-2.345,-9.03,-0.595,0.009271999999999999,-0.080276,-1.0748199999999999,2
2024-06-14 10:58:22.948,-4.6899999999999995,-9.835,-0.98,0.020007999999999998,-0.100772,-1.073112,2
2024-06-14 10:58:22.953,-7.5600000000000005,-10.815,-0.8049999999999999,0.016836,-0.076128,-1.0653039999999998,2
2024-06-14 10:58:22.958,-10.115,-13.37,-0.595,0.004636,-0.072712,-1.051152,2
2024-06-14 10:58:22.963,-11.585,-15.82,0.0,-0.015127999999999999,-0.174704,-1.0262639999999998,2
2024-06-14 10:58:22.968,-12.6,-18.515,-1.085,0.013908,-0.044164,-1.0499319999999999,2
2024-06-14 10:58:22.973,-12.915,-21.245,-0.595,-0.0031720000000000003,-0.14493599999999998,-1.0570080000000002,2
2024-06-14 10:58:22.977,-14.805,-24.15,-1.155,0.010004,-0.060023999999999994,-1.0411480000000002,2
2024-06-14 10:58:22.982,-14.98,-26.285,-0.875,0.0017079999999999994,-0.11760799999999999,-1.046028,2
2024-06-14 10:58:22.987,-16.310000000000002,-26.634999999999998,-0.9099999999999999,0.048555999999999995,0.0078079999999999955,-1.0301680000000002,2
2024-06-14 10:58:22.992,-16.765,-26.740000000000002,-0.525,0.021227999999999997,-0.152256,-1.0421239999999998,2
2024-06-14 10:58:22.997,-18.165,-28.244999999999997,-1.155,0.027327999999999998,-0.088572,-1.023092,2
2024-06-14 10:58:23.002,-18.865,-29.225,-0.735,0.020007999999999998,-0.14762,-1.040416,2
2024-06-14 10:58:23.007,-19.075,-30.415,-0.7,0.017079999999999998,-0.12322000000000001,-1.051152,2
2024-06-14 10:58:23.011,-20.545,-31.78,-0.735,-0.002683999999999999,-0.103944,-1.047492,2
2024-06-14 10:58:23.016,-21.42,-32.935,-1.0150000000000001,-0.023180000000000003,-0.144204,-1.0470039999999998,2
2024-06-14 10:58:23.021,-20.16,16.555,-0.35000000000000003,0.045871999999999996,0.020251999999999992,-1.053104,2
2024-06-14 10:58:23.026,-21.91,-34.405,-1.5750000000000002,-0.043188,-0.151524,-1.06262,2
2024-06-14 10:58:23.031,-22.085,-36.4,-0.9099999999999999,0.071248,-0.06514800000000001,-1.040416,2
2024-06-14 10:58:23.036,-22.015,-38.64,-0.49,-0.034159999999999996,-0.097112,-1.0274839999999998,2
2024-06-14 10:58:23.040,-21.28,-39.97,-0.385,0.057095999999999994,0.024399999999999998,-1.0213839999999998,2
2024-06-14 10:58:23.045,-19.845,-41.825,-1.295,0.02684,-0.041968,-1.0299239999999998,2
2024-06-14 10:58:23.050,-17.85,-43.295,-1.47,0.028791999999999998,-0.050263999999999996,-1.0316319999999999,2
2024-06-14 10:58:23.055,-14.35,-54.53,-1.61,0.06832,-0.020251999999999996,-0.9935679999999999,2
2024-06-14 10:58:23.060,-11.34,-45.78,-1.19,0.035623999999999996,-0.00048799999999999885,-0.993568,2
2024-06-14 10:58:23.065,-9.73,-45.08,-1.8900000000000001,0.039528,-0.018299999999999997,-0.9835639999999999,2
2024-06-14 10:58:23.069,-6.65,-45.78,-2.31,0.10028399999999998,-0.02318,-0.951356,2
2024-06-14 10:58:23.074,-6.16,-42.489999999999995,-2.24,0.050508,-0.04148,-0.98088,2
2024-06-14 10:58:23.079,-5.18,-41.65,-1.995,0.037332000000000004,-0.017568,-0.97356,2
2024-06-14 10:58:23.084,-4.76,-39.375,-2.1,0.14152,-0.060756,-0.926712,2
2024-06-14 10:58:23.089,-4.0600000000000005,-37.135000000000005,-2.24,0.090036,-0.030744,-0.955992,2
2024-06-14 10:58:23.094,-3.535,-33.565,-2.7649999999999997,0.10614,-0.102236,-0.9074359999999999,2
2024-06-14 10:58:23.098,-3.115,-34.370000000000005,-1.96,0.10223600000000001,-0.034404,-0.9503799999999999,2
2024-06-14 10:58:23.103,-2.9050000000000002,-33.214999999999996,-2.1,0.09296399999999999,-0.041968,-0.968436,2
2024-06-14 10:58:23.108,-3.255,-32.375,-2.5549999999999997,0.017324000000000003,-0.037576,-0.9774639999999999,2
2024-06-14 10:58:23.113,-3.605,-30.835,-2.5549999999999997,0.19641999999999998,-0.09955199999999999,-0.890112,2
2024-06-14 10:58:23.118,-3.9899999999999998,-33.285,-2.485,0.103944,-0.042212,-0.97844,2
2024-06-14 10:58:23.123,-5.915,-35.0,-2.1,0.106384,-0.044896,-1.0072320000000001,2
2024-06-14 10:58:23.127,-7.42,-37.275000000000006,-2.3449999999999998,0.0915,-0.023668,-1.0250439999999998,2
2024-06-14 10:58:23.132,-8.05,-36.54,-3.3600000000000003,-0.036599999999999994,-0.016348,-1.1006839999999998,2
2024-06-14 10:58:23.137,-7.84,-39.025,-2.5549999999999997,0.118096,0.000732,-1.0274839999999998,2
2024-06-14 10:58:23.142,-7.35,-41.93,-2.59,0.113704,-0.024399999999999998,-1.022604,2
2024-06-14 10:58:23.147,-6.475,-44.205,-3.115,0.11175199999999999,-0.036356,-1.0165039999999999,2
2024-06-14 10:58:23.152,-6.16,-41.72,-3.71,-0.094428,-0.019031999999999993,-1.107516,2
2024-06-14 10:58:23.156,-6.16,-46.725,-2.6950000000000003,0.141276,0.004392,-1.0218720000000001,2
2024-06-14 10:58:23.161,-5.635,-47.81,-2.6950000000000003,0.134932,-0.024156,-1.02602,2
2024-06-14 10:58:23.166,-0.7,-52.885000000000005,-3.115,0.029524,0.071492,-1.0906799999999999,2
2024-06-14 10:58:23.171,-0.21000000000000008,-33.74,-2.73,0.040992000000000015,-0.066612,-1.054568,2
2024-06-14 10:58:23.176,2.52,-39.55,-1.365,0.157136,-0.02928,-0.997472,2
2024-06-14 10:58:23.181,-3.8150000000000004,-39.97,-2.5549999999999997,0.004635999999999994,0.047091999999999995,-1.046028,2
2024-06-14 10:58:23.185,-2.0999999999999996,-42.21,-3.78,0.0854,-0.10931199999999999,-1.04066,2
2024-06-14 10:58:23.190,-0.98,-46.305,-4.095000000000001,0.152012,-0.016348,-1.013088,2
2024-06-14 10:58:23.195,0.595,-46.935,-3.08,0.14932800000000002,-0.016836,-1.0262639999999998,2
2024-06-14 10:58:23.200,0.595,-48.230000000000004,-2.835,0.158112,-0.022692,-1.046028,2
2024-06-14 10:58:23.205,2.3449999999999998,-50.33,-3.5700000000000003,0.16250399999999998,-0.026596,-1.061156,2
2024-06-14 10:58:23.210,7.209999999999999,-51.38,-4.095,0.16909199999999996,-0.0009759999999999999,-1.047492,2
2024-06-14 10:58:23.217,8.540000000000001,-52.22,-3.7800000000000002,0.164212,-0.117364,-1.0248,2
2024-06-14 10:58:23.221,11.305,-55.79,-2.73,0.207644,-0.027572,-1.084824,2
2024-06-14 10:58:23.226,9.695,-53.41,-3.29,0.18592799999999998,-0.031964,-1.058716,2
2024-06-14 10:58:23.231,0.03500000000000002,-47.74,-2.905,0.20617999999999997,-0.017324,-1.089704,2
2024-06-14 10:58:23.236,-1.435,-49.209999999999994,-1.995,0.145424,-0.087108,-1.1834,2
2024-06-14 10:58:23.241,0.9100000000000001,-53.165,0.10499999999999998,0.20862,-0.12151200000000001,-1.146556,3
2024-06-14 10:58:23.245,6.335,-57.365,1.26,0.19910399999999998,-0.127856,-1.092632,3
2024-06-14 10:58:23.250,38.045,-63.14,3.605,0.199836,-0.05246,-1.30418,3
2024-06-14 10:58:23.255,18.060000000000002,-63.56,3.535,0.167872,-0.086376,-1.077016,3
2024-06-14 10:58:23.260,-16.695,-67.83000000000001,3.3600000000000003,0.202032,-0.070272,-1.2258559999999998,3
2024-06-14 10:58:23.265,-25.200000000000003,-76.93,4.13,0.191052,-0.10736000000000001,-1.18218,3
2024-06-14 10:58:23.270,-29.435000000000002,-83.055,4.9,0.205936,-0.07075999999999999,-1.23342,3
2024-06-14 10:58:23.274,-36.084999999999994,-86.555,5.390000000000001,0.24522,-0.09759999999999999,-1.279048,3
2024-06-14 10:58:23.279,-38.325,-92.505,6.72,0.22447999999999999,-0.105652,-1.205116,3
2024-06-14 10:58:23.284,-40.879999999999995,-98.10499999999999,8.085,0.230824,-0.11882799999999999,-1.251476,3
2024-06-14 10:58:23.289,-46.269999999999996,-101.00999999999999,9.8,0.24522,-0.12444,-1.305156,3
2024-06-14 10:58:23.294,-50.015,-102.515,11.375,0.24644,-0.11638799999999999,-1.2866119999999999,3
2024-06-14 10:58:23.298,-52.605000000000004,-106.19,13.055,0.24570799999999998,-0.134932,-1.308816,3
2024-06-14 10:58:23.303,-54.144999999999996,-111.3,14.665,0.22350399999999998,-0.108824,-1.317356,3
2024-06-14 10:58:23.308,-60.165000000000006,-115.71000000000001,15.82,0.27059599999999995,-0.10345599999999999,-1.388604,3
2024-06-14 10:58:23.313,-61.67,-122.5,16.555,0.226188,-0.037088,-1.366644,3
2024-06-14 10:58:23.318,-59.36,-130.375,16.625,0.241072,-0.041235999999999995,-1.3527360000000002,3
2024-06-14 10:58:23.323,-56.56,-136.04500000000002,17.08,0.24034,-0.01586,-1.447652,3
2024-06-14 10:58:23.327,-57.540000000000006,-148.61,16.345,0.23448400000000003,0.032452,-1.437892,3
2024-06-14 10:58:23.332,-51.065,-160.055,15.190000000000001,0.23155599999999998,0.058072,-1.4888879999999998,3
2024-06-14 10:58:23.337,-50.995,-173.635,13.405,0.22399199999999997,0.07808000000000001,-1.5154839999999998,3
2024-06-14 10:58:23.342,-50.75,-187.04,11.27,0.228628,0.08588799999999999,-1.50792,3
2024-06-14 10:58:23.347,-49.21,-201.04,8.96,0.215696,0.11858399999999998,-1.475468,3
2024-06-14 10:58:23.351,-47.95,-213.5,5.74,0.215452,0.133224,-1.596492,3
2024-06-14 10:58:23.356,-46.165,-227.60500000000002,2.87,0.214964,0.101748,-1.627236,3
2024-06-14 10:58:23.361,-45.43,-243.32,0.315,0.220576,0.08662,-1.718004,3
2024-06-14 10:58:23.366,-47.425,-257.81,-2.38,0.22326000000000001,0.111264,-1.839516,3
2024-06-14 10:58:23.371,-46.445,-273.56,-5.95,0.223016,0.151524,-2.010316,3
2024-06-14 10:58:23.376,-43.155,-292.565,-8.89,0.26205599999999996,0.144448,-2.01788,3
2024-06-14 10:58:23.380,-42.63,-312.06,-12.95,0.26913200000000004,0.20984000000000003,-2.224548,3
2024-06-14 10:58:23.385,-39.375,-333.515,-17.92,0.203496,0.278404,-2.2489479999999995,3
2024-06-14 10:58:23.390,-36.435,-357.14,-23.765,0.1281,0.33476799999999995,-2.166964,3
2024-06-14 10:58:23.395,-33.495,-383.67,-29.365000000000002,0.142984,0.306952,-2.198928,3
2024-06-14 10:58:23.400,-30.485,-411.42499999999995,-32.9,0.241072,0.294508,-2.490996,3
2024-06-14 10:58:23.404,-29.715,-438.935,-34.79,0.271084,0.352336,-2.724748,3
2024-06-14 10:58:23.409,-29.4,-465.85,-37.519999999999996,0.337208,0.39845200000000003,-2.862608,3
2024-06-14 10:58:23.414,-30.835,-490.90999999999997,-39.375,0.379664,0.300364,-3.108804,3
2024-06-14 10:58:23.419,-33.425,-509.6,-39.44499999999999,0.45994,0.275964,-3.172732,3
2024-06-14 10:58:23.424,-43.925,-522.27,-37.415,0.5504640000000001,0.23057999999999995,-3.3237680000000003,3
2024-06-14 10:58:23.429,-56.595,-527.6949999999999,-34.019999999999996,0.567544,0.152256,-3.0590279999999996,3
2024-06-14 10:58:23.433,-69.825,-527.2750000000001,-35.7,0.503128,0.07808,-2.7227959999999998,3
2024-06-14 10:58:23.438,-82.775,-528.22,-40.425,0.535092,-0.113216,-2.953132,4
2024-06-14 10:58:23.443,-72.20500000000001,-522.515,-34.475,0.483852,-0.230092,-3.2754559999999997,4
2024-06-14 10:58:23.448,-58.205,-516.425,-32.865,0.269864,-0.010979999999999997,-3.3752519999999997,4
2024-06-14 10:58:23.453,-41.230000000000004,-515.235,-40.739999999999995,0.36648800000000004,0.218868,-3.09026,4
2024-06-14 10:58:23.457,-24.5,-516.285,-45.115,0.04001600000000001,0.213012,-3.401116,4
2024-06-14 10:58:23.462,-20.055,-510.65,-49.735,-0.30841599999999997,0.31012399999999996,-2.818444,4
2024-06-14 10:58:23.467,-2.6249999999999996,-495.53,-53.864999999999995,-0.692472,0.43407599999999996,-1.7733919999999999,4
2024-06-14 10:58:23.472,25.305,-460.145,-54.005,-1.37982,0.515572,-0.7015,4
2024-06-14 10:58:23.477,6.4750000000000005,-395.15,-59.71,-1.857084,0.9289079999999998,-1.2334200000000002,4
2024-06-14 10:58:23.482,-13.72,-310.73,-78.08500000000001,-1.78242,1.299544,-1.32614,4
2024-06-14 10:58:23.486,-30.17,-258.02,-100.87,-1.411296,1.1651,-1.5981999999999998,4
2024-06-14 10:58:23.491,-54.040000000000006,-191.59,-112.28,-1.7699759999999998,0.6812479999999999,-1.755824,4
2024-06-14 10:58:23.496,-86.44999999999999,-121.87,-114.8,-1.1175199999999998,0.291336,-1.339072,4
2024-06-14 10:58:23.501,-75.565,-94.08,-101.08,-0.7668919999999999,0.052216,-0.9088999999999999,4
2024-06-14 10:58:23.506,-50.120000000000005,-22.575,-82.215,-1.427644,-0.07783599999999999,-1.3673760000000001,4
2024-06-14 10:58:23.510,-18.375,50.81999999999999,-61.95,-1.9488280000000002,-0.13273600000000002,-1.20414,4
2024-06-14 10:58:23.515,15.365,105.42,-40.915000000000006,-1.9746920000000001,-0.20129999999999998,-1.056276,4
2024-06-14 10:58:23.520,49.769999999999996,145.67000000000002,-22.855,-1.604056,-0.22106399999999998,-1.03212,4
2024-06-14 10:58:23.525,78.05,167.09,-12.530000000000001,-1.2634319999999999,-0.145912,-1.044076,4
2024-06-14 10:58:23.530,100.065,175.98000000000002,-9.1,-1.143872,-0.0014639999999999966,-1.02114,4
2024-06-14 10:58:23.535,113.505,182.105,-8.75,-1.171932,0.15079199999999998,-0.9298839999999999,4
2024-06-14 10:58:23.539,116.97,190.26,-9.555,-1.2092640000000001,0.28791999999999995,-0.7920240000000001,4
2024-06-14 10:58:23.544,111.335,199.78,-11.795,-1.1909640000000001,0.39479200000000003,-0.68198,4
2024-06-14 10:58:23.549,97.16,210.28,-16.625,-1.1336240000000002,0.47848399999999996,-0.638548,4
2024-06-14 10:58:23.554,75.565,222.285,-24.08,-1.0640839999999998,0.542656,-0.630984,4
2024-06-14 10:58:23.559,49.21,236.70499999999998,-32.795,-1.0157720000000001,0.5641280000000001,-0.620736,4
2024-06-14 10:58:23.563,21.91,253.505,-41.405,-0.9835639999999999,0.5363119999999999,-0.6178079999999999,4
2024-06-14 10:58:23.568,-3.57,271.565,-49.035,-0.954772,0.46677199999999996,-0.627568,4
2024-06-14 10:58:23.573,-24.71,290.395,-55.019999999999996,-0.906948,0.355508,-0.6500159999999999,4
2024-06-14 10:58:23.578,-40.39,308.455,-59.045,-0.85156,0.23326399999999997,-0.691252,4
2024-06-14 10:58:23.583,-49.28,324.975,-60.97,-0.781776,0.11663200000000001,-0.743224,4
2024-06-14 10:58:23.588,-51.24,339.22,-60.445,-0.697596,0.016103999999999997,-0.7991,4
2024-06-14 10:58:23.592,-47.355000000000004,350.665,-57.575,-0.615368,-0.072468,-0.848876,4
2024-06-14 10:58:23.597,-39.69,359.135,-52.64,-0.537288,-0.151524,-0.88938,4
2024-06-14 10:58:23.602,-30.134999999999998,365.75,-45.955,-0.470188,-0.20251999999999998,-0.919392,4
2024-06-14 10:58:23.607,-19.285,370.405,-37.905,-0.410408,-0.21984399999999998,-0.94672,4
2024-06-14 10:58:23.612,-7.63,373.275,-29.189999999999998,-0.360632,-0.211792,-0.981368,4
2024-06-14 10:58:23.617,2.0999999999999996,374.815,-20.72,-0.316224,-0.183,-1.0201639999999998,4
2024-06-14 10:58:23.621,7.35,376.425,-13.125,-0.28133199999999997,-0.13639600000000002,-1.0653039999999998,4
2024-06-14 10:58:23.626,8.26,378.315,-6.79,-0.254004,-0.08247199999999999,-1.106052,4
2024-06-14 10:58:23.631,6.16,380.345,-1.7149999999999999,-0.227408,-0.034648,-1.151436,4
2024-06-14 10:58:23.636,1.505,381.675,1.9949999999999999,-0.208864,0.005856000000000001,-1.2087759999999999,4
2024-06-14 10:58:23.641,-5.425,382.795,4.41,-0.18836799999999998,0.038064,-1.2744119999999999,4
2024-06-14 10:58:23.645,-14.105,383.46,5.88,-0.166408,0.063196,-1.3393159999999997,4
2024-06-14 10:58:23.650,-24.325,383.81,6.615,-0.157136,0.07539599999999999,-1.41642,4
2024-06-14 10:58:23.655,-35.07,383.775,6.720000000000001,-0.136396,0.09174399999999999,-1.4874239999999999,4
2024-06-14 10:58:23.660,-46.585,385.0,5.775,-0.097112,0.0854,-1.5376879999999997,4
2024-06-14 10:58:23.665,-59.045,387.45,4.025,-0.069296,0.06588,-1.604788,4
2024-06-14 10:58:23.670,-70.525,390.495,2.45,-0.033184,0.035379999999999995,-1.6823800000000002,4
2024-06-14 10:58:23.674,-80.36,394.065,0.98,0.016104,-0.010247999999999998,-1.7580200000000001,4
2024-06-14 10:58:23.679,-87.64,397.705,0.77,0.064172,-0.076372,-1.8356119999999998,4
2024-06-14 10:58:23.684,-92.015,400.89,1.82,0.10467599999999999,-0.14761999999999997,-1.9222320000000002,4
2024-06-14 10:58:23.689,-92.68,403.235,4.655,0.14883999999999997,-0.210084,-2.00324,4
2024-06-14 10:58:23.694,-90.3,404.28499999999997,9.379999999999999,0.195444,-0.274256,-2.080832,4
2024-06-14 10:58:23.698,-85.64500000000001,404.17999999999995,15.75,0.24278,-0.311832,-2.1642799999999998,4
2024-06-14 10:58:23.703,-79.66,403.13,23.310000000000002,0.304512,-0.335012,-2.2482159999999998,4
2024-06-14 10:58:23.708,-74.025,401.41499999999996,31.255000000000003,0.36648800000000004,-0.33940399999999993,-2.33264,4
2024-06-14 10:58:23.713,-69.125,399.21000000000004,39.165,0.44042000000000003,-0.338916,-2.416576,4
2024-06-14 10:58:23.718,-64.36500000000001,396.375,46.97,0.519476,-0.340624,-2.495388,4
2024-06-14 10:58:23.723,-58.31,392.90999999999997,54.95,0.5953599999999999,-0.341356,-2.558096,4
2024-06-14 10:58:23.727,-49.875,389.27,63.735,0.660508,-0.337696,-2.627636,4
2024-06-14 10:58:23.732,-38.78,385.665,73.22,0.7198,-0.33110799999999996,-2.693272,4
2024-06-14 10:58:23.737,-25.55,382.40999999999997,83.16,0.7839719999999999,-0.29670399999999997,-2.748172,4
2024-06-14 10:58:23.742,-10.675,379.78499999999997,92.925,0.846192,-0.24278,-2.7872120000000002,4
2024-06-14 10:58:23.747,4.445,378.385,101.99,0.93574,-0.15298799999999999,-2.7847720000000002,4
2024-06-14 10:58:23.751,15.715,377.72,108.85,1.0060120000000001,-0.022448,-2.7511,4
2024-06-14 10:58:23.756,13.685,378.14,111.65,1.069208,0.12297599999999999,-2.778428,4
2024-06-14 10:58:23.761,1.085,381.885,110.25,1.2004799999999998,0.25205199999999994,-2.797948,4
2024-06-14 10:58:23.767,-10.745000000000001,384.125,105.84,1.376404,0.312076,-2.79624,4
2024-06-14 10:58:23.772,-16.275,382.69,100.24,1.574532,0.308172,-2.788188,4
2024-06-14 10:58:23.777,-13.895,377.615,95.41,1.764608,0.282552,-2.7694,4
2024-06-14 10:58:23.781,-4.76,368.13,92.61,1.9522439999999999,0.273524,-2.71938,4
2024-06-14 10:58:23.786,9.415,354.48,91.875,2.136708,0.289628,-2.6308079999999996,4
2024-06-14 10:58:23.791,25.865000000000002,337.78499999999997,93.03,2.307508,0.33818400000000004,-2.491728,4
2024-06-14 10:58:23.796,38.78,318.22,94.43,2.457812,0.42236399999999996,-2.308972,4
2024-06-14 10:58:23.801,44.519999999999996,296.52,94.28999999999999,2.5529719999999996,0.550464,-2.103524,4
2024-06-14 10:58:23.805,39.34,271.95,91.7,2.640568,0.714676,-1.888804,4
2024-06-14 10:58:23.810,18.165,249.375,84.56,2.870172,0.901092,-1.694092,4
2024-06-14 10:58:23.815,-18.759999999999998,233.485,75.39,3.173464,1.1346,-1.50548,4
2024-06-14 10:58:23.820,-58.17,215.985,56.595,3.6624399999999997,1.0606679999999997,-1.339072,4
2024-06-14 10:58:23.825,-94.745,194.25,27.894999999999996,3.979152,1.0482239999999998,-1.171444,4
2024-06-14 10:58:23.829,-130.025,171.57,3.3249999999999997,4.283908,0.7868999999999999,-1.048468,4
2024-06-14 10:58:23.834,-157.43,144.69,-19.53,4.510828,0.374784,-0.9742919999999999,4
2024-06-14 10:58:23.839,-169.32999999999998,110.845,-36.435,4.58964,-0.072956,-0.9330559999999999,4
2024-06-14 10:58:23.844,-160.89499999999998,71.26,-44.379999999999995,4.571339999999999,-0.5309440000000001,-0.936472,4
2024-06-14 10:58:23.849,-130.865,27.755000000000003,-44.8,4.414935999999999,-0.8976759999999999,-0.972584,4
2024-06-14 10:58:23.853,-80.57,-14.49,-39.2,4.135312,-1.124352,-0.985516,4
2024-06-14 10:58:23.858,-17.395,-52.01,-29.715000000000003,3.790296,-1.163148,-0.97112,4
2024-06-14 10:58:23.863,47.285,-82.285,-19.915,3.3708600000000004,-0.9638,-0.995764,4
2024-06-14 10:58:23.868,154.77,-361.16499999999996,-12.6,6.332776,-0.25058800000000003,-4.2248600000000005,0
