time,gyroscope_x,gyroscope_y,gyroscope_z,accelerometer_x,accelerometer_y,accelerometer_z,phase
2024-06-14 11:42:11.075,-494.34,-453.25,56.07,5.380688,7.395639999999999,-8.509744000000001,1
2024-06-14 11:42:11.079,-307.79,-407.82,14.14,0.27913599999999994,-1.6133279999999999,0.7095520000000001,1
2024-06-14 11:42:11.084,-586.11,-345.38,-8.26,-0.625616,0.199592,-2.130608,1
2024-06-14 11:42:11.089,-383.11,-237.23,-31.71,-0.018056000000000003,-1.487424,-1.37616,1
2024-06-14 11:42:11.094,-270.55,-227.99,-66.22,-2.0549679999999997,1.432768,-1.9349199999999998,1
2024-06-14 11:42:11.099,-186.06,-259.28,-108.71,-0.644648,0.005856,-1.295152,1
2024-06-14 11:42:11.103,-114.24,-340.2,-127.26,-0.723216,-0.188368,-1.226832,1
2024-06-14 11:42:11.108,-80.57,-386.96,-133.0,0.14347200000000002,0.487024,-1.8665999999999998,1
2024-06-14 11:42:11.113,-119.0,-394.87,-130.62,0.715408,0.47677600000000003,-3.2071359999999998,1
2024-06-14 11:42:11.118,-88.48,-334.25,-108.01,0.678808,1.328824,-3.560448,1
2024-06-14 11:42:11.123,-52.08,-277.55,-83.72,0.5514399999999999,0.671488,-2.585912,1
2024-06-14 11:42:11.128,-32.55,-232.26,-59.85,0.306952,0.449936,-2.713768,1
2024-06-14 11:42:11.132,-61.67,-131.18,-39.48,0.603656,0.71004,-2.981192,1
2024-06-14 11:42:11.137,-16.8,-10.71,-8.82,0.574376,0.14005599999999999,-1.875384,1
2024-06-14 11:42:11.142,-9.52,-14.28,-15.33,-0.177144,-0.16348,-1.2507439999999999,1
2024-06-14 11:42:11.147,-14.21,-28.0,-31.08,0.35136,0.025376,-1.69336,1
2024-06-14 11:42:11.152,-20.09,-44.45,-35.42,0.41821600000000003,-0.225456,-1.6348,2
2024-06-14 11:42:11.157,-29.12,-49.49,-37.94,0.172264,0.058072,-1.4454559999999999,2
2024-06-14 11:42:11.161,-30.94,-47.67,-29.54,-0.069296,0.05368,-1.121424,2
2024-06-14 11:42:11.166,-31.36,-40.67,-17.78,-0.03904,0.113216,-1.021384,2
2024-06-14 11:42:11.171,-25.34,-33.67,-9.59,-0.004391999999999999,0.17275200000000002,-0.9901519999999999,2
2024-06-14 11:42:11.176,-13.51,-24.71,-8.82,0.003904,0.189832,-1.0126,2
2024-06-14 11:42:11.181,-7.63,-16.38,-10.71,0.038064,0.040992,-1.00284,2
2024-06-14 11:42:11.185,-10.43,-9.73,-9.24,0.08003199999999999,-0.095648,-1.091168,2
2024-06-14 11:42:11.190,-16.87,-6.51,-6.23,0.02196,-0.076128,-1.089216,2
2024-06-14 11:42:11.195,-20.16,-3.29,-4.41,-0.053192,0.02196,-1.075064,2
2024-06-14 11:42:11.200,-17.99,-1.82,-3.92,-0.06490399999999999,0.06831999999999999,-1.103856,2
2024-06-14 11:42:11.205,-12.88,-2.94,-3.5,-0.036112000000000005,0.08491199999999999,-1.148264,2
2024-06-14 11:42:11.210,-6.44,-5.11,-3.01,-0.029768,0.08295999999999999,-1.158024,2
2024-06-14 11:42:11.214,-0.21,-7.63,-2.73,-0.049288,0.06831999999999999,-1.1380160000000001,2
2024-06-14 11:42:11.219,4.13,-12.53,-2.59,-0.077104,0.041968,-1.11752,2
2024-06-14 11:42:11.224,6.16,-20.72,-2.38,-0.10394400000000001,0.011224,-1.121912,2
2024-06-14 11:42:11.229,6.37,-28.98,-1.96,-0.09955199999999999,-0.00244,-1.1253279999999999,2
2024-06-14 11:42:11.234,6.37,-35.49,-1.47,-0.085888,0.018544,-1.113128,2
2024-06-14 11:42:11.239,7.7,-40.6,-1.47,-0.072712,0.062464,-1.098,2
2024-06-14 11:42:11.243,11.13,-43.54,-1.89,-0.059048,0.06783199999999999,-1.091656,2
2024-06-14 11:42:11.248,14.77,-44.38,-2.1,-0.05124,0.050263999999999996,-1.10776,2
2024-06-14 11:42:11.253,17.22,-45.85,-1.68,-0.055632,0.012199999999999999,-1.121912,2
2024-06-14 11:42:11.258,17.15,-47.81,-1.26,-0.060512,-0.01952,-1.111664,2
2024-06-14 11:42:11.263,15.4,-48.93,-0.77,-0.052704,-0.028791999999999998,-1.110688,2
2024-06-14 11:42:11.267,13.3,-50.19,-0.07,-0.06978399999999998,-0.008783999999999998,-1.077016,2
2024-06-14 11:42:11.272,11.76,-50.33,0.28,-0.041479999999999996,-0.013663999999999999,-1.077016,2
2024-06-14 11:42:11.277,9.31,-49.56,-0.07,0.008783999999999998,0.001952,-1.096536,2
2024-06-14 11:42:11.282,9.17,-50.33,0.0,-0.031232,0.028304,-1.054568,2
2024-06-14 11:42:11.287,6.86,-53.9,0.21,-0.025864,0.003904,-1.0692080000000002,2
2024-06-14 11:42:11.292,3.85,-55.65,-1.4,0.08491199999999999,0.004391999999999999,-1.092632,2
2024-06-14 11:42:11.296,10.99,-57.33,-2.24,-0.028304,0.046848,-1.074088,2
2024-06-14 11:42:11.301,7.28,-58.17,-2.73,-0.06588,0.024887999999999997,-1.016016,2
2024-06-14 11:42:11.306,4.41,-63.14,-2.38,-0.0366,-0.001952,-1.045296,2
2024-06-14 11:42:11.311,9.24,-57.19,-1.68,0.014152,-0.005856,-1.015528,2
2024-06-14 11:42:11.316,4.76,-59.15,-1.96,0.092232,-0.010248,-1.05408,2
2024-06-14 11:42:11.321,6.51,-61.67,-2.24,0.04392,-0.023424,-1.074088,2
2024-06-14 11:42:11.325,13.51,-52.29,-0.49,0.0,-0.022448,-1.090192,2
2024-06-14 11:42:11.330,9.8,-56.28,0.28,-0.003904,-0.048312,-1.101416,2
2024-06-14 11:42:11.335,12.11,-54.95,2.45,0.08295999999999999,-0.022448,-1.071648,2
2024-06-14 11:42:11.340,8.26,-55.51,3.22,0.006344,-0.07027199999999999,-1.050176,2
2024-06-14 11:42:11.345,5.74,-54.32,3.71,0.0366,-0.040015999999999996,-1.071648,2
2024-06-14 11:42:11.349,4.55,-53.83,3.64,0.040504,-0.045384,-1.050664,2
2024-06-14 11:42:11.354,0.35,-62.16,3.29,0.05368,-0.01952,-1.053104,2
2024-06-14 11:42:11.359,-6.16,-54.95,3.43,0.035135999999999994,0.01952,-1.121912,2
2024-06-14 11:42:11.364,-7.14,-53.41,3.29,0.045384,-0.022936,-1.068232,2
2024-06-14 11:42:11.369,-9.03,-53.55,3.78,0.054655999999999996,0.02684,-1.0857999999999999,2
2024-06-14 11:42:11.374,-4.48,-52.85,3.92,0.052216,0.013176,-1.1165439999999998,2
2024-06-14 11:42:11.378,3.29,-52.64,4.69,0.06539199999999999,-0.027816,-1.099952,2
2024-06-14 11:42:11.383,2.87,-51.87,5.81,0.06588,-0.005368,-1.103368,2
2024-06-14 11:42:11.388,-1.75,-52.85,5.46,0.06734399999999999,0.044408,-1.126792,2
2024-06-14 11:42:11.393,-5.18,-52.99,4.76,0.08052,0.009272,-1.089216,2
2024-06-14 11:42:11.398,-4.55,-53.13,4.97,0.09516,0.015616,-1.07848,2
2024-06-14 11:42:11.403,-6.86,-53.48,4.9,0.09516,0.00488,-1.06384,2
2024-06-14 11:42:11.407,-9.17,-53.27,5.32,0.09028,-0.018056000000000003,-1.072624,2
2024-06-14 11:42:11.412,-7.28,-51.03,6.58,0.093208,-0.018056000000000003,-1.0438319999999999,2
2024-06-14 11:42:11.417,-9.52,-50.4,6.93,0.098576,-0.02684,-1.0560319999999999,2
2024-06-14 11:42:11.422,-12.25,-51.17,7.63,0.092232,-0.055632,-1.050176,2
2024-06-14 11:42:11.427,-14.98,-52.43,8.82,0.098088,-0.07564,-1.060912,2
2024-06-14 11:42:11.428,-16.73,-53.55,10.71,0.096624,-0.085888,-1.084336,2
2024-06-14 11:42:11.432,-18.83,-55.09,11.9,0.10492,-0.022448,-1.111176,2
2024-06-14 11:42:11.437,-22.61,-58.66,12.18,0.108336,-0.002928,-1.1204479999999999,2
2024-06-14 11:42:11.442,-26.04,-63.14,12.04,0.124928,-0.024399999999999998,-1.116056,3
2024-06-14 11:42:11.447,-28.35,-65.24,13.02,0.116144,-0.046848,-1.109712,3
2024-06-14 11:42:11.452,-28.14,-66.92,13.02,0.13176,0.073688,-1.16144,3
2024-06-14 11:42:11.457,-31.36,-71.75,11.69,0.142984,-0.014152,-1.18096,3
2024-06-14 11:42:11.461,-28.77,-73.5,12.25,0.14396,0.044896,-1.18096,3
2024-06-14 11:42:11.466,-26.53,-74.69,11.41,0.1464,0.041968,-1.19804,3
2024-06-14 11:42:11.471,-24.57,-77.28,10.85,0.154696,0.074176,-1.202432,3
2024-06-14 11:42:11.476,-19.39,-79.8,9.45,0.152744,0.184952,-1.23952,3
2024-06-14 11:42:11.481,-17.99,-82.04,6.16,0.16006399999999998,0.17519200000000001,-1.285392,3
2024-06-14 11:42:11.486,-15.75,-84.07,3.5,0.16982399999999997,0.156648,-1.286368,3
2024-06-14 11:42:11.490,-8.68,-86.59,1.54,0.166896,0.157624,-1.265872,3
2024-06-14 11:42:11.495,-2.1,-88.2,-0.49,0.17812,0.195688,-1.263432,3
2024-06-14 11:42:11.500,3.08,-89.88,-2.87,0.18788,0.145424,-1.262944,3
2024-06-14 11:42:11.505,9.59,-90.93,-4.55,0.188368,0.14884,-1.269288,3
2024-06-14 11:42:11.510,15.12,-91.98,-6.09,0.19666399999999998,0.15128,-1.26636,3
2024-06-14 11:42:11.515,19.95,-93.8,-7.56,0.190808,0.142984,-1.331752,3
2024-06-14 11:42:11.519,24.78,-97.65,-8.89,0.19666399999999998,0.090768,-1.38348,3
2024-06-14 11:42:11.524,26.6,-107.03,-9.59,0.195688,0.07808,-1.469368,3
2024-06-14 11:42:11.529,27.23,-112.21,-9.94,0.19032,0.045384,-1.495232,3
2024-06-14 11:42:11.534,31.15,-117.46,-9.66,0.18056,0.048799999999999996,-1.4747359999999998,3
2024-06-14 11:42:11.539,30.94,-125.44,-9.87,0.18544,0.062464,-1.473272,3
2024-06-14 11:42:11.544,32.06,-135.24,-10.43,0.193736,0.07808,-1.446432,3
2024-06-14 11:42:11.549,27.3,-154.42,-12.04,0.18934399999999998,0.122976,-1.587952,3
2024-06-14 11:42:11.553,38.78,-154.63,-12.39,0.198616,0.090768,-1.60552,3
2024-06-14 11:42:11.558,43.26,-162.47,-12.18,0.171776,0.05124,-1.595272,3
2024-06-14 11:42:11.563,33.95,-188.86,-13.23,0.150304,0.033671999999999994,-1.81292,3
2024-06-14 11:42:11.568,35.35,-193.62,-12.11,0.142984,-0.09272,-1.863184,3
2024-06-14 11:42:11.573,30.52,-202.44,-8.4,0.127856,-0.190808,-2.161352,3
2024-06-14 11:42:11.578,26.39,-225.89,-4.83,0.08295999999999999,-0.172264,-1.968592,3
2024-06-14 11:42:11.582,21.91,-255.71,-3.15,0.102968,-0.12444,-2.085224,3
2024-06-14 11:42:11.587,23.38,-281.19,-0.56,0.08539999999999999,-0.16835999999999998,-2.2291839999999996,3
2024-06-14 11:42:11.592,24.01,-295.05,3.57,0.081008,-0.23033599999999999,-2.2360160000000002,3
2024-06-14 11:42:11.597,21.56,-322.35,7.91,0.096136,-0.183488,-2.207224,3
2024-06-14 11:42:11.602,26.32,-348.6,10.29,0.064416,-0.033184,-2.6044560000000003,3
2024-06-14 11:42:11.607,22.12,-376.39,10.92,0.02928,-0.1098,-2.730848,3
2024-06-14 11:42:11.611,21.84,-416.36,13.3,-0.034159999999999996,-0.305,-2.789408,3
2024-06-14 11:42:11.616,22.96,-434.63,20.02,0.017079999999999998,-0.384056,-3.209088,3
2024-06-14 11:42:11.621,15.33,-442.68,26.6,-0.030256,-0.421144,-3.38184,3
2024-06-14 11:42:11.626,17.29,-477.33,29.26,-0.047824,-0.604632,-3.3998959999999996,3
2024-06-14 11:42:11.631,36.54,-512.75,38.64,-0.10248,-1.024312,-3.663904,3
2024-06-14 11:42:11.636,46.97,-544.81,56.56,0.023912,-0.91012,-3.666832,3
2024-06-14 11:42:11.641,57.4,-572.53,66.64,-0.0034159999999999998,-0.594872,-3.86252,3
2024-06-14 11:42:11.645,66.85,-591.22,70.91,-0.040015999999999996,-0.5773039999999999,-3.777608,3
2024-06-14 11:42:11.650,78.19,-608.23,78.96,-0.014152,-0.567056,-3.779072,3
2024-06-14 11:42:11.655,97.3,-618.8,83.23,0.382104,-0.487512,-4.330024000000001,3
2024-06-14 11:42:11.660,131.6,-624.54,86.1,0.158112,-0.7500560000000001,-4.93856,3
2024-06-14 11:42:11.665,149.59,-626.01,98.56,0.179096,-1.107272,-5.09228,3
2024-06-14 11:42:11.670,143.85,-625.1,117.25,0.039528,-1.1546079999999999,-4.900983999999999,3
2024-06-14 11:42:11.674,150.78,-601.79,142.38,-0.877912,-1.103856,-3.9269359999999995,4
2024-06-14 11:42:11.679,171.64,-562.38,165.27,-2.0183679999999997,-1.066768,-3.4384479999999997,4
2024-06-14 11:42:11.684,185.43,-522.83,185.64,-2.297504,-1.083848,-2.860656,4
2024-06-14 11:42:11.689,161.91,-505.19,205.17,-2.436096,-1.345904,-2.630808,4
2024-06-14 11:42:11.694,99.68,-503.02,206.57,-2.323368,-1.139968,-2.37168,4
2024-06-14 11:42:11.699,12.53,-542.43,187.46,-1.2561120000000001,-0.58072,-0.6944239999999999,4
2024-06-14 11:42:11.703,-61.88,-536.76,143.99,-1.470344,-0.037088,-0.769576,4
2024-06-14 11:42:11.708,-74.9,-362.32,80.71,-1.874896,-0.121512,-0.310368,4
2024-06-14 11:42:11.713,-36.12,-215.88,59.43,-2.3111680000000003,-0.39039999999999997,1.16144,4
2024-06-14 11:42:11.718,-3.64,-119.91,19.53,-2.45952,-0.75152,-2.9016480000000002,4
2024-06-14 11:42:11.723,-44.24,14.28,-35.35,-1.989576,-0.412848,-0.9916159999999999,4
2024-06-14 11:42:11.728,-73.08,98.42,-82.81,-1.733376,-0.016592,-1.0394400000000001,4
2024-06-14 11:42:11.733,-96.53,160.16,-122.5,-1.570384,0.033184,-1.170712,4
2024-06-14 11:42:11.737,-128.59,199.29,-150.78,-1.4156879999999998,-0.148352,-1.321016,4
2024-06-14 11:42:11.742,-152.67,213.08,-168.21,-1.265384,-0.23472800000000002,-1.4356959999999999,4
2024-06-14 11:42:11.747,-169.26,212.8,-179.55,-1.150704,-0.25473599999999996,-1.41032,4
2024-06-14 11:42:11.752,-181.86,209.16,-186.97,-1.076528,-0.294752,-1.22,4
2024-06-14 11:42:11.757,-184.66,206.01,-190.89,-1.029192,-0.34745600000000004,-0.9964959999999999,4
2024-06-14 11:42:11.762,-182.42,207.55,-191.66,-0.9774639999999999,-0.427,-0.798856,4
2024-06-14 11:42:11.766,-175.91,211.96,-190.26,-0.9281759999999999,-0.530456,-0.686128,4
2024-06-14 11:42:11.771,-164.15,218.89,-186.41,-0.8720559999999999,-0.630496,-0.61244,4
2024-06-14 11:42:11.776,-150.01,227.92,-179.69,-0.812032,-0.7090639999999999,-0.5856,4
2024-06-14 11:42:11.781,-131.88,238.77,-169.54,-0.735904,-0.760304,-0.56852,4
2024-06-14 11:42:11.786,-112.49,251.02,-157.64,-0.682712,-0.77104,-0.5631520000000001,4
2024-06-14 11:42:11.791,-92.33,263.83,-143.85,-0.639768,-0.767624,-0.5675439999999999,4
2024-06-14 11:42:11.795,-74.13,276.64,-128.73,-0.5924320000000001,-0.754448,-0.5870639999999999,4
2024-06-14 11:42:11.800,-58.59,289.38,-112.56,-0.5524159999999999,-0.733952,-0.611952,4
2024-06-14 11:42:11.805,-47.04,300.09,-95.9,-0.508496,-0.689056,-0.665144,4
2024-06-14 11:42:11.810,-38.29,311.08,-78.82,-0.452864,-0.631472,-0.710528,4
2024-06-14 11:42:11.815,-32.62,320.74,-62.02,-0.40845600000000004,-0.570472,-0.755424,4
2024-06-14 11:42:11.820,-28.28,330.33,-45.85,-0.372344,-0.5148400000000001,-0.8169120000000001,4
2024-06-14 11:42:11.824,-24.99,338.73,-30.66,-0.331352,-0.478728,-0.871568,4
2024-06-14 11:42:11.829,-21.98,347.62,-16.38,-0.296704,-0.443104,-0.9237839999999999,4
2024-06-14 11:42:11.834,-19.32,355.67,-3.5,-0.269864,-0.4148,-0.9764879999999999,4
2024-06-14 11:42:11.839,-16.31,363.44,8.12,-0.2562,-0.39332799999999996,-1.0194320000000001,4
2024-06-14 11:42:11.844,-12.81,370.93,18.69,-0.24156,-0.368928,-1.06628,4
2024-06-14 11:42:11.849,-8.47,378.84,28.14,-0.231312,-0.355264,-1.110688,4
2024-06-14 11:42:11.854,-3.85,386.33,36.33,-0.221552,-0.32988799999999996,-1.147288,4
2024-06-14 11:42:11.858,1.26,393.96,43.4,-0.218136,-0.306464,-1.187792,4
2024-06-14 11:42:11.863,6.72,401.87,49.56,-0.20984,-0.28206400000000004,-1.247816,4
2024-06-14 11:42:11.868,11.9,409.57,54.67,-0.18056,-0.262544,-1.30784,4
2024-06-14 11:42:11.873,17.08,416.29,58.52,-0.157624,-0.23326399999999997,-1.37616,4
2024-06-14 11:42:11.878,21.07,420.98,60.76,-0.123464,-0.19910399999999998,-1.462536,4
2024-06-14 11:42:11.883,24.43,423.99,61.39,-0.08930400000000001,-0.17519200000000001,-1.536224,4
2024-06-14 11:42:11.887,27.02,427.07,60.62,-0.062464,-0.166896,-1.606496,4
2024-06-14 11:42:11.892,29.75,428.68,58.59,-0.040015999999999996,-0.16494399999999998,-1.667008,4
2024-06-14 11:42:11.897,32.69,429.59,55.51,-0.018056000000000003,-0.16494399999999998,-1.715808,4
2024-06-14 11:42:11.902,36.05,430.57,51.52,0.000976,-0.17275200000000002,-1.763632,4
2024-06-14 11:42:11.907,39.27,431.27,46.55,0.021472,-0.17519200000000001,-1.821704,4
2024-06-14 11:42:11.912,42.77,431.41,40.95,0.031232,-0.183,-1.882704,4
2024-06-14 11:42:11.916,46.13,430.85,34.86,0.050263999999999996,-0.197152,-1.9627359999999998,4
2024-06-14 11:42:11.921,50.19,429.94,28.42,0.06734399999999999,-0.215208,-2.0374,4
2024-06-14 11:42:11.926,54.95,427.91,21.56,0.07808,-0.23912,-2.118408,4
2024-06-14 11:42:11.931,60.69,426.3,14.42,0.088328,-0.26205599999999996,-2.204296,4
2024-06-14 11:42:11.936,66.71,423.64,7.21,0.113216,-0.28889600000000004,-2.314096,4
2024-06-14 11:42:11.941,73.22,420.84,0.21,0.14103200000000002,-0.321592,-2.455616,4
2024-06-14 11:42:11.946,79.38,416.15,-6.09,0.174704,-0.32988799999999996,-2.624464,4
2024-06-14 11:42:11.950,86.52,412.79,-5.53,0.189832,-0.251808,-2.8157599999999996,4
2024-06-14 11:42:11.955,92.75,405.72,-11.69,0.499224,-0.851072,-2.975336,4
2024-06-14 11:42:11.960,99.26,398.72,-31.01,0.432856,-0.46408799999999995,-3.105632,4
2024-06-14 11:42:11.965,107.03,395.78,-41.79,0.5514399999999999,-0.452376,-3.189568,4
2024-06-14 11:42:11.970,115.85,395.15,-54.39,0.664168,-0.413824,-3.273016,4
2024-06-14 11:42:11.975,125.93,396.2,-67.9,0.766648,-0.374296,-3.395504,4
2024-06-14 11:42:11.979,133.91,398.44,-81.2,0.906216,-0.318176,-3.54776,4
2024-06-14 11:42:11.984,139.16,402.99,-94.57,1.099952,-0.243024,-3.651216,4
2024-06-14 11:42:11.989,139.23,410.06,-108.29,1.3390719999999998,-0.17079999999999998,-3.714168,4
2024-06-14 11:42:11.994,134.26,417.83,-122.01,1.606008,-0.09955199999999999,-3.729784,4
2024-06-14 11:42:11.999,126.0,425.04,-134.82,1.9056399999999998,-0.027816,-3.678056,4
2024-06-14 11:42:12.004,114.8,430.15,-145.53,2.2433359999999998,0.040504,-3.6282799999999997,4
2024-06-14 11:42:12.008,101.78,429.94,-152.6,2.653256,0.103456,-3.5565439999999997,4
2024-06-14 11:42:12.013,85.54,422.94,-155.82,3.1510160000000003,0.142496,-3.4604079999999997,4
2024-06-14 11:42:12.018,63.56,408.17,-153.37,3.782,0.159576,-3.323768,4
2024-06-14 11:42:12.023,40.6,386.47,-143.22,4.616968,0.16104,-3.002176,4
2024-06-14 11:42:12.028,20.09,357.14,-127.89,5.432904,0.020007999999999998,-2.4404879999999998,4
2024-06-14 11:42:12.033,-0.14,319.06,-96.81,6.204432,-0.338184,-1.826584,4
2024-06-14 11:42:12.038,-17.01,276.78,-43.19,6.989624,-0.751032,-1.260992,4
2024-06-14 11:42:12.042,-21.56,231.42,29.96,7.570831999999999,-1.086288,-1.05652,4
2024-06-14 11:42:12.047,-23.1,178.85,109.2,7.80312,-1.179008,-1.087752,4
2024-06-14 11:42:12.052,-15.68,124.81,177.94,8.03736,-0.785192,-0.818864,4
2024-06-14 11:42:12.057,5.81,71.89,224.21,7.88364,-0.34159999999999996,-0.765184,4
2024-06-14 11:42:12.062,23.17,16.87,249.48,7.325367999999999,0.025376,-1.062376,4
2024-06-14 11:42:12.067,29.61,-43.96,260.33,6.568479999999999,0.306952,-1.347856,4
2024-06-14 11:42:12.071,-196.84,-177.59,219.87,6.127327999999999,4.018192,-5.7764560000000005,4
2024-06-14 11:42:12.076,-408.8,-437.71,83.23,5.298215999999999,6.049736,-3.4164879999999997,4
2024-06-14 11:42:12.081,-464.52,-370.37,46.27,-0.056608,-1.089704,-0.27376799999999996,0
2024-06-14 11:42:12.086,-623.84,-315.77,19.95,0.119072,0.249856,-1.570384,0
2024-06-14 11:42:12.091,-477.89,-252.35,-20.93,0.526552,-1.421544,-1.567456,0
2024-06-14 11:42:12.096,-391.58,-257.6,-49.14,-2.473672,1.16876,-3.5955839999999997,0
