time,gyroscope_x,gyroscope_y,gyroscope_z,accelerometer_x,accelerometer_y,accelerometer_z,phase
2024-06-14 13:03:02.779,94.57,-581.91,-38.85,2.2164960000000002,-7.15896,-11.403096,1
2024-06-14 13:03:02.784,136.22,-376.95,41.93,0.800808,2.006656,0.303048,1
2024-06-14 13:03:02.789,207.27,-505.33,26.32,-3.334016,-0.13078399999999998,2.224792,1
2024-06-14 13:03:02.794,285.67,-480.62,16.8,-0.9969839999999999,1.148752,0.28938400000000003,1
2024-06-14 13:03:02.799,307.58,-542.15,15.12,0.3538,0.010736,-2.296528,1
2024-06-14 13:03:02.804,330.61,-362.6,30.17,0.299144,-0.12834399999999999,-1.918816,1
2024-06-14 13:03:02.808,223.16,-425.81,52.22,0.7671359999999999,-0.17372800000000002,-1.593808,1
2024-06-14 13:03:02.813,177.94,-477.75,83.86,1.3595679999999999,-0.064416,-1.774368,1
2024-06-14 13:03:02.818,119.77,-457.17,103.74,1.099952,-0.296704,-2.216984,1
2024-06-14 13:03:02.823,91.63,-421.4,103.6,0.396256,-0.5533919999999999,-2.5341839999999998,1
2024-06-14 13:03:02.828,93.1,-389.34,87.36,0.105408,-0.7564,-2.748416,1
2024-06-14 13:03:02.832,61.46,-360.78,64.4,0.215208,-1.089216,-3.382328,1
2024-06-14 13:03:02.837,46.34,-307.37,43.33,0.374784,-0.9330559999999999,-3.248616,1
2024-06-14 13:03:02.842,0.98,-231.14,23.17,0.630496,-0.549976,-2.541016,1
2024-06-14 13:03:02.847,1.47,-166.6,7.42,0.491904,-0.460184,-2.13256,2
2024-06-14 13:03:02.852,-6.02,-120.75,-6.02,0.300608,-0.155672,-1.806088,2
2024-06-14 13:03:02.856,-11.9,-39.48,-11.55,0.39088799999999996,0.064416,-1.5142639999999998,2
2024-06-14 13:03:02.861,-14.56,-7.63,-7.84,0.440664,0.155184,-1.19804,2
2024-06-14 13:03:02.866,-10.85,-4.76,-1.33,0.13810399999999998,0.06588,-1.1223999999999998,2
2024-06-14 13:03:02.871,-5.25,-7.77,-1.54,0.005856,0.064416,-1.091656,2
2024-06-14 13:03:02.876,-2.1,-7.49,2.24,-0.056119999999999996,0.024887999999999997,-1.0687200000000001,2
2024-06-14 13:03:02.881,1.61,-9.87,0.77,-0.020007999999999998,0.008296,-1.05164,2
2024-06-14 13:03:02.885,0.98,-4.62,-1.26,0.001952,-0.0366,-0.957456,2
2024-06-14 13:03:02.890,0.98,0.63,-1.61,-0.000488,-0.037088,-1.040904,2
2024-06-14 13:03:02.895,-1.68,1.33,-0.7,0.010248,-0.024887999999999997,-1.0365119999999999,2
2024-06-14 13:03:02.900,-1.26,2.52,0.49,-0.00976,0.023424,-1.058472,2
2024-06-14 13:03:02.905,-1.26,1.19,0.14,-0.040992,-0.005368,-1.062864,2
2024-06-14 13:03:02.909,-1.68,-0.98,0.07,-0.032695999999999996,-0.021472,-1.0438319999999999,2
2024-06-14 13:03:02.914,-2.45,-2.38,0.42,-0.02684,-0.000976,-1.0379759999999998,2
2024-06-14 13:03:02.919,-2.24,-3.29,0.77,-0.037576,0.020007999999999998,-1.02724,2
2024-06-14 13:03:02.924,-0.98,-3.64,0.77,-0.044408,0.023424,-1.02236,2
2024-06-14 13:03:02.929,-0.21,-4.55,0.28,-0.04392,0.012199999999999999,-1.035048,2
2024-06-14 13:03:02.934,0.49,-5.88,0.14,-0.03904,0.0,-1.042368,2
2024-06-14 13:03:02.938,0.28,-8.05,0.28,-0.03904,0.0068319999999999995,-1.045296,2
2024-06-14 13:03:02.943,0.84,-11.06,0.28,-0.048312,0.013663999999999999,-1.042368,2
2024-06-14 13:03:02.948,1.54,-13.3,0.07,-0.048799999999999996,0.015128,-1.03456,2
2024-06-14 13:03:02.953,2.45,-14.91,-0.35,-0.047335999999999996,0.012688,-1.0340719999999999,2
2024-06-14 13:03:02.958,3.08,-16.73,-0.42,-0.046848,0.011224,-1.033096,2
2024-06-14 13:03:02.962,3.29,-19.11,-0.49,-0.042944,-0.001464,-1.043344,2
2024-06-14 13:03:02.967,3.5,-21.35,-0.49,-0.041479999999999996,-0.001464,-1.043344,2
2024-06-14 13:03:02.972,3.5,-22.61,-0.49,-0.036112000000000005,-0.007808,-1.0360239999999998,2
2024-06-14 13:03:02.977,3.22,-23.52,-0.42,-0.032695999999999996,-0.017079999999999998,-1.037488,2
2024-06-14 13:03:02.982,2.59,-24.36,-0.14,-0.034159999999999996,-0.013176,-1.0340719999999999,2
2024-06-14 13:03:02.986,2.24,-25.55,-0.07,-0.033671999999999994,-0.0034159999999999998,-1.035536,2
2024-06-14 13:03:02.991,2.03,-26.81,-0.14,-0.032695999999999996,0.000488,-1.033096,2
2024-06-14 13:03:02.996,2.31,-27.65,-0.28,-0.031232,0.003904,-1.03212,2
2024-06-14 13:03:03.001,2.73,-28.35,-0.35,-0.027327999999999998,0.004391999999999999,-1.02724,2
2024-06-14 13:03:03.006,2.94,-28.07,-0.63,-0.022448,0.005368,-1.0194320000000001,2
2024-06-14 13:03:03.011,5.95,-28.98,-0.28,-0.015616,-0.002928,-1.024312,2
2024-06-14 13:03:03.015,4.55,-14.28,-0.7,-0.012199999999999999,-0.003904,-1.022848,2
2024-06-14 13:03:03.020,4.41,-11.83,-0.7,-0.012199999999999999,-0.00488,-1.012112,2
2024-06-14 13:03:03.025,3.78,-12.32,-0.49,-0.0068319999999999995,-0.006344,-1.013088,2
2024-06-14 13:03:03.030,3.71,-12.32,-0.49,-0.011712,-0.005368,-1.016504,2
2024-06-14 13:03:03.035,3.64,-12.18,-0.63,-0.012199999999999999,-0.0034159999999999998,-1.01748,2
2024-06-14 13:03:03.039,4.48,-12.81,-0.35,-0.009272,-0.004391999999999999,-1.015528,2
2024-06-14 13:03:03.044,2.94,-15.89,-0.14,-0.00732,-0.001464,-1.0126,2
2024-06-14 13:03:03.049,2.87,-13.72,-0.42,-0.008296,-0.005368,-1.0145520000000001,2
2024-06-14 13:03:03.054,2.66,-14.49,-0.63,-0.011224,-0.001464,-1.01504,2
2024-06-14 13:03:03.059,1.54,-14.35,-0.7,-0.018056000000000003,0.0,-1.0238239999999998,2
2024-06-14 13:03:03.064,-4.48,-10.01,-0.49,-0.00976,0.002928,-0.998448,2
2024-06-14 13:03:03.068,-10.43,51.45,2.87,-0.007808,0.001952,-0.98576,2
2024-06-14 13:03:03.073,-6.86,-0.63,1.26,-0.017567999999999997,0.000488,-1.01748,2
2024-06-14 13:03:03.078,0.56,-14.14,2.94,-0.007808,0.003904,-1.0047920000000001,2
2024-06-14 13:03:03.083,-9.66,-20.02,-3.5,-0.00244,0.005856,-1.0096720000000001,2
2024-06-14 13:03:03.088,-1.82,-21.14,-6.37,-0.001464,0.00244,-1.0365119999999999,2
2024-06-14 13:03:03.092,-12.18,-23.03,-4.48,0.000976,0.000488,-1.0267519999999999,2
2024-06-14 13:03:03.097,-5.6,-26.46,-0.77,-0.000976,0.00732,-1.012112,2
2024-06-14 13:03:03.102,-7.42,-30.17,-2.66,-0.002928,-0.005368,-1.0462719999999999,2
2024-06-14 13:03:03.107,-2.59,-32.9,-5.32,-0.001464,-0.00488,-1.047248,2
2024-06-14 13:03:03.110,-0.98,-36.47,-2.17,0.0068319999999999995,-0.016592,-1.0760399999999999,2
2024-06-14 13:03:03.112,-2.31,-35.14,-5.04,0.001952,0.006344,-1.0379759999999998,2
2024-06-14 13:03:03.114,-1.05,-37.24,-0.91,0.017079999999999998,-0.008296,-1.1082480000000001,2
2024-06-14 13:03:03.119,1.12,-39.76,-3.01,0.012199999999999999,-0.023912,-1.089704,2
2024-06-14 13:03:03.124,0.63,-40.74,-3.57,0.017567999999999997,-0.005368,-1.076528,2
2024-06-14 13:03:03.129,1.19,-42.91,-1.82,0.022448,-0.001952,-1.075064,2
2024-06-14 13:03:03.134,1.47,-43.61,0.0,0.017079999999999998,-0.016592,-1.0853119999999998,2
2024-06-14 13:03:03.139,-7.77,-38.29,-1.4,0.028791999999999998,-0.004391999999999999,-1.075064,2
2024-06-14 13:03:03.143,-8.61,-37.45,-3.01,0.030256,-0.00976,-1.060424,2
2024-06-14 13:03:03.148,-9.73,-38.43,-2.52,0.034159999999999996,-0.016104,-1.05408,2
2024-06-14 13:03:03.153,-9.31,-38.57,-0.98,0.036112000000000005,-0.019032,-1.0535919999999999,2
2024-06-14 13:03:03.158,-9.52,-38.57,-0.56,0.041479999999999996,-0.017567999999999997,-1.060912,2
2024-06-14 13:03:03.163,-10.5,-39.13,-1.33,0.041968,-0.022936,-1.0833599999999999,3
2024-06-14 13:03:03.168,-11.55,-39.97,-1.61,0.047335999999999996,-0.008296,-1.0687200000000001,3
2024-06-14 13:03:03.172,-12.39,-40.25,-0.77,0.049288,-0.00244,-1.072136,3
2024-06-14 13:03:03.177,-13.09,-40.88,-0.42,0.054655999999999996,-0.00488,-1.096048,3
2024-06-14 13:03:03.182,-13.51,-42.28,-0.91,0.048312,-0.00244,-1.105808,3
2024-06-14 13:03:03.187,-14.21,-43.75,-1.75,0.048312,0.00976,-1.111176,3
2024-06-14 13:03:03.192,-14.77,-45.92,-1.75,0.052216,0.016592,-1.128744,3
2024-06-14 13:03:03.197,-14.98,-48.51,-1.68,0.054168,0.028304,-1.128744,3
2024-06-14 13:03:03.202,-14.77,-51.24,-2.17,0.056608,0.027816,-1.123376,3
2024-06-14 13:03:03.206,-13.79,-53.76,-2.94,0.060512,0.033184,-1.118984,3
2024-06-14 13:03:03.211,-12.88,-56.56,-3.57,0.062464,0.029768,-1.125816,3
2024-06-14 13:03:03.216,-12.04,-59.64,-3.43,0.061488,0.01952,-1.13948,3
2024-06-14 13:03:03.221,-10.78,-63.07,-3.22,0.063928,0.017567999999999997,-1.1697359999999999,3
2024-06-14 13:03:03.226,-9.8,-67.34,-3.5,0.057583999999999996,0.02928,-1.208288,3
2024-06-14 13:03:03.231,-8.68,-71.96,-3.92,0.057095999999999994,0.020984,-1.252208,3
2024-06-14 13:03:03.235,-8.19,-77.84,-3.99,0.052704,0.025864,-1.30784,3
2024-06-14 13:03:03.240,-7.14,-84.84,-3.92,0.054168,0.018544,-1.344928,3
2024-06-14 13:03:03.245,-6.44,-92.68,-4.13,0.05368,0.025376,-1.362496,3
2024-06-14 13:03:03.250,-6.44,-100.45,-4.41,0.060024,0.011224,-1.367376,3
2024-06-14 13:03:03.255,-6.44,-107.66,-4.27,0.06978399999999998,-0.010248,-1.356152,3
2024-06-14 13:03:03.260,-6.93,-114.8,-3.71,0.076128,-0.017567999999999997,-1.338096,3
2024-06-14 13:03:03.265,-7.98,-121.73,-3.01,0.08491199999999999,-0.037088,-1.3112559999999998,3
2024-06-14 13:03:03.269,-9.8,-127.47,-2.31,0.098576,-0.064416,-1.279048,3
2024-06-14 13:03:03.274,-12.18,-132.44,-1.33,0.105896,-0.092232,-1.284904,3
2024-06-14 13:03:03.279,-15.05,-138.74,0.42,0.099064,-0.08686400000000001,-1.3229680000000001,3
2024-06-14 13:03:03.284,-17.99,-146.3,1.68,0.096624,-0.049288,-1.372744,3
2024-06-14 13:03:03.289,-20.09,-155.75,2.03,0.08784,-0.029768,-1.4396,3
2024-06-14 13:03:03.294,-24.71,-173.88,1.47,0.083936,0.023912,-1.48108,3
2024-06-14 13:03:03.298,-21.7,-177.8,1.89,0.076616,0.041479999999999996,-1.501576,3
2024-06-14 13:03:03.303,-21.21,-191.94,0.63,0.079544,0.083936,-1.5591599999999999,3
2024-06-14 13:03:03.308,-17.71,-202.37,-0.77,0.079056,0.099064,-1.518168,3
2024-06-14 13:03:03.313,-13.23,-213.5,-2.45,0.068808,0.13712799999999997,-1.5811199999999999,3
2024-06-14 13:03:03.318,-8.33,-226.31,-4.76,0.063928,0.127856,-1.6499279999999998,3
2024-06-14 13:03:03.323,-3.64,-240.8,-6.3,0.063928,0.078568,-1.763632,3
2024-06-14 13:03:03.328,-0.84,-256.27,-7.14,0.052704,0.042455999999999994,-1.8470799999999998,3
2024-06-14 13:03:03.332,1.4,-273.35,-7.63,0.032208,0.032695999999999996,-1.95932,3
2024-06-14 13:03:03.337,4.83,-293.37,-7.98,0.009272,0.044408,-2.013976,3
2024-06-14 13:03:03.342,7.0,-315.14,-8.75,-0.008783999999999998,0.090768,-2.089616,3
2024-06-14 13:03:03.347,8.75,-339.78,-10.22,-0.014152,0.155672,-2.10328,3
2024-06-14 13:03:03.352,10.99,-359.59,-11.62,-0.001464,0.338184,-2.350696,3
2024-06-14 13:03:03.357,23.24,-375.83,-16.94,-0.034159999999999996,0.5070319999999999,-2.3746080000000003,3
2024-06-14 13:03:03.361,27.23,-400.05,-23.87,0.02928,0.6056079999999999,-2.611776,3
2024-06-14 13:03:03.366,24.99,-424.97,-31.29,0.07027199999999999,0.579256,-2.9299519999999997,3
2024-06-14 13:03:03.371,22.19,-447.65,-37.52,0.132736,0.630496,-3.2256799999999997,3
2024-06-14 13:03:03.376,25.76,-470.82,-42.49,0.179096,0.7500560000000001,-3.4335679999999997,3
2024-06-14 13:03:03.381,15.89,-490.98,-50.26,0.227896,0.881328,-3.34768,3
2024-06-14 13:03:03.386,-9.1,-508.34,-59.01,0.28889600000000004,0.8593679999999999,-3.258864,3
2024-06-14 13:03:03.391,-49.07,-517.86,-66.29,0.389912,0.824232,-3.263744,3
2024-06-14 13:03:03.395,-84.0,-524.93,-71.82,0.457744,0.735904,-3.382328,3
2024-06-14 13:03:03.400,-117.67,-529.13,-80.29,0.39088799999999996,0.593896,-3.5136,3
2024-06-14 13:03:03.405,-140.35,-519.89,-93.03,0.364536,0.484096,-3.684888,3
2024-06-14 13:03:03.410,-143.08,-509.95,-101.57,0.213744,0.26693599999999995,-3.8142080000000003,3
2024-06-14 13:03:03.415,-145.32,-500.64,-107.94,-0.05368,0.149816,-3.8825279999999998,3
2024-06-14 13:03:03.420,-147.49,-488.95,-115.57,-0.521184,0.167872,-3.9083919999999996,4
2024-06-14 13:03:03.424,-148.19,-471.73,-130.76,-1.130696,0.120048,-3.729784,4
2024-06-14 13:03:03.429,-159.46,-453.6,-166.88,-1.6694479999999998,-0.124928,-3.194936,4
2024-06-14 13:03:03.434,-158.69,-442.12,-155.61,-2.231136,0.34892,-2.783064,4
2024-06-14 13:03:03.439,-143.22,-425.53,-176.96,-2.421456,0.242048,-2.197952,4
2024-06-14 13:03:03.444,-110.67,-430.64,-190.68,-2.2667599999999997,0.054655999999999996,-1.4161759999999999,4
2024-06-14 13:03:03.449,-58.38,-494.41,-192.22,-1.410808,0.125904,-0.044896,4
2024-06-14 13:03:03.454,5.95,-575.89,-181.16,-1.0004,0.22106399999999998,-0.6783199999999999,4
2024-06-14 13:03:03.458,38.57,-503.79,-169.26,-0.671,0.133712,-1.062864,4
2024-06-14 13:03:03.463,53.97,-382.13,-153.44,-0.745664,0.215208,-1.628944,4
2024-06-14 13:03:03.468,56.98,-277.2,-128.94,-0.984296,0.23277599999999998,-1.69092,4
2024-06-14 13:03:03.473,61.74,-158.62,-89.67,-1.377624,-0.020007999999999998,-1.19316,4
2024-06-14 13:03:03.478,74.13,-27.37,-40.53,-1.98372,-0.116144,-0.661728,4
2024-06-14 13:03:03.483,97.16,92.82,7.42,-2.277008,-0.112728,-0.432368,4
2024-06-14 13:03:03.487,121.87,188.02,48.58,-2.1745279999999996,-0.046848,-0.654408,4
2024-06-14 13:03:03.492,138.53,258.65,81.9,-1.875384,0.05368,-0.983808,4
2024-06-14 13:03:03.497,151.06,307.51,106.96,-1.5342719999999999,0.180072,-1.18828,4
2024-06-14 13:03:03.502,161.77,339.29,123.2,-1.277096,0.28548,-1.296616,4
2024-06-14 13:03:03.507,167.65,357.84,131.11,-1.143872,0.373808,-1.32492,4
2024-06-14 13:03:03.512,164.5,365.33,132.02,-1.106296,0.489464,-1.288808,4
2024-06-14 13:03:03.517,153.3,366.17,126.21,-1.102392,0.609024,-1.18096,4
2024-06-14 13:03:03.521,136.71,364.07,114.73,-1.093608,0.723216,-1.022848,4
2024-06-14 13:03:03.526,115.85,360.29,99.05,-1.055056,0.794952,-0.885232,4
2024-06-14 13:03:03.531,89.74,356.37,80.99,-0.9964959999999999,0.8174,-0.793,4
2024-06-14 13:03:03.536,60.06,352.38,62.16,-0.920368,0.8061759999999999,-0.757864,4
2024-06-14 13:03:03.541,29.96,348.11,43.61,-0.8300879999999999,0.773968,-0.752984,4
2024-06-14 13:03:03.546,1.4,344.05,26.04,-0.7363919999999999,0.721752,-0.755424,4
2024-06-14 13:03:03.550,-24.57,340.27,10.15,-0.6500159999999999,0.657336,-0.765184,4
2024-06-14 13:03:03.555,-46.76,337.26,-3.64,-0.58804,0.570472,-0.774944,4
2024-06-14 13:03:03.560,-64.33,335.44,-15.54,-0.53924,0.470432,-0.779824,4
2024-06-14 13:03:03.565,-76.44,334.88,-25.69,-0.504104,0.36209600000000003,-0.785192,4
2024-06-14 13:03:03.570,-83.51,335.65,-33.6,-0.46994400000000003,0.26352,-0.798368,4
2024-06-14 13:03:03.575,-85.82,337.75,-38.99,-0.445056,0.171288,-0.8310639999999999,4
2024-06-14 13:03:03.580,-83.79,340.76,-42.07,-0.421632,0.094184,-0.8744959999999999,4
2024-06-14 13:03:03.584,-78.4,344.33,-43.33,-0.403576,0.029768,-0.9262239999999999,4
2024-06-14 13:03:03.589,-70.28,348.53,-43.26,-0.379176,-0.021472,-0.977952,4
2024-06-14 13:03:03.594,-60.97,353.08,-42.07,-0.358192,-0.047824,-1.031632,4
2024-06-14 13:03:03.599,-51.03,358.05,-40.04,-0.344528,-0.057095999999999994,-1.084336,4
2024-06-14 13:03:03.604,-41.86,363.37,-37.73,-0.336232,-0.060024,-1.13948,4
2024-06-14 13:03:03.609,-34.58,369.04,-35.56,-0.321104,-0.04392,-1.189744,4
2024-06-14 13:03:03.613,-29.68,375.13,-33.74,-0.307928,-0.020007999999999998,-1.23464,4
2024-06-14 13:03:03.618,-27.44,381.57,-32.13,-0.28304,0.0068319999999999995,-1.27856,4
2024-06-14 13:03:03.623,-27.93,388.92,-30.94,-0.26839999999999997,0.035135999999999994,-1.319064,4
2024-06-14 13:03:03.628,-31.01,396.13,-30.31,-0.248392,0.056608,-1.367864,4
2024-06-14 13:03:03.633,-36.4,402.85,-29.96,-0.22935999999999998,0.073688,-1.42008,4
2024-06-14 13:03:03.638,-43.54,408.59,-29.89,-0.212768,0.089792,-1.4923039999999999,4
2024-06-14 13:03:03.643,-51.45,413.28,-29.61,-0.193248,0.096624,-1.5611119999999998,4
2024-06-14 13:03:03.647,-59.57,416.71,-28.98,-0.166408,0.088816,-1.630896,4
2024-06-14 13:03:03.652,-67.55,419.3,-27.72,-0.152744,0.072712,-1.704096,4
2024-06-14 13:03:03.657,-74.76,420.84,-25.97,-0.135176,0.063928,-1.782664,4
2024-06-14 13:03:03.662,-80.92,421.89,-23.8,-0.127856,0.046848,-1.8573279999999999,4
2024-06-14 13:03:03.667,-85.75,422.17,-20.86,-0.121512,0.025864,-1.946144,4
2024-06-14 13:03:03.672,-89.67,422.17,-17.29,-0.113216,0.005368,-2.046184,4
2024-06-14 13:03:03.676,-92.47,421.89,-12.95,-0.090768,-0.008783999999999998,-2.162816,4
2024-06-14 13:03:03.681,-94.15,421.54,-7.77,-0.06978399999999998,-0.013663999999999999,-2.294576,4
2024-06-14 13:03:03.686,-94.92,420.98,-1.96,-0.028304,-0.013176,-2.443416,4
2024-06-14 13:03:03.691,-95.34,420.42,5.04,0.034159999999999996,-0.0068319999999999995,-2.594696,4
2024-06-14 13:03:03.696,-95.34,420.14,13.37,0.126392,-0.005368,-2.7376799999999997,4
2024-06-14 13:03:03.701,-95.34,419.51,23.66,0.22838399999999998,-0.005856,-2.8796880000000002,4
2024-06-14 13:03:03.706,-95.13,418.88,35.63,0.33720799999999995,-0.003904,-3.007056,4
2024-06-14 13:03:03.710,-95.55,418.04,48.44,0.441152,-0.0068319999999999995,-3.119784,4
2024-06-14 13:03:03.715,-97.02,417.55,61.04,0.546072,-0.011224,-3.2061599999999997,4
2024-06-14 13:03:03.720,-99.96,417.41,73.01,0.660752,-0.01952,-3.2676480000000003,4
2024-06-14 13:03:03.725,-104.3,417.76,83.79,0.787144,-0.020984,-3.329624,4
2024-06-14 13:03:03.730,-108.71,418.6,93.17,0.9481839999999999,-0.035624,-3.378424,4
2024-06-14 13:03:03.735,-112.21,419.23,101.64,1.139968,-0.052704,-3.434056,4
2024-06-14 13:03:03.739,-113.61,419.58,109.69,1.3493199999999999,-0.029768,-3.502864,4
2024-06-14 13:03:03.744,-111.65,417.2,123.2,1.564528,0.06783199999999999,-3.5370239999999997,4
2024-06-14 13:03:03.749,-107.24,413.0,140.0,1.821216,0.07466400000000001,-3.592168,4
2024-06-14 13:03:03.754,-98.91,407.82,140.56,2.4068159999999996,-0.671,-3.6697599999999997,4
2024-06-14 13:03:03.759,-82.04,397.88,141.54,2.515152,-0.190808,-3.532632,4
2024-06-14 13:03:03.764,-58.03,381.15,153.23,2.865048,-0.12444,-3.3632959999999996,4
2024-06-14 13:03:03.769,-21.49,359.8,162.47,3.200304,0.030744,-3.0548800000000003,4
2024-06-14 13:03:03.773,25.34,332.71,165.55,3.471144,0.203984,-2.6522799999999997,4
2024-06-14 13:03:03.778,66.99,303.59,159.88,3.834216,0.354288,-2.21796,4
2024-06-14 13:03:03.783,89.74,277.13,146.16,4.369064000000001,0.467504,-1.7446,4
2024-06-14 13:03:03.788,87.22,253.05,126.14,5.096184,0.580232,-1.199504,4
2024-06-14 13:03:03.793,58.03,225.26,97.93,5.772064,0.734928,-0.797392,4
2024-06-14 13:03:03.798,-6.3,189.91,58.03,6.198087999999999,0.838872,-0.783728,4
2024-06-14 13:03:03.802,-84.56,142.03,13.93,6.377672,0.732976,-0.98576,4
2024-06-14 13:03:03.807,-142.45,76.37,-25.62,6.110736,0.38356799999999996,-1.1546079999999999,4
2024-06-14 13:03:03.812,-167.65,-2.59,-55.58,5.552464,-0.006344,-1.228296,4
2024-06-14 13:03:03.817,-158.76,-103.32,-71.68,5.1679200000000005,-1.226832,-1.733864,4
2024-06-14 13:03:03.822,44.17,-429.94,-0.42,7.94952,-2.636176,-2.89384,4
