time,gyroscope_x,gyroscope_y,gyroscope_z,accelerometer_x,accelerometer_y,accelerometer_z,phase
2024-06-14 10:09:47.277,149.59,-290.92,44.1,0.895968,1.2932000000000001,-12.89784,1
2024-06-14 10:09:47.290,-37.1,-195.79,32.34,0.004391999999999999,0.148352,4.451536,1
2024-06-14 10:09:47.294,18.06,-269.36,26.6,-2.4878240000000003,0.877424,0.677344,1
2024-06-14 10:09:47.299,171.78,-235.62,48.86,-0.5045919999999999,0.508984,-1.060912,1
2024-06-14 10:09:47.304,198.8,-260.19,55.09,-0.777384,-0.011224,-1.262944,1
2024-06-14 10:09:47.309,177.87,-278.81,64.47,0.153232,0.28304,-1.802184,1
2024-06-14 10:09:47.314,144.48,-288.05,82.11,0.186416,0.11419199999999999,-1.771928,1
2024-06-14 10:09:47.318,96.46,-279.93,104.79,0.24888,-0.098088,-1.7973039999999998,1
2024-06-14 10:09:47.323,50.47,-258.79,123.55,0.110776,-0.14688800000000002,-1.66408,2
2024-06-14 10:09:47.328,8.89,-230.37,132.79,0.13956799999999997,-0.346968,-1.7582639999999998,2
2024-06-14 10:09:47.333,-23.52,-203.07,130.27,0.28304,-0.5192319999999999,-1.786568,2
2024-06-14 10:09:47.338,-20.51,-184.59,113.89,0.3538,-0.6900320000000001,-1.891488,2
2024-06-14 10:09:47.342,-9.94,-177.38,80.71,0.28059999999999996,-0.915488,-1.823656,2
2024-06-14 10:09:47.347,-3.71,-165.97,40.6,0.162016,-0.925248,-1.727032,2
2024-06-14 10:09:47.352,2.03,-151.83,4.9,0.12736799999999998,-0.728096,-1.588928,2
2024-06-14 10:09:47.357,-4.9,-134.12,-19.18,0.14200800000000002,-0.23960800000000002,-1.8841679999999998,2
2024-06-14 10:09:47.362,-7.42,-105.91,-25.27,0.094184,-0.001952,-1.5962480000000001,2
2024-06-14 10:09:47.366,-17.22,-94.08,-15.12,0.033184,0.315248,-1.535248,2
2024-06-14 10:09:47.371,-21.21,-77.77,5.25,0.035135999999999994,0.348432,-1.550376,2
2024-06-14 10:09:47.376,-22.96,-59.64,22.82,0.010248,0.17860800000000002,-1.430816,2
2024-06-14 10:09:47.381,-20.16,-46.55,29.05,0.024399999999999998,-0.005856,-1.31028,2
2024-06-14 10:09:47.386,-13.58,-38.78,24.36,0.032208,-0.14688800000000002,-1.223904,2
2024-06-14 10:09:47.390,-8.26,-34.16,13.86,0.033184,-0.20007999999999998,-1.170224,2
2024-06-14 10:09:47.395,-4.69,-30.38,3.64,-0.003904,-0.125904,-1.140456,2
2024-06-14 10:09:47.400,-3.36,-25.76,-1.05,-0.03172,-0.022936,-1.1253279999999999,2
2024-06-14 10:09:47.405,-2.1,-21.14,0.56,-0.028791999999999998,0.043432000000000005,-1.1360640000000002,2
2024-06-14 10:09:47.410,-1.4,-16.17,5.04,-0.024887999999999997,0.04636,-1.142896,2
2024-06-14 10:09:47.414,-0.63,-12.74,8.12,0.041968,-0.098088,-1.314184,2
2024-06-14 10:09:47.419,-4.62,7.28,-0.98,-0.1098,-0.0034159999999999998,-1.042368,2
2024-06-14 10:09:47.424,8.82,8.89,-4.41,0.08930400000000001,-0.025376,-1.297104,2
2024-06-14 10:09:47.429,7.42,1.4,-4.83,0.008783999999999998,-0.044408,-1.1833999999999998,2
2024-06-14 10:09:47.434,3.5,-1.61,-2.03,-0.11663199999999999,-0.015616,-1.068232,2
2024-06-14 10:09:47.438,4.83,-1.82,-2.24,-0.06490399999999999,-0.020496,-1.0955599999999999,2
2024-06-14 10:09:47.443,5.81,-2.24,-4.27,-0.040015999999999996,-0.053192,-1.0857999999999999,2
2024-06-14 10:09:47.448,4.41,-0.7,-4.27,-0.038064,-0.044896,-1.082872,2
2024-06-14 10:09:47.453,2.94,-0.84,-3.78,-0.045872,-0.035135999999999994,-1.101904,2
2024-06-14 10:09:47.458,2.8,-1.89,-3.71,-0.06831999999999999,-0.025864,-1.0955599999999999,2
2024-06-14 10:09:47.463,2.45,-3.85,-3.92,-0.07564,-0.034648,-1.0970239999999998,2
2024-06-14 10:09:47.467,1.33,-6.79,-3.92,-0.07173600000000001,-0.040015999999999996,-1.091656,2
2024-06-14 10:09:47.472,0.14,-9.17,-4.06,-0.066856,-0.037088,-1.096048,2
2024-06-14 10:09:47.477,-0.49,-11.13,-3.92,-0.066856,-0.033184,-1.087752,2
2024-06-14 10:09:47.482,-0.91,-12.74,-3.85,-0.06588,-0.032695999999999996,-1.084336,2
2024-06-14 10:09:47.487,-0.84,-14.28,-3.78,-0.06344,-0.029768,-1.087752,2
2024-06-14 10:09:47.491,-0.84,-15.68,-3.57,-0.056119999999999996,-0.028791999999999998,-1.09068,2
2024-06-14 10:09:47.496,-0.56,-16.94,-3.29,-0.058072,-0.031232,-1.0984880000000001,2
2024-06-14 10:09:47.501,-0.7,-18.34,-3.01,-0.062952,-0.038064,-1.092632,2
2024-06-14 10:09:47.506,-0.77,-19.53,-2.87,-0.061488,-0.030256,-1.086776,2
2024-06-14 10:09:47.511,-0.56,-19.53,-2.87,-0.059536,-0.028304,-1.086776,2
2024-06-14 10:09:47.515,-0.21,-19.11,-2.66,-0.057095999999999994,-0.026352,-1.0833599999999999,2
2024-06-14 10:09:47.520,0.21,-19.67,-2.52,-0.052704,-0.028304,-1.08824,2
2024-06-14 10:09:47.525,0.77,-20.44,-2.52,-0.054168,-0.030744,-1.083848,2
2024-06-14 10:09:47.530,1.33,-20.79,-2.38,-0.049775999999999994,-0.028791999999999998,-1.079944,2
2024-06-14 10:09:47.535,2.31,-21.14,-2.24,-0.047335999999999996,-0.02684,-1.0789680000000001,2
2024-06-14 10:09:47.539,3.08,-21.42,-2.17,-0.04392,-0.02684,-1.081408,2
2024-06-14 10:09:47.544,3.85,-21.49,-2.17,-0.041479999999999996,-0.029768,-1.0760399999999999,2
2024-06-14 10:09:47.549,4.62,-21.21,-2.17,-0.03904,-0.02928,-1.073112,2
2024-06-14 10:09:47.554,5.25,-20.79,-2.03,-0.035624,-0.026352,-1.074088,2
2024-06-14 10:09:47.559,5.81,-20.44,-2.1,-0.030744,-0.029768,-1.0760399999999999,2
2024-06-14 10:09:47.563,6.3,-19.81,-2.1,-0.029768,-0.034159999999999996,-1.074576,2
2024-06-14 10:09:47.568,6.44,-19.46,-2.17,-0.033184,-0.032695999999999996,-1.074088,2
2024-06-14 10:09:47.573,6.58,-19.46,-2.1,-0.030256,-0.044408,-1.072136,2
2024-06-14 10:09:47.578,6.09,-19.39,-2.03,-0.026352,-0.042455999999999994,-1.0760399999999999,2
2024-06-14 10:09:47.583,5.6,-19.04,-2.03,-0.022936,-0.04636,-1.075064,2
2024-06-14 10:09:47.587,4.9,-19.32,-1.96,-0.023424,-0.045872,-1.074088,2
2024-06-14 10:09:47.592,4.06,-19.32,-1.82,-0.023424,-0.049775999999999994,-1.070672,2
2024-06-14 10:09:47.597,3.15,-19.53,-1.82,-0.022448,-0.049775999999999994,-1.067256,2
2024-06-14 10:09:47.602,2.31,-19.67,-1.89,-0.020984,-0.045384,-1.072624,2
2024-06-14 10:09:47.607,1.26,-20.37,-1.75,-0.017567999999999997,-0.051728,-1.070672,2
2024-06-14 10:09:47.612,0.21,-20.79,-1.82,-0.021472,-0.046848,-1.075064,2
2024-06-14 10:09:47.616,-0.35,-20.02,-1.68,-0.016592,-0.044408,-1.0711600000000001,2
2024-06-14 10:09:47.621,-1.4,-20.58,-1.75,-0.016592,-0.048799999999999996,-1.072136,2
2024-06-14 10:09:47.626,-2.03,-23.38,-1.54,-0.011224,-0.040504,-1.073112,2
2024-06-14 10:09:47.631,-2.24,-24.22,-1.82,-0.013663999999999999,-0.038064,-1.070672,2
2024-06-14 10:09:47.636,-2.94,-24.43,-2.17,-0.0068319999999999995,-0.038552,-1.08092,2
2024-06-14 10:09:47.640,-2.45,-25.06,-1.82,-0.008783999999999998,-0.03904,-1.076528,2
2024-06-14 10:09:47.645,-2.66,-28.63,-1.54,-0.012199999999999999,-0.035624,-1.083848,2
2024-06-14 10:09:47.650,-2.45,-26.81,-1.82,-0.001464,-0.027327999999999998,-1.081408,2
2024-06-14 10:09:47.655,-12.32,-38.92,-2.94,-0.005856,-0.033671999999999994,-1.0755519999999998,2
2024-06-14 10:09:47.660,-0.28,-20.86,-1.47,-0.003904,-0.037088,-1.080432,2
2024-06-14 10:09:47.664,-0.7,-13.72,-1.82,0.001464,-0.030744,-1.0735999999999999,2
2024-06-14 10:09:47.669,-2.73,-27.02,-1.54,0.006344,-0.042944,-1.074576,2
2024-06-14 10:09:47.674,-2.52,-25.41,-2.8,0.00488,-0.039528,-1.082872,2
2024-06-14 10:09:47.679,-5.11,-31.57,-3.64,0.010736,-0.040504,-1.087752,2
2024-06-14 10:09:47.684,-4.27,-32.48,-3.01,0.011224,-0.044896,-1.09068,2
2024-06-14 10:09:47.688,-6.93,-33.81,-2.38,0.00976,-0.040015999999999996,-1.091656,2
2024-06-14 10:09:47.693,-5.39,-16.73,-2.1,0.010736,-0.040015999999999996,-1.097512,2
2024-06-14 10:09:47.698,-4.41,-34.09,-2.31,0.012688,-0.029768,-1.092144,2
2024-06-14 10:09:47.703,-3.5,-36.33,-2.73,0.020007999999999998,-0.029768,-1.0872639999999998,2
2024-06-14 10:09:47.708,-4.97,-36.96,-2.31,0.024887999999999997,-0.028791999999999998,-1.0887280000000001,2
2024-06-14 10:09:47.712,-5.32,-37.03,-1.68,0.029768,-0.03172,-1.087752,2
2024-06-14 10:09:47.717,-5.39,-37.8,-1.96,0.02928,-0.032208,-1.091168,2
2024-06-14 10:09:47.722,-6.09,-38.57,-2.45,0.035135999999999994,-0.02684,-1.086776,2
2024-06-14 10:09:47.727,-6.37,-39.9,-2.31,0.042455999999999994,-0.022448,-1.086288,2
2024-06-14 10:09:47.732,-6.65,-37.1,-1.96,0.0366,-0.017567999999999997,-1.099952,2
2024-06-14 10:09:47.736,-6.02,-38.43,-1.89,0.040992,-0.021472,-1.110688,2
2024-06-14 10:09:47.741,-6.09,-38.43,-2.24,0.041968,-0.029768,-1.1248399999999998,2
2024-06-14 10:09:47.746,-5.04,-37.31,-2.38,0.040015999999999996,-0.015616,-1.140944,2
2024-06-14 10:09:47.751,-6.09,-38.15,-2.1,0.0366,-0.005856,-1.1541199999999998,2
2024-06-14 10:09:47.756,-5.88,-42.14,-2.1,0.032208,0.005856,-1.170224,2
2024-06-14 10:09:47.761,-10.29,-47.53,-3.78,0.0732,0.020496,-1.096536,2
2024-06-14 10:09:47.765,-7.07,-43.96,-4.2,0.061975999999999996,-0.022936,-1.097512,2
2024-06-14 10:09:47.770,-7.84,-50.12,-4.55,0.064416,0.08052,-1.156072,2
2024-06-14 10:09:47.775,-10.5,-57.61,-8.26,0.07027199999999999,0.091256,-1.18096,2
2024-06-14 10:09:47.780,8.47,-60.41,-8.68,0.069296,0.040504,-1.1951120000000002,2
2024-06-14 10:09:47.785,18.9,-57.61,-7.77,0.06588,-0.044896,-1.370792,2
2024-06-14 10:09:47.789,11.48,-57.54,-6.09,0.061,-0.106384,-1.626992,2
2024-06-14 10:09:47.794,7.49,-58.73,-6.23,0.074176,-0.019032,-1.2736800000000001,2
2024-06-14 10:09:47.799,1.89,-59.85,-7.0,0.08247199999999999,-0.022936,-1.3054,2
2024-06-14 10:09:47.804,-0.21,-64.26,-6.79,0.088328,-0.076616,-1.333704,2
2024-06-14 10:09:47.809,-1.89,-67.9,-5.81,0.0732,-0.077104,-1.316136,2
2024-06-14 10:09:47.813,-3.43,-70.56,-4.76,0.074176,-0.12688,-1.283928,2
2024-06-14 10:09:47.818,-3.64,-73.43,-2.03,0.091744,-0.19910399999999998,-1.304912,2
2024-06-14 10:09:47.823,-5.46,-78.54,-0.14,0.083448,-0.048799999999999996,-1.326872,2
2024-06-14 10:09:47.828,-11.41,-82.32,-0.28,0.098088,-0.059536,-1.328824,2
2024-06-14 10:09:47.833,-13.58,-87.01,0.56,0.091744,-0.096624,-1.327848,2
2024-06-14 10:09:47.837,-17.01,-93.1,1.33,0.09516,-0.048312,-1.383968,2
2024-06-14 10:09:47.842,-16.8,-98.0,1.61,0.089792,-0.048312,-1.369816,2
2024-06-14 10:09:47.847,-24.01,-104.86,1.47,0.096624,-0.051728,-1.406904,2
2024-06-14 10:09:47.852,-20.86,-110.74,2.03,0.096136,-0.041968,-1.392752,2
2024-06-14 10:09:47.857,-27.72,-118.58,1.68,0.095648,-0.021472,-1.43472,2
2024-06-14 10:09:47.861,-26.25,-124.46,1.61,0.106384,-0.024399999999999998,-1.4508240000000001,2
2024-06-14 10:09:47.866,-28.07,-131.32,1.4,0.104432,-0.012199999999999999,-1.489376,2
2024-06-14 10:09:47.871,-24.15,-139.65,1.12,0.108336,0.005856,-1.470832,2
2024-06-14 10:09:47.876,-29.26,-146.16,-0.07,0.113704,0.027327999999999998,-1.4771759999999998,2
2024-06-14 10:09:47.881,-31.78,-154.49,-1.26,0.11419199999999999,0.01464,-1.462048,2
2024-06-14 10:09:47.885,-34.09,-163.1,-2.52,0.11956,0.022936,-1.483032,2
2024-06-14 10:09:47.890,-37.66,-171.22,-3.64,0.156648,-0.014152,-1.5611119999999998,2
2024-06-14 10:09:47.895,-43.82,-181.58,-4.2,0.16591999999999998,-0.020496,-1.595272,2
2024-06-14 10:09:47.900,-47.95,-192.71,-4.69,0.1586,-0.034648,-1.628456,2
2024-06-14 10:09:47.905,-47.95,-204.54,-4.83,0.12932,-0.009272,-1.66896,2
2024-06-14 10:09:47.909,-51.87,-216.72,-5.46,0.10052799999999999,0.013663999999999999,-1.763632,3
2024-06-14 10:09:47.914,-42.98,-227.64,-6.02,0.076616,0.056608,-1.851472,3
2024-06-14 10:09:47.919,-41.3,-237.09,-8.33,0.050752,0.124928,-1.810968,3
2024-06-14 10:09:47.924,-42.56,-251.44,-11.76,0.045384,0.16348,-1.6796959999999999,3
2024-06-14 10:09:47.929,-38.01,-265.02,-15.05,0.045384,0.069296,-1.7880319999999998,3
2024-06-14 10:09:47.934,-33.25,-279.58,-15.68,0.045872,-0.076616,-1.833416,3
2024-06-14 10:09:47.938,-25.48,-293.86,-13.72,0.093696,-0.113704,-1.9036879999999998,3
2024-06-14 10:09:47.943,-27.37,-308.7,-12.46,0.076128,-0.00244,-2.003728,3
2024-06-14 10:09:47.948,-31.78,-323.54,-12.88,0.09467199999999999,-0.018544,-2.057896,3
2024-06-14 10:09:47.953,-29.54,-338.59,-11.76,0.087352,-0.034159999999999996,-2.129632,3
2024-06-14 10:09:47.958,-25.69,-351.75,-10.85,0.147864,-0.062952,-2.2628559999999998,3
2024-06-14 10:09:47.962,-18.2,-367.29,-9.38,0.10003999999999999,-0.093696,-2.300432,3
2024-06-14 10:09:47.967,-5.53,-380.1,-7.84,0.237656,-0.219112,-2.399496,3
2024-06-14 10:09:47.972,12.95,-392.63,-1.96,0.23082399999999997,-0.340136,-2.4512240000000003,3
2024-06-14 10:09:47.977,22.19,-400.05,8.33,0.3172,-0.105408,-2.743536,3
2024-06-14 10:09:47.982,-0.21,-402.36,6.23,0.215208,0.206424,-2.778672,3
2024-06-14 10:09:47.986,-5.39,-401.52,5.53,0.363072,-0.098088,-2.6405679999999996,3
2024-06-14 10:09:47.991,3.99,-403.2,12.74,0.06539199999999999,-0.325984,-2.691808,3
2024-06-14 10:09:47.996,7.21,-409.08,17.71,0.040015999999999996,-0.158112,-2.727432,3
2024-06-14 10:09:48.001,14.49,-414.54,21.35,-0.13566399999999998,-0.119072,-2.739632,3
2024-06-14 10:09:48.006,24.64,-416.29,24.08,-0.232288,-0.020984,-2.665944,3
2024-06-14 10:09:48.010,32.06,-421.96,24.36,-0.43968799999999997,0.056119999999999996,-2.66936,3
2024-06-14 10:09:48.015,35.91,-431.2,25.76,-0.526552,0.08003199999999999,-2.670336,3
2024-06-14 10:09:48.020,31.22,-440.86,24.43,-0.837408,0.09955199999999999,-2.585912,3
2024-06-14 10:09:48.025,24.64,-448.84,23.38,-1.044808,0.18788,-2.356064,3
2024-06-14 10:09:48.030,19.67,-454.09,20.37,-1.160952,0.319152,-1.941752,3
2024-06-14 10:09:48.034,20.86,-448.28,16.1,-1.3468799999999999,0.3782,-1.336144,3
2024-06-14 10:09:48.039,23.8,-423.64,14.28,-1.14924,0.39771999999999996,-0.44700799999999996,3
2024-06-14 10:09:48.044,49.77,-370.79,23.03,-1.0384639999999998,0.289872,-0.44700799999999996,3
2024-06-14 10:09:48.049,34.16,-276.85,25.97,-1.414712,0.12395199999999999,-1.6225999999999998,3
2024-06-14 10:09:48.054,24.01,-185.5,30.66,-1.3293119999999998,-0.0034159999999999998,-1.82024,3
2024-06-14 10:09:48.058,21.35,-96.18,34.02,-1.360056,0.038064,-1.3273599999999999,3
2024-06-14 10:09:48.063,29.26,-10.5,35.63,-1.508896,0.101992,-1.0145520000000001,3
2024-06-14 10:09:48.068,41.72,56.98,35.49,-1.383968,0.085888,-1.062864,3
2024-06-14 10:09:48.073,50.26,100.17,32.69,-1.113128,0.10052799999999999,-1.19072,3
2024-06-14 10:09:48.078,51.17,122.78,26.67,-0.889624,0.1586,-1.192672,3
2024-06-14 10:09:48.083,47.18,130.62,18.06,-0.766648,0.194712,-1.105808,3
2024-06-14 10:09:48.087,40.18,129.78,8.19,-0.6895439999999999,0.216184,-0.9774639999999999,3
2024-06-14 10:09:48.092,32.41,125.09,-2.17,-0.60268,0.23912,-0.838384,3
2024-06-14 10:09:48.097,25.83,119.0,-12.81,-0.541192,0.235704,-0.75152,3
2024-06-14 10:09:48.102,19.04,112.56,-23.52,-0.510936,0.203984,-0.70272,3
2024-06-14 10:09:48.107,12.53,107.17,-32.97,-0.479704,0.155184,-0.658312,3
2024-06-14 10:09:48.111,7.56,103.53,-40.53,-0.46652799999999994,0.096624,-0.618784,3
2024-06-14 10:09:48.116,4.97,102.55,-45.71,-0.46555199999999997,0.028791999999999998,-0.594384,3
2024-06-14 10:09:48.121,4.9,104.86,-48.65,-0.477752,-0.038064,-0.57584,3
2024-06-14 10:09:48.126,7.28,110.74,-49.42,-0.494832,-0.10052799999999999,-0.56852,4
2024-06-14 10:09:48.131,11.62,120.4,-48.3,-0.5192319999999999,-0.159576,-0.57096,4
2024-06-14 10:09:48.135,17.99,134.12,-45.64,-0.554856,-0.196176,-0.5787680000000001,4
2024-06-14 10:09:48.140,25.41,151.34,-41.72,-0.5875520000000001,-0.21032800000000001,-0.584136,4
2024-06-14 10:09:48.145,34.44,171.36,-37.17,-0.6104879999999999,-0.21472,-0.6056079999999999,4
2024-06-14 10:09:48.150,43.47,192.36,-32.41,-0.618296,-0.195688,-0.650992,4
2024-06-14 10:09:48.155,51.38,212.87,-28.21,-0.593896,-0.162992,-0.701256,4
2024-06-14 10:09:48.159,57.12,231.35,-24.85,-0.574376,-0.107848,-0.752008,4
2024-06-14 10:09:48.164,60.27,247.31,-22.68,-0.535824,-0.049288,-0.796904,4
2024-06-14 10:09:48.169,60.41,260.4,-21.84,-0.488,0.00244,-0.840336,4
2024-06-14 10:09:48.174,57.75,270.48,-21.84,-0.43188,0.044408,-0.882304,4
2024-06-14 10:09:48.179,53.62,277.83,-22.19,-0.38112799999999997,0.06588,-0.927688,4
2024-06-14 10:09:48.183,48.93,283.08,-22.47,-0.32500799999999996,0.073688,-0.96624,4
2024-06-14 10:09:48.188,44.66,286.79,-22.54,-0.28792,0.061,-0.999424,4
2024-06-14 10:09:48.193,41.44,290.15,-22.05,-0.251808,0.047824,-1.0267519999999999,4
2024-06-14 10:09:48.198,39.69,293.16,-21.14,-0.224968,0.03172,-1.054568,4
2024-06-14 10:09:48.203,38.99,296.24,-19.67,-0.203984,0.024887999999999997,-1.09068,4
2024-06-14 10:09:48.207,39.48,299.32,-17.92,-0.189832,0.011712,-1.129232,4
2024-06-14 10:09:48.212,40.74,302.75,-16.1,-0.17616800000000002,0.00488,-1.160952,4
2024-06-14 10:09:48.217,42.07,306.39,-14.42,-0.16835999999999998,0.010248,-1.2014559999999999,4
2024-06-14 10:09:48.222,42.77,310.73,-13.23,-0.164456,0.025864,-1.243424,4
2024-06-14 10:09:48.227,42.07,315.56,-12.74,-0.16591999999999998,0.049288,-1.284416,4
2024-06-14 10:09:48.232,39.9,320.74,-13.09,-0.16494399999999998,0.073688,-1.325408,4
2024-06-14 10:09:48.236,36.33,326.41,-14.14,-0.162016,0.09272,-1.374696,4
2024-06-14 10:09:48.241,32.2,332.29,-15.68,-0.145424,0.10492,-1.422032,4
2024-06-14 10:09:48.246,27.58,338.31,-17.57,-0.137616,0.110288,-1.495232,4
2024-06-14 10:09:48.251,21.07,343.14,-19.88,-0.115656,0.13712799999999997,-1.54208,4
2024-06-14 10:09:48.256,14.84,347.9,-22.33,-0.1098,0.137616,-1.5942960000000002,4
2024-06-14 10:09:48.260,8.54,352.24,-25.2,-0.09028,0.12980799999999998,-1.62504,4
2024-06-14 10:09:48.265,3.57,355.6,-27.86,-0.06783199999999999,0.117608,-1.675792,4
2024-06-14 10:09:48.270,-0.63,357.77,-30.38,-0.032695999999999996,0.11663199999999999,-1.736792,4
2024-06-14 10:09:48.275,-4.83,358.19,-32.9,0.00976,0.11712,-1.7958399999999999,4
2024-06-14 10:09:48.280,-9.52,356.79,-35.49,0.059536,0.125904,-1.870992,4
2024-06-14 10:09:48.284,-14.7,353.78,-38.43,0.105408,0.13078399999999998,-1.946144,4
2024-06-14 10:09:48.289,-21.14,349.3,-41.79,0.166408,0.14152,-2.011048,4
2024-06-14 10:09:48.294,-28.14,343.35,-45.57,0.225456,0.155672,-2.0754639999999998,4
2024-06-14 10:09:48.299,-35.98,335.3,-50.12,0.287432,0.16348,-2.163792,4
2024-06-14 10:09:48.304,-44.38,325.71,-55.02,0.358192,0.17324,-2.255048,4
2024-06-14 10:09:48.308,-54.11,314.86,-60.48,0.425536,0.180072,-2.3467919999999998,4
2024-06-14 10:09:48.313,-64.75,304.15,-66.22,0.486048,0.186904,-2.443904,4
2024-06-14 10:09:48.318,-76.16,294.98,-71.96,0.543144,0.171288,-2.5341839999999998,4
2024-06-14 10:09:48.323,-86.17,289.59,-77.7,0.613416,0.13078399999999998,-2.593232,4
2024-06-14 10:09:48.328,-94.15,288.75,-83.16,0.6846639999999999,0.081008,-2.608848,4
2024-06-14 10:09:48.332,-99.89,292.32,-88.48,0.75152,0.050752,-2.625928,4
2024-06-14 10:09:48.337,-105.14,298.13,-93.45,0.845216,0.048312,-2.6781439999999996,4
2024-06-14 10:09:48.342,-112.07,304.15,-97.58,0.96868,0.057095999999999994,-2.735728,4
2024-06-14 10:09:48.347,-120.05,309.26,-100.66,1.091656,0.043432000000000005,-2.7532959999999997,4
2024-06-14 10:09:48.352,-126.77,312.62,-101.78,1.226832,-0.018056000000000003,-2.746952,4
2024-06-14 10:09:48.356,-128.94,313.95,-100.52,1.372256,-0.11516799999999999,-2.7030320000000003,4
2024-06-14 10:09:48.361,-124.81,313.46,-96.11,1.4942559999999998,-0.2196,-2.633248,4
2024-06-14 10:09:48.366,-114.03,311.57,-88.27,1.602104,-0.310368,-2.535648,4
2024-06-14 10:09:48.371,-99.26,309.54,-78.89,1.713856,-0.399184,-2.43268,4
2024-06-14 10:09:48.376,-84.84,306.88,-68.39,1.815848,-0.397232,-2.340936,4
2024-06-14 10:09:48.376,-74.27,303.31,-57.75,1.9017359999999999,-0.382104,-2.253096,4
2024-06-14 10:09:48.380,-70.42,297.99,-48.44,2.010072,-0.35136,-2.180872,4
2024-06-14 10:09:48.385,-72.31,290.64,-40.32,2.123776,-0.330864,-2.101816,4
2024-06-14 10:09:48.390,-76.02,280.49,-33.74,2.234064,-0.340624,-2.003728,4
2024-06-14 10:09:48.395,-76.58,267.26,-28.14,2.3458159999999997,-0.362584,-1.8958799999999998,4
2024-06-14 10:09:48.400,-73.64,251.65,-24.01,2.478064,-0.391864,-1.811456,4
2024-06-14 10:09:48.404,-68.11,235.06,-21.77,2.629832,-0.39283999999999997,-1.72264,4
2024-06-14 10:09:48.409,-60.9,218.68,-21.7,2.820152,-0.39820799999999995,-1.619672,4
2024-06-14 10:09:48.414,-52.29,203.14,-23.8,3.0417039999999997,-0.386984,-1.4864479999999998,4
2024-06-14 10:09:48.419,-42.91,187.67,-27.72,3.2857039999999995,-0.382104,-1.343952,4
2024-06-14 10:09:48.424,-34.58,170.52,-32.9,3.5384879999999996,-0.40650400000000003,-1.2214639999999999,4
2024-06-14 10:09:48.429,-29.75,149.59,-37.24,3.7668719999999998,-0.484096,-1.15168,4
2024-06-14 10:09:48.433,-26.11,122.78,-38.57,3.9254719999999996,-0.6114639999999999,-1.1253279999999999,4
2024-06-14 10:09:48.438,-18.9,89.74,-36.89,3.97964,-0.8496079999999999,-1.113128,4
2024-06-14 10:09:48.443,-3.85,51.03,-31.22,3.8512959999999996,-0.957456,-1.101904,4
2024-06-14 10:09:48.448,20.37,10.57,-21.49,3.6175439999999996,-1.023336,-1.080432,4
2024-06-14 10:09:48.453,49.77,-27.86,-9.59,3.3032719999999998,-1.006256,-1.0833599999999999,4
2024-06-14 10:09:48.458,77.07,-59.92,3.29,2.968504,-0.885232,-1.106296,4
2024-06-14 10:09:48.462,96.81,-82.95,16.03,2.62056,-0.723216,-1.139968,4
2024-06-14 10:09:48.467,106.33,-96.39,27.16,2.297504,-0.5343600000000001,-1.178032,4
2024-06-14 10:09:48.472,106.68,-101.57,36.33,2.026176,-0.371368,-1.2048720000000002,4
2024-06-14 10:09:48.477,100.94,-101.36,43.82,1.793888,-0.260104,-1.220488,4
2024-06-14 10:09:48.482,92.33,-99.05,50.12,1.5128,-0.20007999999999998,-1.235616,4
2024-06-14 10:09:48.487,62.09,-305.2,15.82,-0.7539600000000001,0.19276,-10.474431999999998,4
