time,gyroscope_x,gyroscope_y,gyroscope_z,accelerometer_x,accelerometer_y,accelerometer_z,phase
2024-06-14 07:23:53.648,-98.525,-238.245,-130.26999999999998,-4.975648,1.167052,2.851872,1
2024-06-14 07:23:53.652,-94.36,-243.775,-107.625,-2.292624,0.293776,0.22521199999999997,1
2024-06-14 07:23:53.657,-176.85500000000002,-321.475,-97.22999999999999,-1.413004,0.18739199999999998,-0.459208,1
2024-06-14 07:23:53.662,-215.11,-367.815,-99.08500000000001,0.102968,0.136152,-1.5628199999999999,1
2024-06-14 07:23:53.667,-159.075,-381.255,-104.265,0.761036,0.430904,-1.9771320000000001,1
2024-06-14 07:23:53.672,-98.805,-413.595,-101.08,0.6100000000000001,0.547536,-2.025932,1
2024-06-14 07:23:53.676,-53.515,-390.04,-94.00999999999999,0.13176,0.45286400000000004,-2.340936,1
2024-06-14 07:23:53.681,-29.68,-357.70000000000005,-80.675,-0.154696,0.655872,-2.375096,1
2024-06-14 07:23:53.686,-44.275000000000006,-340.725,-52.325,-0.065148,0.871324,-2.313608,1
2024-06-14 07:23:53.691,-54.53,-343.03499999999997,-17.36,0.029036,0.7942199999999999,-2.203808,2
2024-06-14 07:23:53.696,-62.825,-354.655,12.775,-0.038796,0.590236,-1.922232,2
2024-06-14 07:23:53.701,-55.474999999999994,-352.59,32.41,-0.15616000000000002,0.268644,-1.78974,2
2024-06-14 07:23:53.705,-38.815,-330.155,38.5,-0.20496,-0.06173199999999998,-1.616012,2
2024-06-14 07:23:53.710,-38.114999999999995,-301.35,29.505,-0.0854,-0.35624,-1.829024,2
2024-06-14 07:23:53.715,-32.025,-262.255,10.92,0.013420000000000001,-0.37698,-2.0232479999999997,2
2024-06-14 07:23:53.720,-26.564999999999998,-205.58999999999997,-7.455,0.083204,-0.257176,-2.225524,2
2024-06-14 07:23:53.725,-21.14,-151.82999999999998,-18.725,0.06588000000000001,-0.11321600000000001,-1.80316,2
2024-06-14 07:23:53.730,-19.53,-119.035,-19.95,0.011223999999999998,0.032696,-1.61528,2
2024-06-14 07:23:53.734,-19.04,-86.625,-13.86,0.041235999999999995,0.111996,-1.5013319999999999,2
2024-06-14 07:23:53.739,-15.995,-63.105,-5.495,0.037087999999999996,0.073444,-1.3576160000000002,2
2024-06-14 07:23:53.744,-10.535,-52.5,-0.175,0.011467999999999999,0.038796,-1.237812,2
2024-06-14 07:23:53.749,-4.6899999999999995,-46.2,0.875,-0.016104,-0.020984000000000003,-1.164856,2
2024-06-14 07:23:53.754,-0.21000000000000008,-41.334999999999994,-1.575,-0.06417199999999999,-0.049288,-1.160708,2
2024-06-14 07:23:53.759,4.83,-44.52,-4.41,-0.052948,-0.053191999999999996,-1.133136,2
2024-06-14 07:23:53.763,5.25,-41.195,-5.18,-0.090768,-0.03172,-1.1458240000000002,2
2024-06-14 07:23:53.768,5.32,-40.285,-3.5,0.0039040000000000004,0.002928,-1.1101999999999999,2
2024-06-14 07:23:53.773,4.27,-39.864999999999995,-1.6099999999999999,-0.076372,-0.08003199999999999,-1.090436,2
2024-06-14 07:23:53.778,4.795,-43.540000000000006,-1.365,-0.04636,-0.013908000000000004,-1.083604,2
2024-06-14 07:23:53.783,8.33,-45.849999999999994,-1.26,-0.099796,-0.005856,-1.020164,2
2024-06-14 07:23:53.788,10.64,-45.745000000000005,-0.7,-0.134688,-0.0183,-0.953552,2
2024-06-14 07:23:53.792,10.29,-43.435,0.21,-0.15982,-0.026596,-0.9730719999999999,2
2024-06-14 07:23:53.797,9.24,-42.105000000000004,1.6099999999999999,-0.094916,-0.03172,-1.0018639999999999,2
2024-06-14 07:23:53.802,8.19,-40.95,2.205,-0.086864,-0.042456,-1.0213839999999998,2
2024-06-14 07:23:53.807,7.35,-40.705,1.9949999999999999,-0.063196,-0.0427,-1.014552,2
2024-06-14 07:23:53.812,6.545,-37.345,1.715,-0.09198799999999999,-0.04392,-0.998448,2
2024-06-14 07:23:53.817,4.515000000000001,-35.769999999999996,1.6800000000000002,-0.055875999999999995,-0.047824,-0.976244,2
2024-06-14 07:23:53.821,3.57,-34.335,2.03,-0.12224399999999999,-0.027083999999999997,-0.978684,2
2024-06-14 07:23:53.826,3.255,-32.69,2.415,-0.10003999999999999,-0.021471999999999998,-0.9982039999999999,2
2024-06-14 07:23:53.831,3.5700000000000003,-32.864999999999995,2.345,-0.095648,-0.021471999999999998,-1.006744,2
2024-06-14 07:23:53.836,3.745,-33.285,2.17,-0.09881999999999999,-0.023668,-1.037488,2
2024-06-14 07:23:53.841,3.885,-34.019999999999996,2.24,-0.084668,-0.030255999999999998,-1.029192,2
2024-06-14 07:23:53.845,3.465,-33.739999999999995,1.8900000000000001,-0.06709999999999999,-0.0305,-1.0165039999999999,2
2024-06-14 07:23:53.850,2.3449999999999998,-32.97,1.54,-0.051727999999999996,-0.039527999999999994,-0.987956,2
2024-06-14 07:23:53.855,0.665,-30.8,1.295,-0.029036,-0.049044,-0.9799039999999999,2
2024-06-14 07:23:53.860,-0.9099999999999999,-29.61,1.155,-0.07002799999999999,-0.041724,-1.00894,2
2024-06-14 07:23:53.865,-2.52,-28.979999999999997,0.98,-0.051484,-0.04148,-1.0018639999999999,2
2024-06-14 07:23:53.870,-3.955,-28.490000000000002,1.0150000000000001,-0.048068,-0.042456,-1.005524,2
2024-06-14 07:23:53.874,-4.76,-27.509999999999998,1.155,-0.049532,-0.040015999999999996,-0.99674,2
2024-06-14 07:23:53.879,-5.635,-26.67,1.12,-0.046116000000000004,-0.039772,-0.9962519999999999,2
2024-06-14 07:23:53.884,-5.355,-26.915,1.33,-0.052704,-0.032695999999999996,-1.008208,2
2024-06-14 07:23:53.889,-4.9350000000000005,-26.32,1.4,-0.060756000000000004,-0.028791999999999998,-1.01138,2
2024-06-14 07:23:53.894,-4.164999999999999,-26.985,1.4,-0.06758799999999998,-0.025863999999999998,-1.027972,2
2024-06-14 07:23:53.899,-1.715,-31.325,1.54,-0.056608000000000006,-0.017812,-1.0274839999999998,2
2024-06-14 07:23:53.903,-2.485,-26.11,1.68,-0.045384,-0.0244,-1.003816,2
2024-06-14 07:23:53.908,-0.98,-27.58,1.8199999999999998,-0.049532,-0.027816,-1.00284,2
2024-06-14 07:23:53.913,-0.9800000000000001,-27.86,1.785,-0.037332000000000004,-0.014395999999999999,-1.0047920000000001,2
2024-06-14 07:23:53.918,1.33,-35.525,1.995,-0.031476000000000004,-0.01464,-1.00162,2
2024-06-14 07:23:53.923,1.8900000000000001,-24.71,1.75,-0.025619999999999997,-0.012931999999999999,-1.0023520000000001,2
2024-06-14 07:23:53.928,3.36,-25.97,1.645,-0.026596,-0.015616,-1.007476,2
2024-06-14 07:23:53.932,3.955,-24.71,1.54,-0.032696,-0.020007999999999998,-1.008696,2
2024-06-14 07:23:53.937,3.99,-24.045,1.4,-0.029524,-0.027816,-1.000156,2
2024-06-14 07:23:53.942,3.71,-27.16,1.435,-0.021228,-0.030011999999999997,-0.994544,2
2024-06-14 07:23:53.947,3.115,-21.07,1.33,-0.02196,-0.026108,-0.99308,2
2024-06-14 07:23:53.952,3.605,-24.15,1.19,-0.020984,-0.032452,-0.990884,2
2024-06-14 07:23:53.957,1.6800000000000002,-20.055,1.05,-0.02074,-0.034648,-0.9938119999999999,2
2024-06-14 07:23:53.961,1.855,-21.560000000000002,1.155,-0.018056,-0.035868,-0.99308,2
2024-06-14 07:23:53.966,0.5249999999999999,-19.635,1.33,-0.01952,-0.033428,-0.99064,2
2024-06-14 07:23:53.971,0.10500000000000001,-19.04,1.4,-0.015615999999999998,-0.03294,-0.9901519999999999,2
2024-06-14 07:23:53.976,-0.31500000000000006,-19.95,1.26,-0.011712,-0.030744,-0.9943,2
2024-06-14 07:23:53.981,-1.12,-19.845,1.26,-0.007808000000000001,-0.034159999999999996,-0.9847839999999999,2
2024-06-14 07:23:53.985,-1.505,-16.695,1.26,-0.0017080000000000003,-0.029768,-0.97478,2
2024-06-14 07:23:53.990,-2.695,-11.55,1.295,-0.00122,-0.034404,-0.9677039999999999,2
2024-06-14 07:23:53.995,-3.8500000000000005,-5.67,1.4,0.008783999999999998,-0.032208,-0.9579439999999999,2
2024-06-14 07:23:54.000,-4.83,0.63,1.435,0.007075999999999999,-0.034404000000000004,-0.9530639999999999,2
2024-06-14 07:23:54.005,-5.984999999999999,6.6850000000000005,1.4,0.00122,-0.028059999999999995,-0.9567239999999999,2
2024-06-14 07:23:54.010,-6.02,10.885,1.435,-0.007807999999999999,-0.028304,-0.963312,2
2024-06-14 07:23:54.014,-6.37,12.355,1.505,-0.011712,-0.03172,-0.9725839999999999,2
2024-06-14 07:23:54.019,-6.51,11.34,1.6099999999999999,-0.025863999999999998,-0.02928,-0.9925919999999999,2
2024-06-14 07:23:54.024,-6.475,8.47,1.6800000000000002,-0.032696,-0.028303999999999996,-1.006744,2
2024-06-14 07:23:54.029,-6.65,5.005,1.75,-0.028791999999999998,-0.029036,-1.01382,2
2024-06-14 07:23:54.034,-6.615,1.155,1.855,-0.028059999999999998,-0.024155999999999997,-1.014796,2
2024-06-14 07:23:54.039,-6.6850000000000005,-1.89,1.9249999999999998,-0.028547999999999997,-0.026352,-1.017236,2
2024-06-14 07:23:54.043,-6.895,-4.41,1.9249999999999998,-0.026596,-0.016592,-1.014308,2
2024-06-14 07:23:54.048,-6.545,-6.4399999999999995,1.855,-0.02318,-0.015372,-1.008696,2
2024-06-14 07:23:54.053,-6.055,-7.98,1.7149999999999999,-0.029036,-0.017568,-1.00772,2
2024-06-14 07:23:54.059,-5.635,-9.135,1.505,-0.025619999999999997,-0.01464,-1.009428,2
2024-06-14 07:23:54.064,-5.74,-10.85,1.47,-0.024644,-0.022935999999999998,-1.013576,2
2024-06-14 07:23:54.069,-6.23,-12.355,1.6800000000000002,-0.017812,-0.029036,-1.0096720000000001,2
2024-06-14 07:23:54.073,-7.35,-13.265,1.6800000000000002,-0.017079999999999998,-0.029768000000000003,-1.0006439999999999,2
2024-06-14 07:23:54.078,-8.68,-13.055,1.8900000000000001,-0.011224000000000001,-0.033428,-0.9882,2
2024-06-14 07:23:54.083,-9.625,-11.935,2.205,-0.0026839999999999998,-0.02928,-0.9852719999999999,2
2024-06-14 07:23:54.088,-10.5,-10.079999999999998,2.59,-0.006344000000000001,-0.025619999999999997,-0.9913719999999999,2
2024-06-14 07:23:54.093,-10.955,-9.379999999999999,2.765,-0.004148,-0.022692,-0.999668,2
2024-06-14 07:23:54.097,-11.34,-9.24,2.9050000000000002,-0.004148,-0.013908,-1.001376,2
2024-06-14 07:23:54.102,-11.48,-10.15,2.9050000000000002,-0.009516,-0.012199999999999999,-1.014796,2
2024-06-14 07:23:54.107,-12.809999999999999,-11.305,2.6950000000000003,-0.011223999999999998,-0.00976,-1.016016,2
2024-06-14 07:23:54.112,-14.280000000000001,-12.879999999999999,2.625,-0.012444,-0.019032,-1.018456,2
2024-06-14 07:23:54.117,-15.54,-15.54,2.625,-0.010735999999999999,-0.020496,-1.0267519999999999,2
2024-06-14 07:23:54.122,-16.975,-19.39,2.45,-0.010735999999999999,-0.01952,-1.029924,2
2024-06-14 07:23:54.126,-18.445,-23.66,2.3449999999999998,-0.008052,-0.015615999999999998,-1.0313879999999997,2
2024-06-14 07:23:54.131,-23.52,-31.115000000000002,1.8900000000000001,-0.0039039999999999995,-0.013908,-0.997716,2
2024-06-14 07:23:54.136,-22.505000000000003,-35.035,1.645,-0.004392,-0.016836,-1.044076,2
2024-06-14 07:23:54.141,-24.115000000000002,-41.335,1.435,-0.003904,-0.022448000000000003,-1.048468,2
2024-06-14 07:23:54.146,-26.075000000000003,-45.185,1.435,0.0014639999999999998,-0.018788,-1.05286,2
2024-06-14 07:23:54.150,-28.525,-50.61,1.47,0.004392,-0.014396,-1.053592,2
2024-06-14 07:23:54.155,-30.1,-55.685,1.54,0.008296000000000001,-0.015372,-1.059448,2
2024-06-14 07:23:54.160,-30.835,-61.04,1.6099999999999999,0.012688,-0.007564,-1.06018,2
2024-06-14 07:23:54.165,-29.19,-66.08000000000001,1.8199999999999998,0.022448,-0.016836,-1.059448,2
2024-06-14 07:23:54.170,-27.79,-70.56,2.975,0.040992,-0.010003999999999999,-1.0931199999999999,2
2024-06-14 07:23:54.175,-23.17,-80.15,3.22,0.056608000000000006,-0.0075639999999999995,-1.0474919999999999,2
2024-06-14 07:23:54.179,-21.77,-93.03,2.275,0.048068,0.0549,-1.20292,2
2024-06-14 07:23:54.184,-20.545,-100.94,1.26,0.047336,-0.020739999999999998,-1.1394799999999998,3
2024-06-14 07:23:54.189,-12.04,-110.42500000000001,1.5050000000000001,0.044652,0.013663999999999999,-1.208532,3
2024-06-14 07:23:54.194,-7.84,-116.515,1.225,0.040260000000000004,0.059292,-1.319064,3
2024-06-14 07:23:54.199,-6.755000000000001,-118.44,-0.28,0.048799999999999996,0.13883600000000001,-1.4666839999999999,3
2024-06-14 07:23:54.203,-1.435,-106.82,-1.8900000000000001,0.012931999999999999,0.17202,-1.738988,3
2024-06-14 07:23:54.208,2.66,-105.38499999999999,-2.5549999999999997,0.054168,0.020252,-1.3866520000000002,3
2024-06-14 07:23:54.213,5.529999999999999,-111.78999999999999,-2.5549999999999997,0.038308,0.03172,-1.535492,3
2024-06-14 07:23:54.218,6.72,-120.925,-1.75,0.069784,-0.035624,-1.5525719999999998,3
2024-06-14 07:23:54.223,6.965,-129.045,-1.365,0.044163999999999995,0.03538,-1.5718480000000001,3
2024-06-14 07:23:54.228,6.93,-139.58,-1.26,0.054412,-0.00366,-1.566724,3
2024-06-14 07:23:54.232,8.785,-150.325,-0.63,0.052704,0.0024399999999999995,-1.597468,3
2024-06-14 07:23:54.237,11.094999999999999,-163.275,0.07000000000000003,0.033428,-0.019276,-1.608936,3
2024-06-14 07:23:54.242,15.645,-172.97,2.17,0.11126399999999999,-0.098576,-1.6713999999999998,3
2024-06-14 07:23:54.247,18.305,-183.925,4.445,0.077348,-0.065392,-1.70678,3
2024-06-14 07:23:54.252,20.299999999999997,-196.525,6.335,0.030988,-0.053924,-1.700192,3
2024-06-14 07:23:54.257,26.145000000000003,-208.565,9.1,0.026596,-0.046116000000000004,-1.767048,3
2024-06-14 07:23:54.261,29.645000000000003,-220.71,11.27,0.012931999999999999,-0.013663999999999999,-1.845616,3
2024-06-14 07:23:54.266,28.245,-230.685,12.635,-0.015616,0.055388,-1.928088,3
2024-06-14 07:23:54.271,31.15,-246.29500000000002,12.635,-0.031232000000000003,0.051972000000000004,-1.9949439999999998,3
2024-06-14 07:23:54.276,38.254999999999995,-266.41999999999996,12.495000000000001,-0.038796,-0.067344,-2.099376,3
2024-06-14 07:23:54.281,40.915,-287.875,11.34,-0.16665200000000002,0.0007319999999999965,-2.156472,3
2024-06-14 07:23:54.285,43.575,-310.24,19.88,-0.157868,-0.142984,-2.2299160000000002,3
2024-06-14 07:23:54.290,45.57,-338.31,25.375,-0.17299599999999998,-0.19032,-2.261392,3
2024-06-14 07:23:54.295,48.825,-366.695,31.009999999999998,-0.20862,-0.216672,-2.338984,3
2024-06-14 07:23:54.300,49.175,-397.18,36.120000000000005,-0.262544,-0.189344,-2.4624479999999997,3
2024-06-14 07:23:54.305,48.125,-431.83,39.935,-0.27449999999999997,-0.176412,-2.561756,3
2024-06-14 07:23:54.310,47.25,-469.28,42.595,-0.31476,-0.143228,-2.728164,3
2024-06-14 07:23:54.314,45.185,-507.53499999999997,43.435,-0.311344,-0.059536000000000006,-2.877736,3
2024-06-14 07:23:54.319,45.114999999999995,-542.4300000000001,41.615,-0.24961199999999997,-0.052216,-2.992416,3
2024-06-14 07:23:54.324,62.965,-575.19,43.19,-0.18446400000000002,-0.11956,-3.0009559999999995,3
2024-06-14 07:23:54.329,65.975,-594.755,46.025,0.23643599999999998,-0.192516,-3.228608,3
2024-06-14 07:23:54.334,67.62,-606.13,33.25,0.410896,0.078812,-3.5711839999999997,3
2024-06-14 07:23:54.338,71.12,-599.83,28.560000000000002,0.482144,0.077348,-3.674884,3
2024-06-14 07:23:54.343,70.41999999999999,-594.4749999999999,23.03,0.786168,0.155184,-3.690988,3
2024-06-14 07:23:54.348,78.33,-596.89,11.55,0.407236,-0.157624,-3.6282799999999997,4
2024-06-14 07:23:54.353,104.23,-586.2149999999999,16.31,0.193248,-0.29402,-3.527508,4
2024-06-14 07:23:54.358,109.235,-583.625,27.86,0.5185,0.063196,-3.4142919999999997,4
2024-06-14 07:23:54.363,88.27000000000001,-591.6400000000001,26.950000000000003,-0.01586,0.221308,-3.422588,4
2024-06-14 07:23:54.367,73.11500000000001,-581.42,37.66,0.319396,0.122732,-2.807708,4
2024-06-14 07:23:54.372,47.46,-563.115,40.425,0.201544,-0.008539999999999999,-2.915556,4
2024-06-14 07:23:54.377,23.835,-527.905,40.74,-0.15982,-0.054900000000000004,-2.850164,4
2024-06-14 07:23:54.382,4.199999999999999,-488.985,43.120000000000005,-0.403576,-0.10833599999999999,-2.842356,4
2024-06-14 07:23:54.387,-13.825,-449.96000000000004,45.5,-0.7407839999999999,-0.239608,-2.6073839999999997,4
2024-06-14 07:23:54.391,-34.09,-400.75,44.03,-1.4193479999999998,-0.201788,-2.0679,4
2024-06-14 07:23:54.396,-51.24,-341.915,36.61,-2.1501279999999996,-0.12102399999999999,-1.53598,4
2024-06-14 07:23:54.401,-60.9,-271.66999999999996,29.189999999999998,-2.365336,-0.175924,-1.148264,4
2024-06-14 07:23:54.406,-69.3,-201.495,21.560000000000002,-1.3161359999999998,-0.25912799999999997,-0.983076,4
2024-06-14 07:23:54.411,-79.8,-180.845,0.14000000000000012,-1.5791680000000001,-0.415776,-0.5934079999999999,4
2024-06-14 07:23:54.416,-60.13,-107.83500000000001,-14.945,-2.0513079999999997,-0.713456,-0.676612,4
2024-06-14 07:23:54.420,-49.525000000000006,-3.289999999999999,-21.21,-2.0693639999999998,-0.25546800000000003,-0.893528,4
2024-06-14 07:23:54.425,-40.81,78.015,-27.02,-1.73118,-0.109068,-0.961116,4
2024-06-14 07:23:54.430,-42.28,126.21,-34.51,-1.418372,-0.136884,-0.8720559999999999,4
2024-06-14 07:23:54.435,-54.53,156.03,-41.055,-1.22976,-0.083448,-0.816424,4
2024-06-14 07:23:54.440,-66.675,179.69,-44.24,-1.111176,-0.043188000000000004,-0.86742,4
2024-06-14 07:23:54.444,-74.305,197.645,-43.925,-1.013332,-0.10784799999999999,-0.8747400000000001,4
2024-06-14 07:23:54.449,-78.57499999999999,208.215,-40.53,-0.93086,-0.217648,-0.802272,4
2024-06-14 07:23:54.454,-79.275,213.22,-34.825,-0.8979199999999999,-0.27816,-0.6846639999999999,4
2024-06-14 07:23:54.459,-76.055,215.60000000000002,-27.299999999999997,-0.877424,-0.28645600000000004,-0.5851120000000001,4
2024-06-14 07:23:54.464,-71.435,217.21,-18.935000000000002,-0.849364,-0.265472,-0.5407040000000001,4
2024-06-14 07:23:54.469,-68.39,218.08499999999998,-10.465,-0.8003199999999999,-0.262544,-0.530944,4
2024-06-14 07:23:54.473,-66.605,218.32999999999998,-1.68,-0.752496,-0.269132,-0.5180119999999999,4
2024-06-14 07:23:54.478,-65.03,218.82,7.77,-0.7315119999999999,-0.267668,-0.479704,4
2024-06-14 07:23:54.483,-64.25999999999999,220.78,17.29,-0.731268,-0.26571599999999995,-0.428464,4
2024-06-14 07:23:54.488,-64.295,225.32999999999998,26.39,-0.7376119999999999,-0.27571999999999997,-0.395524,4
2024-06-14 07:23:54.493,-64.08500000000001,232.225,34.965,-0.741028,-0.296704,-0.39259599999999995,4
2024-06-14 07:23:54.497,-62.65,240.905,43.015,-0.745908,-0.312808,-0.404552,4
2024-06-14 07:23:54.502,-60.34,250.635,50.12,-0.7449319999999999,-0.320616,-0.422852,4
2024-06-14 07:23:54.507,-57.575,260.71500000000003,56.42,-0.7461519999999999,-0.316224,-0.443104,4
2024-06-14 07:23:54.512,-54.915,270.865,61.11,-0.74054,-0.305732,-0.467016,4
2024-06-14 07:23:54.517,-52.605000000000004,280.385,64.225,-0.734928,-0.285724,-0.4941,4
2024-06-14 07:23:54.522,-51.17,289.975,65.905,-0.728828,-0.25815199999999994,-0.5246,4
2024-06-14 07:23:54.526,-50.26,299.005,65.975,-0.722972,-0.240828,-0.563152,4
2024-06-14 07:23:54.531,-49.77,308.03499999999997,64.68,-0.708332,-0.23033599999999999,-0.5985320000000001,4
2024-06-14 07:23:54.536,-49.35,316.365,62.125,-0.6914959999999999,-0.220576,-0.64172,4
2024-06-14 07:23:54.541,-48.58,323.57500000000005,58.379999999999995,-0.663436,-0.214964,-0.704916,4
2024-06-14 07:23:54.546,-47.46,330.365,52.99,-0.630008,-0.20373999999999998,-0.77226,4
2024-06-14 07:23:54.550,-46.935,337.53999999999996,46.165000000000006,-0.59658,-0.21984399999999998,-0.829844,4
2024-06-14 07:23:54.555,-45.36,343.90999999999997,38.675,-0.569496,-0.25473599999999996,-0.8906000000000001,4
2024-06-14 07:23:54.560,-41.125,349.23,31.15,-0.548756,-0.284748,-0.956968,4
2024-06-14 07:23:54.565,-34.685,354.34000000000003,23.275,-0.522648,-0.308416,-1.0250439999999998,4
2024-06-14 07:23:54.570,-27.685,359.38,14.91,-0.494588,-0.321592,-1.1048319999999998,4
2024-06-14 07:23:54.575,-20.58,363.825,6.300000000000001,-0.467016,-0.317932,-1.1836440000000001,4
2024-06-14 07:23:54.579,-13.93,367.325,-2.9050000000000002,-0.440176,-0.308904,-1.2627,4
2024-06-14 07:23:54.584,-8.295,370.44,-12.425,-0.417728,-0.289628,-1.3224799999999999,4
2024-06-14 07:23:54.589,-4.725,373.625,-22.015,-0.391132,-0.27010799999999996,-1.37616,4
2024-06-14 07:23:54.594,-2.4499999999999997,375.83000000000004,-31.43,-0.367952,-0.26839999999999997,-1.427888,4
2024-06-14 07:23:54.599,-0.27999999999999997,377.125,-39.69,-0.337452,-0.282552,-1.492792,4
2024-06-14 07:23:54.602,2.135,377.15999999999997,-46.795,-0.304756,-0.30402399999999996,-1.557208,4
2024-06-14 07:23:54.606,5.074999999999999,376.53,-52.325,-0.28645600000000004,-0.33427999999999997,-1.59698,4
2024-06-14 07:23:54.611,8.26,375.97,-56.175,-0.27181599999999995,-0.3538,-1.635288,4
2024-06-14 07:23:54.616,11.9,375.40999999999997,-58.31,-0.26474,-0.372344,-1.675548,4
2024-06-14 07:23:54.621,15.82,374.64,-58.834999999999994,-0.25424800000000003,-0.393572,-1.7162959999999998,4
2024-06-14 07:23:54.626,20.265,374.605,-58.17,-0.245952,-0.400648,-1.7614359999999998,4
2024-06-14 07:23:54.631,24.85,374.43,-56.525,-0.237168,-0.39137599999999995,-1.812188,4
2024-06-14 07:23:54.635,29.189999999999998,374.99,-54.005,-0.21228,-0.386984,-1.86782,4
2024-06-14 07:23:54.640,32.83,375.025,-50.89,-0.17641199999999999,-0.372832,-1.923208,4
2024-06-14 07:23:54.645,36.05,374.71000000000004,-47.215,-0.132492,-0.360144,-1.979816,4
2024-06-14 07:23:54.650,39.165,372.4,-42.84,-0.08417999999999999,-0.35258,-2.037644,4
2024-06-14 07:23:54.655,43.120000000000005,369.32,-37.17,-0.030744,-0.369904,-2.108648,4
2024-06-14 07:23:54.660,48.405,364.945,-30.240000000000002,0.014884,-0.384544,-2.162572,4
2024-06-14 07:23:54.664,55.965,359.31,-22.295,0.05538799999999999,-0.383568,-2.221864,4
2024-06-14 07:23:54.669,65.45,353.185,-13.510000000000002,0.09540399999999999,-0.37698,-2.318488,4
2024-06-14 07:23:54.674,75.98500000000001,346.605,-3.605,0.138348,-0.36478,-2.442684,4
2024-06-14 07:23:54.679,86.52000000000001,340.83000000000004,6.65,0.167872,-0.32500799999999996,-2.5634639999999997,4
2024-06-14 07:23:54.684,96.635,336.875,16.310000000000002,0.187392,-0.260348,-2.6718,4
2024-06-14 07:23:54.689,104.86000000000001,334.845,24.71,0.21716000000000002,-0.16226,-2.7908720000000002,4
2024-06-14 07:23:54.693,109.935,334.66999999999996,30.275,0.23424,-0.043432,-2.905308,4
2024-06-14 07:23:54.698,111.09,336.875,32.62,0.261324,0.099796,-2.9992479999999997,4
2024-06-14 07:23:54.703,107.765,339.325,31.535000000000004,0.306708,0.23423999999999998,-3.068788,4
2024-06-14 07:23:54.708,100.83500000000001,341.565,27.685000000000002,0.37307599999999996,0.319152,-3.127348,4
2024-06-14 07:23:54.713,94.57,343.07,22.89,0.451644,0.33794,-3.1834680000000004,4
2024-06-14 07:23:54.718,91.97999999999999,345.16999999999996,18.48,0.531188,0.32208,-3.258132,4
2024-06-14 07:23:54.722,91.595,351.4,14.315000000000001,0.6043879999999999,0.354776,-3.305956,4
2024-06-14 07:23:54.727,88.235,362.03999999999996,9.065,0.672464,0.455792,-3.321816,4
2024-06-14 07:23:54.732,76.475,374.95500000000004,1.9949999999999999,0.772748,0.589504,-3.293756,4
2024-06-14 07:23:54.737,54.915,386.4,-7.210000000000001,0.924272,0.687836,-3.244224,4
2024-06-14 07:23:54.742,26.634999999999998,392.77,-17.115000000000002,1.1138599999999999,0.685884,-3.169804,4
2024-06-14 07:23:54.747,-3.99,391.86,-25.375,1.320772,0.531432,-3.0651279999999996,4
2024-06-14 07:23:54.751,-30.205000000000002,382.62,-29.259999999999998,1.509872,0.21228,-2.9150679999999998,4
2024-06-14 07:23:54.756,-45.185,366.45,-26.145,1.6543199999999998,-0.20959599999999998,-2.716208,4
2024-06-14 07:23:54.761,-47.495000000000005,347.62,-15.26,1.731668,-0.63806,-2.4785519999999996,4
2024-06-14 07:23:54.766,-41.65,330.82,6.615,1.83366,-1.117032,-2.297504,4
2024-06-14 07:23:54.771,-14.35,315.77,27.965,1.952,-1.453996,-2.187216,4
2024-06-14 07:23:54.776,18.48,302.96000000000004,56.77,2.096204,-1.6287,-2.087664,4
2024-06-14 07:23:54.780,54.355000000000004,291.79499999999996,87.115,2.260172,-1.588684,-1.9527320000000001,4
2024-06-14 07:23:54.785,86.72999999999999,278.39,116.27000000000001,2.4553719999999997,-1.3756719999999998,-1.838052,4
2024-06-14 07:23:54.790,115.745,260.71500000000003,142.17000000000002,2.703276,-1.024556,-1.8063319999999998,4
2024-06-14 07:23:54.795,141.19,239.295,160.57999999999998,3.028284,-0.527284,-1.831708,4
2024-06-14 07:23:54.800,160.965,215.46,167.44,3.40624,0.142252,-1.880752,4
2024-06-14 07:23:54.805,167.79000000000002,189.805,158.82999999999998,3.8427559999999996,0.926712,-1.903688,4
2024-06-14 07:23:54.809,154.45499999999998,161.525,133.945,4.237792,1.7092199999999997,-1.905152,4
2024-06-14 07:23:54.814,117.53,126.63,96.215,4.511804,2.279936,-1.8353679999999999,4
2024-06-14 07:23:54.819,62.894999999999996,86.03,53.515,4.599399999999999,2.398764,-1.715808,4
2024-06-14 07:23:54.824,8.295,43.12,16.59,4.4598320000000005,1.998604,-1.626016,4
2024-06-14 07:23:54.829,-30.03,3.64,-7.21,4.134824,1.348832,-1.568676,4
2024-06-14 07:23:54.834,-49.14,-30.380000000000003,-16.835,3.7102639999999996,0.702476,-1.52744,4
2024-06-14 07:23:54.839,-54.355000000000004,-55.37,-15.19,3.2329999999999997,0.21106,-1.49572,4
2024-06-14 07:23:54.843,-53.97,-72.94,-7.91,2.789408,-0.044163999999999995,-1.4579,4
2024-06-14 07:23:54.848,-54.144999999999996,-84.77,0.245,2.423164,-0.142984,-1.462048,4
2024-06-14 07:23:54.853,-55.650000000000006,-92.75,6.265,2.147932,-0.157624,-1.512068,4
2024-06-14 07:23:54.858,-57.68,-99.82,8.469999999999999,1.965176,-0.139324,-1.580388,4
2024-06-14 07:23:54.863,-59.394999999999996,-107.44999999999999,6.615,1.856352,-0.09296399999999999,-1.6433399999999998,4
2024-06-14 07:23:54.868,-60.76,-117.03999999999999,0.525,1.772904,-0.050264,-1.710684,4
2024-06-14 07:23:54.872,-60.655,-129.325,-9.030000000000001,1.6789640000000001,-0.021471999999999998,-1.782664,4
2024-06-14 07:23:54.877,-58.66,-141.82,-21.385,1.552816,0.00732,-1.852204,4
2024-06-14 07:23:54.882,-197.68,-246.85500000000002,-54.845,-3.077084,-0.9935679999999999,-4.6862639999999995,4
