time,gyroscope_x,gyroscope_y,gyroscope_z,accelerometer_x,accelerometer_y,accelerometer_z,phase
2024-06-14 08:35:40.092,-237.79000000000002,-238.63,38.01,4.466419999999999,-0.327692,-3.114904,1
2024-06-14 08:35:40.097,-274.225,-235.55,58.345,0.7188239999999999,-0.39503599999999994,-0.24424400000000002,1
2024-06-14 08:35:40.102,-291.725,-273.945,71.57499999999999,0.5023960000000001,0.050263999999999975,-0.22789600000000004,1
2024-06-14 08:35:40.107,-256.305,-278.11,59.64,-1.132404,-0.069296,-1.607472,1
2024-06-14 08:35:40.112,-196.175,-252.525,39.41,-1.269776,-0.78812,-1.391044,1
2024-06-14 08:35:40.116,-138.915,-249.935,4.48,-0.7198,-0.743224,-1.625772,1
2024-06-14 08:35:40.121,-110.005,-262.95500000000004,-30.415,-0.078324,-0.460916,-1.9146679999999998,1
2024-06-14 08:35:40.126,-77.63,-281.435,-53.760000000000005,0.35892399999999997,-0.08052000000000001,-2.033984,1
2024-06-14 08:35:40.131,-45.36,-296.905,-69.405,0.34574800000000006,0.15128,-2.1232879999999996,1
2024-06-14 08:35:40.136,-23.8,-289.03,-79.695,0.13054,0.43310000000000004,-2.2399199999999997,1
2024-06-14 08:35:40.140,-16.17,-255.5,-70.35,0.037576,0.76738,-2.432192,1
2024-06-14 08:35:40.145,-24.605,-202.16,-40.144999999999996,-0.004148,0.7334639999999999,-2.634956,1
2024-06-14 08:35:40.150,-28.56,-153.615,-6.475,0.065148,0.526796,-2.312876,1
2024-06-14 08:35:40.155,-19.285,-114.24,13.37,0.078568,0.273036,-2.144272,1
2024-06-14 08:35:40.160,-11.969999999999999,-97.23,13.93,0.112484,0.013176,-1.811944,1
2024-06-14 08:35:40.165,-5.495,-74.55,1.3300000000000003,0.14517999999999998,-0.231556,-2.0266640000000002,1
2024-06-14 08:35:40.169,-9.275,-47.39,-14.07,0.23058,-0.291092,-1.619672,1
2024-06-14 08:35:40.174,-15.469999999999999,-41.44,-21.665,0.151524,-0.21105999999999997,-1.512556,1
2024-06-14 08:35:40.179,-21.42,-43.19,-20.93,0.101992,0.033428,-1.433744,1
2024-06-14 08:35:40.184,-20.09,-45.115,-16.380000000000003,-0.055876,0.110044,-1.1519240000000002,1
2024-06-14 08:35:40.189,-17.955,-40.32,-10.57,-0.09540399999999999,0.09711199999999999,-1.043832,1
2024-06-14 08:35:40.194,-17.08,-32.165,-8.120000000000001,-0.08052,0.025131999999999998,-0.972828,1
2024-06-14 08:35:40.198,-18.235,-26.6,-7.385,-0.013663999999999999,-0.005612000000000001,-1.0116239999999999,2
2024-06-14 08:35:40.203,-18.97,-24.115000000000002,-7.77,-0.0026839999999999993,0.0,-1.027728,2
2024-06-14 08:35:40.208,-19.985,-21.840000000000003,-7.525,-0.016592,0.009516,-1.026752,2
2024-06-14 08:35:40.213,-21.384999999999998,-20.335,-6.055,-0.027083999999999997,0.009516,-1.0482239999999998,2
2024-06-14 08:35:40.218,-21.490000000000002,-22.015,-4.9350000000000005,-0.046848,0.0061,-1.0572519999999999,2
2024-06-14 08:35:40.222,-20.615000000000002,-24.71,-4.41,-0.062952,0.013908,-1.0789680000000001,2
2024-06-14 08:35:40.227,-18.619999999999997,-28.979999999999997,-4.13,-0.073688,0.037087999999999996,-1.112152,2
2024-06-14 08:35:40.232,-15.575,-33.355000000000004,-3.29,-0.06588,0.059536,-1.129232,2
2024-06-14 08:35:40.237,-12.425,-36.89,-2.1,-0.07344400000000001,0.054900000000000004,-1.1131280000000001,2
2024-06-14 08:35:40.242,-9.415,-39.06,-0.9450000000000001,-0.070516,0.052216,-1.083116,2
2024-06-14 08:35:40.247,-7.3149999999999995,-40.46,-0.455,-0.06880800000000001,0.033916,-1.0640839999999998,2
2024-06-14 08:35:40.251,-5.46,-42.91,-0.035,-0.070516,0.023424,-1.06994,2
2024-06-14 08:35:40.256,-3.99,-44.94,0.665,-0.068076,0.039284,-1.085068,2
2024-06-14 08:35:40.261,-1.8199999999999998,-46.13,1.26,-0.055632,0.055144,-1.1019039999999998,2
2024-06-14 08:35:40.266,1.4700000000000002,-46.864999999999995,1.365,-0.054168,0.06344,-1.0979999999999999,2
2024-06-14 08:35:40.271,5.074999999999999,-47.775,1.4,-0.072956,0.060268,-1.098732,2
2024-06-14 08:35:40.275,8.085,-50.05,1.6099999999999999,-0.074908,0.054900000000000004,-1.093608,2
2024-06-14 08:35:40.280,10.780000000000001,-53.06,1.9949999999999999,-0.070272,0.055632,-1.089216,2
2024-06-14 08:35:40.285,13.684999999999999,-56.735,2.03,-0.06514799999999998,0.046848,-1.090436,2
2024-06-14 08:35:40.290,16.310000000000002,-59.849999999999994,1.645,-0.055144,0.05734,-1.0882399999999999,2
2024-06-14 08:35:40.295,18.795,-62.09,1.435,-0.050752,0.048555999999999995,-1.0848239999999998,2
2024-06-14 08:35:40.300,20.685000000000002,-62.72,1.33,-0.030988,0.036356,-1.0857999999999999,2
2024-06-14 08:35:40.304,22.085,-65.065,0.805,-0.031476,0.029524,-1.077016,2
2024-06-14 08:35:40.309,22.995,-65.975,0.5599999999999999,-0.035623999999999996,0.028547999999999997,-1.068232,2
2024-06-14 08:35:40.314,23.59,-64.715,0.35,-0.02806,0.010004,-1.06262,2
2024-06-14 08:35:40.319,25.340000000000003,-109.865,0.21,-0.027572,-0.00732,-1.0692080000000002,2
2024-06-14 08:35:40.324,20.72,-66.64,1.155,-0.010735999999999999,-0.032452,-1.0616439999999998,2
2024-06-14 08:35:40.328,10.815,-62.685,0.7350000000000001,-0.0009760000000000003,-0.04392,-1.0735999999999999,2
2024-06-14 08:35:40.333,11.55,-64.4,0.98,0.011224,-0.043432,-1.040416,2
2024-06-14 08:35:40.338,6.195,-64.365,1.855,0.016348,-0.039527999999999994,-1.037976,2
2024-06-14 08:35:40.342,4.55,-64.47,2.4499999999999997,0.033672,-0.038307999999999995,-1.0323639999999998,2
2024-06-14 08:35:40.347,2.0300000000000002,-64.995,3.045,0.034892,-0.030988,-1.0287039999999998,2
2024-06-14 08:35:40.352,-0.385,-66.045,2.9050000000000002,0.037087999999999996,-0.020984,-1.018456,2
2024-06-14 08:35:40.356,1.33,-66.11500000000001,2.8,0.035868,-0.002928,-1.0243120000000001,2
2024-06-14 08:35:40.361,0.875,-66.85,2.52,0.041236,0.012199999999999999,-1.048956,2
2024-06-14 08:35:40.366,1.4,-67.55,2.24,0.036599999999999994,0.014395999999999999,-1.056276,2
2024-06-14 08:35:40.371,0.21000000000000002,-65.94,1.82,0.0427,0.010004,-1.0857999999999999,2
2024-06-14 08:35:40.376,-7.7,-66.99000000000001,0.28,0.03172,-0.002928,-1.1058080000000001,2
2024-06-14 08:35:40.381,-8.4,-68.25,-1.05,0.04148,0.013907999999999998,-1.097512,2
2024-06-14 08:35:40.385,-8.89,-69.78999999999999,-2.52,0.04953199999999999,0.021471999999999998,-1.114836,2
2024-06-14 08:35:40.390,-9.415,-69.895,-3.325,0.059292,0.060023999999999994,-1.117276,2
2024-06-14 08:35:40.395,1.575,-67.165,-2.38,0.054655999999999996,0.0024399999999999995,-1.169492,2
2024-06-14 08:35:40.400,4.655,-66.36,-1.54,0.082228,0.046848,-1.0923880000000001,2
2024-06-14 08:35:40.405,5.635,-65.975,-2.0300000000000002,0.07686000000000001,-0.0039040000000000004,-1.089704,2
2024-06-14 08:35:40.410,6.335000000000001,-65.41499999999999,-1.82,0.08296,-0.007808,-1.070672,2
2024-06-14 08:35:40.414,6.615,-64.61,-1.47,0.08637600000000001,0.000976,-1.061156,2
2024-06-14 08:35:40.419,7.9799999999999995,-63.7,-0.9450000000000001,0.097112,-0.012444,-1.051396,2
2024-06-14 08:35:40.424,7.49,-62.754999999999995,-0.63,0.11102,-0.004392,-1.039196,2
2024-06-14 08:35:40.429,7.35,-62.09,-0.5249999999999999,0.12566,0.0,-1.0309,2
2024-06-14 08:35:40.434,6.825,-60.864999999999995,-0.665,0.13566399999999998,0.006344,-1.027728,2
2024-06-14 08:35:40.438,6.755000000000001,-58.8,-0.84,0.140544,0.008539999999999999,-1.0213839999999998,2
2024-06-14 08:35:40.443,7.140000000000001,-56.84,-0.98,0.14493599999999998,0.002928,-1.012112,2
2024-06-14 08:35:40.448,7.105,-54.32,-1.0150000000000001,0.1525,0.00122,-1.0023520000000001,3
2024-06-14 08:35:40.453,7.07,-52.29,-0.9450000000000001,0.155672,-0.00488,-0.9957639999999999,3
2024-06-14 08:35:40.458,7.175,-50.260000000000005,-0.665,0.1586,-0.008296,-0.990884,3
2024-06-14 08:35:40.463,8.155000000000001,-48.965,-0.35,0.152256,-0.008784,-0.999668,3
2024-06-14 08:35:40.467,6.825,-47.565,-0.175,0.15250000000000002,-0.014883999999999998,-1.00772,3
2024-06-14 08:35:40.472,5.25,-46.165,-0.14,0.154208,-0.020984000000000003,-1.01992,3
2024-06-14 08:35:40.477,3.745,-45.57,0.14,0.15616,-0.023912,-1.0262639999999998,3
2024-06-14 08:35:40.482,2.695,-45.36,0.56,0.1586,-0.025864,-1.033828,3
2024-06-14 08:35:40.487,1.295,-45.114999999999995,0.77,0.159576,-0.015372,-1.05286,3
2024-06-14 08:35:40.492,-1.05,-44.59,0.735,0.16104,-0.013176,-1.062376,3
2024-06-14 08:35:40.496,-1.295,-44.38,0.9450000000000001,0.172996,-0.013663999999999999,-1.063596,3
2024-06-14 08:35:40.501,-1.33,-44.66,0.875,0.17592400000000002,-0.00122,-1.060912,3
2024-06-14 08:35:40.506,-0.98,-45.045,0.77,0.181292,0.00048799999999999994,-1.06506,3
2024-06-14 08:35:40.511,-0.385,-45.394999999999996,0.875,0.183976,0.0017080000000000003,-1.068476,3
2024-06-14 08:35:40.516,-0.21000000000000002,-45.78,0.8400000000000001,0.18422,0.0009760000000000001,-1.076772,3
2024-06-14 08:35:40.521,0.14,-46.620000000000005,0.8049999999999999,0.190808,0.000732,-1.0789680000000001,3
2024-06-14 08:35:40.525,0.455,-46.724999999999994,0.875,0.194224,-0.005124,-1.089704,3
2024-06-14 08:35:40.530,0.98,-48.09,0.84,0.19641999999999998,-0.005612,-1.085068,3
2024-06-14 08:35:40.535,2.03,-49.07,0.84,0.199104,-0.004148000000000001,-1.078968,3
2024-06-14 08:35:40.540,3.5700000000000003,-50.715,1.12,0.200812,0.0,-1.087264,3
2024-06-14 08:35:40.545,5.529999999999999,-52.394999999999996,1.12,0.207156,0.009271999999999999,-1.090924,3
2024-06-14 08:35:40.550,7.42,-54.705,1.085,0.21423199999999998,0.0075639999999999995,-1.0967799999999999,3
2024-06-14 08:35:40.554,9.485,-56.245000000000005,1.12,0.215696,0.0012199999999999997,-1.109712,3
2024-06-14 08:35:40.559,11.585,-58.59,1.26,0.215452,0.004392,-1.117032,3
2024-06-14 08:35:40.564,13.44,-61.18,1.295,0.220088,0.00732,-1.123132,3
2024-06-14 08:35:40.569,15.645,-64.25999999999999,1.19,0.223016,0.006344,-1.13582,3
2024-06-14 08:35:40.574,18.27,-67.34,1.19,0.227408,0.0060999999999999995,-1.1428960000000001,3
2024-06-14 08:35:40.578,20.755000000000003,-70.63,0.98,0.23179999999999998,0.008784,-1.153876,3
2024-06-14 08:35:40.583,22.82,-73.78,0.875,0.23399599999999998,0.0061,-1.1831559999999999,3
2024-06-14 08:35:40.588,23.8,-77.14,0.595,0.23521599999999998,0.00732,-1.199992,3
2024-06-14 08:35:40.593,24.01,-80.64,0.315,0.23912,-0.002196,-1.223904,3
2024-06-14 08:35:40.598,23.66,-84.735,0.315,0.23814400000000002,-0.011712,-1.227564,3
2024-06-14 08:35:40.603,23.134999999999998,-89.495,0.35,0.23960800000000002,-0.021716,-1.2444,3
2024-06-14 08:35:40.607,21.840000000000003,-94.185,0.595,0.242048,-0.033671999999999994,-1.2634319999999999,3
2024-06-14 08:35:40.612,20.265,-99.4,1.0150000000000001,0.24546400000000002,-0.050019999999999995,-1.280756,3
2024-06-14 08:35:40.617,18.41,-104.93,1.575,0.242292,-0.053191999999999996,-1.304668,3
2024-06-14 08:35:40.622,15.995000000000001,-110.845,1.995,0.244,-0.05734,-1.317356,3
2024-06-14 08:35:40.627,16.555,-114.1,3.01,0.256932,-0.071004,-1.34078,3
2024-06-14 08:35:40.632,16.555,-119.63,3.745,0.25790799999999997,-0.050996,-1.3063759999999998,3
2024-06-14 08:35:40.636,15.33,-128.87,4.095,0.26352,-0.046116,-1.355908,3
2024-06-14 08:35:40.641,16.205,-135.135,4.6899999999999995,0.272304,-0.049288,-1.361276,3
2024-06-14 08:35:40.646,16.17,-142.27499999999998,5.18,0.26596,-0.048556,-1.38226,3
2024-06-14 08:35:40.651,16.345,-149.695,5.88,0.26718,-0.056608000000000006,-1.402268,3
2024-06-14 08:35:40.656,16.799999999999997,-159.95,6.755,0.27937999999999996,-0.072224,-1.408856,3
2024-06-14 08:35:40.661,17.22,-169.435,7.84,0.275232,-0.082228,-1.442772,3
2024-06-14 08:35:40.665,17.814999999999998,-179.445,9.17,0.282552,-0.09076799999999999,-1.456436,3
2024-06-14 08:35:40.670,18.97,-189.91000000000003,11.06,0.280844,-0.101748,-1.486204,3
2024-06-14 08:35:40.675,18.165,-200.58499999999998,12.67,0.28059999999999996,-0.09906399999999999,-1.5189,3
2024-06-14 08:35:40.680,18.585,-210.735,14.315,0.27303599999999995,-0.11419199999999999,-1.507188,3
2024-06-14 08:35:40.685,20.055,-221.97,16.345,0.27815999999999996,-0.113704,-1.521828,3
2024-06-14 08:35:40.690,21.595,-233.51999999999998,18.235,0.280112,-0.0915,-1.5493999999999999,3
2024-06-14 08:35:40.694,22.645,-245.875,19.145,0.280844,-0.06222,-1.571848,3
2024-06-14 08:35:40.699,24.009999999999998,-258.895,19.53,0.288164,-0.072468,-1.6008840000000002,3
2024-06-14 08:35:40.704,26.39,-272.125,20.23,0.309392,-0.071004,-1.643096,3
2024-06-14 08:35:40.709,28.525,-284.48,20.615,0.33672,-0.051484,-1.685552,3
2024-06-14 08:35:40.714,29.96,-298.445,20.545,0.35819199999999995,-0.06588,-1.736548,3
2024-06-14 08:35:40.719,33.285,-311.885,20.439999999999998,0.356484,-0.09101200000000001,-1.799744,3
2024-06-14 08:35:40.723,38.29,-325.81500000000005,21.105,0.38186,-0.098576,-1.851472,3
2024-06-14 08:35:40.728,39.69,-339.5,21.455,0.446032,-0.08296,-1.937116,3
2024-06-14 08:35:40.733,37.870000000000005,-352.73,21.245,0.46433199999999997,-0.12395199999999999,-2.016172,3
2024-06-14 08:35:40.738,38.43,-363.44,22.119999999999997,0.5109360000000001,-0.229604,-2.11304,3
2024-06-14 08:35:40.743,38.675,-376.635,24.92,0.52582,-0.25839599999999996,-2.1208479999999996,3
2024-06-14 08:35:40.747,34.230000000000004,-385.98,27.265,0.573156,-0.36429199999999995,-2.306044,3
2024-06-14 08:35:40.752,34.685,-392.245,31.745,0.584136,-0.5124,-2.417796,3
2024-06-14 08:35:40.757,32.760000000000005,-398.405,39.55,0.6039,-0.535336,-2.4026680000000002,3
2024-06-14 08:35:40.762,24.009999999999998,-403.76,45.815,0.5807200000000001,-0.563884,-2.525888,3
2024-06-14 08:35:40.767,16.835,-404.21500000000003,51.24,0.5982879999999999,-0.6649,-2.65716,3
2024-06-14 08:35:40.772,9.625,-404.775,59.78,0.549488,-0.73078,-2.600796,3
2024-06-14 08:35:40.776,-0.98,-407.89,68.32,0.48312,-0.769332,-2.426336,3
2024-06-14 08:35:40.781,-11.865,-404.32,83.58000000000001,0.495076,-0.842776,-2.379,3
2024-06-14 08:35:40.786,-31.744999999999997,-399.735,93.72999999999999,0.468236,-0.903044,-2.1228,3
2024-06-14 08:35:40.791,-30.520000000000003,-398.825,102.725,0.374784,-1.1406999999999998,-1.966396,3
2024-06-14 08:35:40.796,-7.98,-398.125,112.105,0.39015599999999995,-1.410076,-1.765584,3
2024-06-14 08:35:40.801,31.045,-404.145,122.99000000000001,0.102968,-1.599664,-1.8361,3
2024-06-14 08:35:40.805,86.94,-403.55,141.225,-0.126392,-1.725324,-1.698972,3
2024-06-14 08:35:40.810,132.615,-393.015,160.475,-0.261812,-1.637728,-1.752408,4
2024-06-14 08:35:40.815,163.415,-378.805,181.02,-0.48068,-1.355664,-1.7994999999999999,4
2024-06-14 08:35:40.820,179.515,-357.875,204.575,-0.80032,-1.1419199999999998,-1.66774,4
2024-06-14 08:35:40.825,178.95499999999998,-330.26,226.275,-0.9823440000000001,-0.899628,-1.4823,4
2024-06-14 08:35:40.830,170.38,-299.95000000000005,245.0,-1.18218,-0.714188,-1.311744,4
2024-06-14 08:35:40.834,157.07999999999998,-265.72,251.335,-0.5909679999999999,-0.609512,-1.0450519999999999,4
2024-06-14 08:35:40.839,139.86,-240.66,231.315,-0.292556,-0.5916999999999999,-0.981368,4
2024-06-14 08:35:40.844,109.83,-157.255,192.57,-1.020896,-0.007564000000000001,-1.252696,4
2024-06-14 08:35:40.849,91.42,-58.345,142.24,-1.6252839999999997,0.40113599999999994,-0.6405,4
2024-06-14 08:35:40.854,59.675000000000004,20.16,83.055,-1.5652599999999999,0.461404,-0.421144,4
2024-06-14 08:35:40.859,13.475,92.4,24.009999999999998,-1.254404,0.338428,-0.691252,4
2024-06-14 08:35:40.863,-33.6,154.945,-28.384999999999998,-1.0426119999999999,0.23887599999999998,-0.804224,4
2024-06-14 08:35:40.868,-69.825,204.19,-69.475,-0.992104,0.10492,-0.85766,4
2024-06-14 08:35:40.873,-96.03999999999999,241.885,-97.09,-0.916952,-0.106384,-0.908656,4
2024-06-14 08:35:40.878,-113.89,269.605,-113.015,-0.798856,-0.288408,-0.953796,4
2024-06-14 08:35:40.883,-120.75,288.855,-119.77,-0.6975959999999999,-0.43334399999999995,-1.006744,4
2024-06-14 08:35:40.887,-115.71000000000001,302.12,-118.755,-0.614636,-0.5526599999999999,-1.040172,4
2024-06-14 08:35:40.891,-101.535,309.71500000000003,-111.09,-0.537288,-0.640012,-1.0372439999999998,4
2024-06-14 08:35:40.896,-81.97,312.9,-98.97999999999999,-0.447008,-0.68198,-1.018456,4
2024-06-14 08:35:40.901,-60.55,311.53499999999997,-84.14,-0.37332,-0.6841759999999999,-1.001132,4
2024-06-14 08:35:40.906,-40.705,306.70500000000004,-68.075,-0.32012799999999997,-0.654408,-0.9640439999999999,4
2024-06-14 08:35:40.911,-22.785,300.545,-51.835,-0.266936,-0.586088,-0.91256,4
2024-06-14 08:35:40.916,-8.12,293.44,-36.295,-0.203252,-0.523868,-0.86498,4
2024-06-14 08:35:40.920,2.31,285.53,-21.56,-0.15982000000000002,-0.46555199999999997,-0.85156,4
2024-06-14 08:35:40.925,9.415,278.04,-8.05,-0.13786,-0.397476,-0.865224,4
2024-06-14 08:35:40.930,13.16,272.44,3.43,-0.128832,-0.32354399999999994,-0.8632719999999999,4
2024-06-14 08:35:40.935,12.704999999999998,270.41,12.32,-0.153964,-0.240828,-0.864736,4
2024-06-14 08:35:40.940,7.734999999999999,272.3,18.445,-0.182756,-0.16592,-0.8857200000000001,4
2024-06-14 08:35:40.945,-0.5249999999999999,278.91499999999996,22.015,-0.210084,-0.102968,-0.921588,4
2024-06-14 08:35:40.949,-10.745,289.065,23.345,-0.231068,-0.073688,-0.960384,4
2024-06-14 08:35:40.954,-21.77,301.21000000000004,22.89,-0.251564,-0.05953599999999999,-0.992104,4
2024-06-14 08:35:40.959,-32.129999999999995,313.66999999999996,21.455,-0.25742,-0.060268,-1.019432,4
2024-06-14 08:35:40.964,-40.425,324.69500000000005,19.915,-0.249612,-0.07417599999999999,-1.037976,4
2024-06-14 08:35:40.969,-45.255,333.48,18.619999999999997,-0.23424,-0.105164,-1.05896,4
2024-06-14 08:35:40.974,-46.375,340.165,18.06,-0.206668,-0.15298799999999999,-1.083604,4
2024-06-14 08:35:40.978,-42.665,345.135,18.025,-0.18714799999999998,-0.19056399999999998,-1.108004,4
2024-06-14 08:35:40.983,-35.875,348.775,18.305,-0.154452,-0.21862399999999999,-1.125328,4
2024-06-14 08:35:40.988,-27.265,350.175,18.655,-0.119804,-0.23277599999999998,-1.15168,4
2024-06-14 08:35:40.993,-18.200000000000003,350.56,18.41,-0.108336,-0.224968,-1.179252,4
2024-06-14 08:35:40.998,-9.52,349.895,17.395,-0.092476,-0.199592,-1.20658,4
2024-06-14 08:35:41.003,-1.155,348.845,15.645,-0.07319999999999999,-0.189344,-1.252208,4
2024-06-14 08:35:41.007,6.8950000000000005,347.725,13.16,-0.04758,-0.177876,-1.3005200000000001,4
2024-06-14 08:35:41.012,14.805,346.605,9.73,-0.012688,-0.166896,-1.34688,4
2024-06-14 08:35:41.017,22.505000000000003,344.75,5.88,0.021716,-0.15689199999999998,-1.38958,4
2024-06-14 08:35:41.022,30.485,342.475,1.7149999999999999,0.049532,-0.150304,-1.433256,4
2024-06-14 08:35:41.027,38.71,339.91999999999996,-2.45,0.08832799999999999,-0.14396,-1.4769319999999997,4
2024-06-14 08:35:41.032,46.724999999999994,336.98,-6.79,0.110288,-0.146156,-1.513776,4
2024-06-14 08:35:41.036,54.635000000000005,333.69,-10.64,0.140056,-0.138592,-1.550376,4
2024-06-14 08:35:41.041,62.02,330.75,-14.91,0.17470399999999997,-0.105164,-1.5928319999999998,4
2024-06-14 08:35:41.046,68.35499999999999,327.985,-19.494999999999997,0.20691199999999998,-0.077592,-1.6323599999999998,4
2024-06-14 08:35:41.051,72.975,325.53499999999997,-24.604999999999997,0.22936,-0.042943999999999996,-1.6728640000000001,4
2024-06-14 08:35:41.056,75.425,323.08500000000004,-30.064999999999998,0.24522,-0.0029279999999999996,-1.701168,4
2024-06-14 08:35:41.061,76.125,320.985,-35.875,0.254492,0.024644,-1.741428,4
2024-06-14 08:35:41.065,75.39,318.53499999999997,-41.65,0.26522799999999996,0.041968000000000005,-1.7702200000000001,4
2024-06-14 08:35:41.070,73.745,316.015,-47.18,0.26083599999999996,0.044652,-1.795352,4
2024-06-14 08:35:41.075,71.715,313.46000000000004,-52.010000000000005,0.264252,0.037332,-1.824388,4
2024-06-14 08:35:41.080,69.895,310.065,-55.93000000000001,0.26449599999999995,0.018056,-1.845372,4
2024-06-14 08:35:41.085,68.355,306.005,-58.45,0.27449999999999997,-0.006587999999999999,-1.87026,4
2024-06-14 08:35:41.090,67.06,300.78999999999996,-59.57,0.285968,-0.037332000000000004,-1.8990519999999997,4
2024-06-14 08:35:41.094,66.43,294.45500000000004,-59.254999999999995,0.295728,-0.07198,-1.9315039999999999,4
2024-06-14 08:35:41.099,66.60499999999999,288.155,-57.19,0.305976,-0.100772,-1.9746920000000001,4
2024-06-14 08:35:41.104,67.095,281.96000000000004,-53.480000000000004,0.31842000000000004,-0.12248800000000001,-2.021052,4
2024-06-14 08:35:41.109,68.39,276.28999999999996,-48.405,0.332084,-0.13785999999999998,-2.073512,4
2024-06-14 08:35:41.114,70.0,271.81,-42.35,0.353556,-0.13810399999999998,-2.1301200000000002,4
2024-06-14 08:35:41.119,72.135,267.92499999999995,-36.295,0.3843,-0.136152,-2.181604,4
2024-06-14 08:35:41.124,74.69,265.37,-30.835,0.41846,-0.138592,-2.229672,4
2024-06-14 08:35:41.128,77.84,263.375,-26.740000000000002,0.4575,-0.14029999999999998,-2.269932,4
2024-06-14 08:35:41.133,81.97,262.955,-24.43,0.507764,-0.136152,-2.309948,4
2024-06-14 08:35:41.138,86.59,263.865,-24.22,0.553392,-0.12224399999999999,-2.352404,4
2024-06-14 08:35:41.143,91.315,267.26,-26.355,0.61122,-0.102724,-2.3843680000000003,4
2024-06-14 08:35:41.148,95.34,272.16,-30.835,0.6829560000000001,-0.079544,-2.40584,4
2024-06-14 08:35:41.153,98.91,277.97,-37.1,0.772016,-0.046848,-2.419504,4
2024-06-14 08:35:41.157,101.64,283.605,-45.36,0.8874279999999999,-0.010492,-2.401204,4
2024-06-14 08:35:41.162,88.76,279.86,-57.155,1.36396,0.173972,-2.505392,4
2024-06-14 08:35:41.167,48.230000000000004,259.98,-74.41,1.593564,0.6512359999999999,-2.709132,4
2024-06-14 08:35:41.172,52.22,264.07500000000005,-81.9,1.287588,0.137372,-2.02276,4
2024-06-14 08:35:41.177,66.36,260.68,-82.145,1.6118639999999997,-0.27645200000000003,-1.89954,4
2024-06-14 08:35:41.182,103.495,256.445,-78.19,1.733132,-0.4575,-2.134024,4
2024-06-14 08:35:41.186,146.47500000000002,255.675,-70.805,1.899784,-0.493368,-1.996652,4
2024-06-14 08:35:41.191,167.335,247.52,-64.26,2.140124,-0.19739600000000002,-1.91906,4
2024-06-14 08:35:41.196,163.10000000000002,236.985,-61.32,2.36558,0.04026,-1.8853879999999998,4
2024-06-14 08:35:41.201,137.445,216.93,-60.34,2.6959560000000002,0.18568400000000002,-1.8439079999999999,4
2024-06-14 08:35:41.206,117.565,195.08999999999997,-55.230000000000004,2.9553279999999997,0.234972,-1.626016,4
2024-06-14 08:35:41.211,111.54499999999999,172.27,-44.625,3.27814,0.277916,-1.470588,4
2024-06-14 08:35:41.215,120.015,150.29,-29.925,3.637552,0.447984,-1.4254479999999998,4
2024-06-14 08:35:41.220,132.23,128.73,-15.435,3.9579239999999998,0.814228,-1.402268,4
2024-06-14 08:35:41.225,131.11,105.98,-5.46,4.170692,1.290028,-1.3868960000000001,4
2024-06-14 08:35:41.230,106.25999999999999,79.03,-1.9249999999999998,4.267804,1.743624,-1.3207719999999998,4
2024-06-14 08:35:41.235,7.140000000000002,6.824999999999999,-15.54,5.084472,2.6871719999999994,-1.891244,4
2024-06-14 08:35:41.240,-108.465,-55.44,-32.480000000000004,4.739212,2.813808,-1.6714,0
2024-06-14 08:35:41.244,-212.695,-123.025,-32.655,4.912939999999999,2.221864,-1.100928,0
2024-06-14 08:35:41.249,-290.64,-189.63,-16.17,5.1086279999999995,1.417884,-1.379576,0
2024-06-14 08:35:41.254,-323.645,-230.79000000000002,-6.58,5.025180000000001,0.832284,-1.53964,0
