time,gyroscope_x,gyroscope_y,gyroscope_z,accelerometer_x,accelerometer_y,accelerometer_z,phase
2024-06-14 10:06:09.015,-104.93,-164.15,-43.47,-1.96664,1.3766479999999999,4.383216,1
2024-06-14 10:06:09.020,157.01,-284.2,-28.0,0.12736799999999998,0.665632,-0.85644,1
2024-06-14 10:06:09.025,200.2,-320.32,-28.14,-1.489864,0.187392,-0.981856,1
2024-06-14 10:06:09.030,228.34,-361.27,-17.5,-0.36844,0.37332,-1.82024,1
2024-06-14 10:06:09.035,190.68,-343.21,5.67,0.206424,0.464576,-2.0549679999999997,1
2024-06-14 10:06:09.040,145.04,-332.64,38.01,0.506544,0.27083999999999997,-2.070096,1
2024-06-14 10:06:09.044,94.43,-313.11,71.82,0.46652799999999994,0.28889600000000004,-1.8797760000000001,1
2024-06-14 10:06:09.049,41.58,-283.78,100.66,0.23033599999999999,0.132736,-1.9437039999999999,1
2024-06-14 10:06:09.054,-8.75,-247.8,119.56,0.14103200000000002,-0.063928,-1.96664,1
2024-06-14 10:06:09.059,-21.63,-219.31,121.8,0.17812,-0.459696,-1.922232,1
2024-06-14 10:06:09.064,-15.75,-202.02,103.11,0.211792,-0.8398479999999999,-1.99348,1
2024-06-14 10:06:09.069,-10.64,-191.03,70.49,0.18788,-0.9628239999999999,-1.936384,2
2024-06-14 10:06:09.073,-7.7,-175.56,35.07,0.147376,-0.8940159999999999,-1.751432,2
2024-06-14 10:06:09.078,-12.39,-156.73,4.06,0.161528,-0.5690080000000001,-1.8563519999999998,2
2024-06-14 10:06:09.083,-11.76,-133.91,-14.98,0.152744,-0.303048,-1.69092,2
2024-06-14 10:06:09.088,-19.6,-116.41,-17.5,0.055632,0.159088,-1.5615999999999999,2
2024-06-14 10:06:09.093,-24.71,-99.05,-3.5,0.032695999999999996,0.294752,-1.550864,2
2024-06-14 10:06:09.098,-29.68,-83.86,16.17,-0.007808,0.249368,-1.490352,2
2024-06-14 10:06:09.102,-31.36,-72.03,29.12,-0.019032,0.07466400000000001,-1.323944,2
2024-06-14 10:06:09.107,-28.7,-60.27,30.87,0.011712,-0.088328,-1.22732,2
2024-06-14 10:06:09.112,-24.92,-52.57,23.17,0.038552,-0.210816,-1.207312,2
2024-06-14 10:06:09.117,-21.7,-46.48,11.69,0.023424,-0.193736,-1.178032,2
2024-06-14 10:06:09.122,-20.37,-38.85,3.36,0.006344,-0.10931199999999999,-1.178032,2
2024-06-14 10:06:09.127,-21.07,-33.46,1.33,-0.017079999999999998,-0.009272,-1.1653440000000002,2
2024-06-14 10:06:09.131,-22.54,-30.1,3.85,0.11663199999999999,0.120048,-1.342,2
2024-06-14 10:06:09.136,-17.99,-5.11,6.02,-0.05856,0.08637600000000001,-1.1848640000000001,2
2024-06-14 10:06:09.141,-9.52,-7.07,5.32,0.14932800000000002,0.04392,-1.29564,2
2024-06-14 10:06:09.146,-3.85,-8.75,2.38,0.054168,-0.059048,-1.218536,2
2024-06-14 10:06:09.151,-6.23,-11.9,0.28,-0.053192,-0.081008,-1.1102,2
2024-06-14 10:06:09.156,-9.8,-13.79,-0.91,-0.07222400000000001,-0.058072,-1.0735999999999999,2
2024-06-14 10:06:09.160,-10.43,-14.35,-2.52,-0.045872,-0.004391999999999999,-1.0760399999999999,2
2024-06-14 10:06:09.165,-10.01,-14.91,-2.87,-0.024887999999999997,-0.004391999999999999,-1.092144,2
2024-06-14 10:06:09.170,-10.15,-15.12,-2.59,-0.035135999999999994,-0.006344,-1.089704,2
2024-06-14 10:06:09.175,-10.08,-15.75,-2.8,-0.046848,-0.015616,-1.090192,2
2024-06-14 10:06:09.180,-10.01,-16.17,-3.36,-0.050752,-0.016592,-1.099464,2
2024-06-14 10:06:09.185,-10.36,-18.27,-3.64,-0.040992,-0.008783999999999998,-1.104344,2
2024-06-14 10:06:09.189,-10.92,-20.65,-3.71,-0.042944,-0.009272,-1.1028799999999999,2
2024-06-14 10:06:09.194,-11.41,-22.54,-3.64,-0.044896,-0.008783999999999998,-1.0950719999999998,2
2024-06-14 10:06:09.199,-11.97,-23.52,-3.78,-0.045384,-0.009272,-1.092144,2
2024-06-14 10:06:09.204,-12.32,-24.78,-3.85,-0.03904,-0.014152,-1.092144,2
2024-06-14 10:06:09.209,-12.95,-25.97,-3.78,-0.033671999999999994,-0.010248,-1.0950719999999998,2
2024-06-14 10:06:09.214,-13.58,-27.02,-3.71,-0.033184,-0.011712,-1.092632,2
2024-06-14 10:06:09.219,-14.07,-28.28,-3.71,-0.030256,-0.009272,-1.087752,2
2024-06-14 10:06:09.223,-14.21,-29.54,-3.64,-0.033184,-0.001952,-1.086288,2
2024-06-14 10:06:09.228,-13.86,-30.87,-3.57,-0.028791999999999998,0.003904,-1.083848,2
2024-06-14 10:06:09.233,-13.44,-32.34,-3.5,-0.028791999999999998,-0.000976,-1.086288,2
2024-06-14 10:06:09.238,-12.95,-33.74,-3.29,-0.023424,-0.002928,-1.0887280000000001,2
2024-06-14 10:06:09.243,-12.39,-34.65,-3.15,-0.020007999999999998,0.006344,-1.089216,2
2024-06-14 10:06:09.248,-11.69,-35.35,-3.08,-0.01464,0.00488,-1.089216,2
2024-06-14 10:06:09.252,-10.71,-37.31,-2.87,-0.01464,0.005368,-1.086776,2
2024-06-14 10:06:09.257,-10.01,-38.08,-2.8,-0.010736,0.008296,-1.084824,2
2024-06-14 10:06:09.262,-8.82,-38.36,-2.73,-0.00732,0.009272,-1.083848,2
2024-06-14 10:06:09.267,-7.49,-39.2,-2.52,-0.001464,0.011712,-1.083848,2
2024-06-14 10:06:09.272,-2.8,-27.16,-2.38,0.003904,0.00976,-1.09068,2
2024-06-14 10:06:09.277,-1.75,-39.34,-1.4,0.002928,0.010248,-1.082872,2
2024-06-14 10:06:09.281,-0.98,-39.2,-1.82,0.008783999999999998,0.013176,-1.079456,2
2024-06-14 10:06:09.286,-0.42,-38.64,-1.89,0.007808,0.011224,-1.080432,2
2024-06-14 10:06:09.291,-0.14,-38.22,-1.68,0.012688,0.01464,-1.076528,2
2024-06-14 10:06:09.296,-0.14,-38.22,-1.33,0.011712,0.018544,-1.0853119999999998,2
2024-06-14 10:06:09.301,0.35,-38.57,-1.68,0.013663999999999999,0.013663999999999999,-1.084824,2
2024-06-14 10:06:09.306,0.63,-38.99,-1.75,0.01952,0.012199999999999999,-1.0887280000000001,2
2024-06-14 10:06:09.310,1.05,-36.19,-1.4,0.02196,0.007808,-1.08824,2
2024-06-14 10:06:09.315,-0.49,-43.96,-1.05,0.029768,0.009272,-1.083848,2
2024-06-14 10:06:09.320,-6.3,-50.61,-0.84,0.013663999999999999,0.014152,-1.101416,2
2024-06-14 10:06:09.325,0.7,-68.11,-2.87,0.02928,0.007808,-1.090192,2
2024-06-14 10:06:09.330,1.05,-65.24,-7.7,0.041968,-0.000976,-1.082872,2
2024-06-14 10:06:09.335,1.47,-56.42,-5.81,0.04392,0.016104,-1.08824,2
2024-06-14 10:06:09.339,0.21,-55.44,0.77,0.058072,0.016592,-1.08092,2
2024-06-14 10:06:09.344,2.24,-47.18,2.03,0.050752,0.010248,-1.081408,2
2024-06-14 10:06:09.349,0.98,-41.37,-2.1,0.039528,0.01464,-1.092144,2
2024-06-14 10:06:09.354,3.36,-35.35,-3.01,0.047824,0.015128,-1.0872639999999998,2
2024-06-14 10:06:09.359,2.59,-32.76,0.35,0.045872,0.019032,-1.094096,2
2024-06-14 10:06:09.364,3.99,-31.36,2.24,0.041968,0.00976,-1.096536,2
2024-06-14 10:06:09.368,4.69,-28.63,-0.28,0.058072,0.024399999999999998,-1.0970239999999998,2
2024-06-14 10:06:09.373,6.3,-26.25,-2.45,0.07222400000000001,0.023424,-1.074088,2
2024-06-14 10:06:09.378,7.14,-25.2,-0.98,0.07222400000000001,0.016104,-1.070672,2
2024-06-14 10:06:09.383,7.21,-24.08,0.49,0.062464,0.012688,-1.0735999999999999,2
2024-06-14 10:06:09.388,8.12,-22.96,-0.84,0.077104,0.025376,-1.0677439999999998,2
2024-06-14 10:06:09.393,8.96,-20.58,-3.15,0.075152,0.033671999999999994,-1.0535919999999999,2
2024-06-14 10:06:09.397,10.43,-18.83,-3.29,0.07076,0.020984,-1.069696,2
2024-06-14 10:06:09.402,11.27,-17.85,-1.96,0.083936,0.017567999999999997,-1.0657919999999999,2
2024-06-14 10:06:09.407,13.02,-16.59,-2.1,0.08247199999999999,0.017567999999999997,-1.059936,2
2024-06-14 10:06:09.412,14.7,-14.56,-3.85,0.08686400000000001,0.017079999999999998,-1.058472,2
2024-06-14 10:06:09.417,15.89,-13.37,-4.69,0.07173600000000001,0.018056000000000003,-1.072136,2
2024-06-14 10:06:09.422,16.17,-12.53,-3.85,0.078568,0.007808,-1.077992,2
2024-06-14 10:06:09.427,16.1,-11.97,-3.5,0.07222400000000001,0.010248,-1.075064,2
2024-06-14 10:06:09.431,15.75,-12.46,-4.34,0.078568,0.014152,-1.079456,2
2024-06-14 10:06:09.436,14.77,-10.64,-5.39,0.079544,0.000488,-1.081408,2
2024-06-14 10:06:09.441,12.46,-13.3,-5.74,0.06978399999999998,0.052216,-1.081408,2
2024-06-14 10:06:09.446,9.87,-14.0,-6.86,0.07027199999999999,0.04636,-1.077016,2
2024-06-14 10:06:09.451,8.47,-16.59,-8.4,0.076128,0.037088,-1.09068,2
2024-06-14 10:06:09.456,7.63,-17.99,-9.94,0.08295999999999999,0.008296,-1.090192,2
2024-06-14 10:06:09.460,7.49,-20.86,-10.15,0.088816,0.000976,-1.111664,2
2024-06-14 10:06:09.465,9.45,-20.72,-9.66,0.08686400000000001,-0.005368,-1.120936,2
2024-06-14 10:06:09.470,8.47,-25.83,-9.52,0.09028,-0.03172,-1.1150799999999998,2
2024-06-14 10:06:09.475,3.08,-29.47,-10.15,0.09028,-0.027327999999999998,-1.1521679999999999,2
2024-06-14 10:06:09.480,6.58,-32.62,-8.96,0.09955199999999999,-0.061488,-1.1848640000000001,2
2024-06-14 10:06:09.485,1.47,-28.98,-7.91,0.090768,-0.053192,-1.25904,2
2024-06-14 10:06:09.489,3.64,-33.6,-5.46,0.106872,-0.16835999999999998,-1.264408,2
2024-06-14 10:06:09.494,2.38,-40.95,-3.64,0.093208,0.01464,-1.23464,2
2024-06-14 10:06:09.499,-4.9,-45.85,-5.18,0.09955199999999999,-0.01464,-1.248792,2
2024-06-14 10:06:09.504,-7.98,-50.61,-4.62,0.105408,-0.02928,-1.287344,3
2024-06-14 10:06:09.509,-12.11,-54.81,-4.2,0.098576,-0.022936,-1.342976,3
2024-06-14 10:06:09.514,-16.87,-59.5,-4.41,0.10394400000000001,-0.000976,-1.3542,3
2024-06-14 10:06:09.518,-23.31,-62.79,-5.04,0.101992,-0.022936,-1.3785999999999998,3
2024-06-14 10:06:09.523,-25.97,-68.11,-4.97,0.105896,-0.036112000000000005,-1.421544,3
2024-06-14 10:06:09.528,-25.69,-69.51,-4.48,0.09711199999999999,-0.022936,-1.372256,3
2024-06-14 10:06:09.533,-29.68,-75.95,-4.55,0.101504,-0.07027199999999999,-1.464488,3
2024-06-14 10:06:09.538,-31.22,-80.85,-3.57,0.10736,-0.09467199999999999,-1.377136,3
2024-06-14 10:06:09.543,-32.83,-86.94,-2.38,0.09272,-0.09028,-1.46644,3
2024-06-14 10:06:09.547,-32.69,-92.82,-0.84,0.095648,-0.098088,-1.465952,3
2024-06-14 10:06:09.552,-31.85,-100.52,0.7,0.076616,-0.10003999999999999,-1.4474079999999998,3
2024-06-14 10:06:09.557,-26.67,-108.22,3.08,0.08784,-0.08491199999999999,-1.436184,3
2024-06-14 10:06:09.562,-27.37,-117.74,3.22,0.081496,0.029768,-1.5162159999999998,3
2024-06-14 10:06:09.567,-31.99,-127.75,2.52,0.08930400000000001,-0.002928,-1.51524,3
2024-06-14 10:06:09.572,-33.74,-137.13,2.73,0.08686400000000001,-0.00732,-1.537688,3
2024-06-14 10:06:09.576,-35.77,-147.91,2.24,0.083448,0.032695999999999996,-1.582096,3
2024-06-14 10:06:09.581,-38.36,-158.13,1.4,0.089792,0.011712,-1.578192,3
2024-06-14 10:06:09.586,-38.85,-169.12,1.12,0.08784,0.03172,-1.5713599999999999,3
2024-06-14 10:06:09.591,-40.53,-180.04,0.07,0.091256,0.052704,-1.5982,3
2024-06-14 10:06:09.596,-41.37,-192.15,-1.19,0.091256,0.0366,-1.5908799999999998,3
2024-06-14 10:06:09.601,-43.47,-203.0,-2.31,0.09759999999999999,0.02196,-1.6421199999999998,3
2024-06-14 10:06:09.605,-46.2,-214.48,-3.29,0.10736,0.010248,-1.707512,3
2024-06-14 10:06:09.610,-53.13,-224.98,-4.34,0.113216,-0.055632,-1.840248,3
2024-06-14 10:06:09.615,-57.12,-238.42,-4.2,0.11516799999999999,-0.052704,-1.8543999999999998,3
2024-06-14 10:06:09.620,-59.15,-255.29,-4.83,0.076128,0.08052,-1.875872,3
2024-06-14 10:06:09.625,-59.78,-272.44,-7.7,0.028304,0.174704,-1.9071040000000001,3
2024-06-14 10:06:09.630,-61.32,-288.05,-11.76,0.016104,0.20984,-1.96176,3
2024-06-14 10:06:09.636,-56.42,-307.23,-15.61,-0.016592,0.25376,-1.9153999999999998,3
2024-06-14 10:06:09.640,-50.54,-328.37,-20.09,-0.057583999999999996,0.226432,-1.940776,3
2024-06-14 10:06:09.645,-47.04,-359.52,-22.68,-0.07564,0.088816,-1.9549279999999998,3
2024-06-14 10:06:09.650,-31.57,-369.04,-22.61,-0.015616,-0.048312,-2.107672,3
2024-06-14 10:06:09.655,-16.31,-389.06,-19.32,0.12980799999999998,-0.154208,-2.416576,3
2024-06-14 10:06:09.660,-14.07,-409.43,-15.68,0.164456,-0.049775999999999994,-2.5415039999999998,3
2024-06-14 10:06:09.664,-12.88,-426.65,-12.74,0.14884,-0.066368,-2.696688,3
2024-06-14 10:06:09.669,-16.73,-439.74,-10.43,0.214232,-0.242536,-2.7532959999999997,3
2024-06-14 10:06:09.674,-8.89,-449.26,-2.24,0.27132799999999996,-0.501664,-2.861144,3
2024-06-14 10:06:09.679,3.85,-458.99,11.83,0.452864,-0.433344,-3.355488,3
2024-06-14 10:06:09.684,-0.28,-462.98,18.83,0.28206400000000004,-0.25912799999999997,-3.327672,3
2024-06-14 10:06:09.689,-14.91,-459.34,23.59,0.16250399999999998,-0.225456,-3.1314960000000003,3
2024-06-14 10:06:09.693,0.42,-461.79,31.85,0.091744,-0.548024,-3.61852,3
2024-06-14 10:06:09.698,0.21,-465.57,41.58,-0.133712,-0.46652799999999994,-3.53312,3
2024-06-14 10:06:09.703,16.45,-458.36,48.3,-0.354288,-0.38552,-3.180296,3
2024-06-14 10:06:09.708,35.07,-459.34,53.76,-0.7241920000000001,-0.23326399999999997,-3.082208,3
2024-06-14 10:06:09.713,48.37,-470.96,58.73,-0.913048,-0.0366,-3.2081120000000003,3
2024-06-14 10:06:09.718,49.35,-478.94,59.15,-1.3054,-0.032208,-3.1817599999999997,3
2024-06-14 10:06:09.722,43.26,-474.95,43.05,-1.4884,-0.310856,-2.74012,4
2024-06-14 10:06:09.727,41.37,-464.87,60.83,-1.8763599999999998,0.40455199999999997,-1.782176,4
2024-06-14 10:06:09.732,38.71,-417.41,60.41,-2.3106799999999996,0.475312,-0.345992,4
2024-06-14 10:06:09.737,42.21,-375.76,64.54,-1.724104,0.37624799999999997,0.450424,4
2024-06-14 10:06:09.742,60.62,-291.62,70.28,-2.10572,0.17616800000000002,-2.9153119999999997,4
2024-06-14 10:06:09.747,41.58,-167.79,70.42,-2.01056,0.11419199999999999,-2.897256,4
2024-06-14 10:06:09.751,29.05,-64.82,67.9,-1.9759120000000001,0.218136,-1.83976,4
2024-06-14 10:06:09.756,25.62,20.58,61.11,-2.102304,0.282552,-1.090192,4
2024-06-14 10:06:09.761,29.19,79.38,51.66,-1.9236959999999999,0.246928,-1.1243519999999998,4
2024-06-14 10:06:09.766,30.59,113.26,39.69,-1.589416,0.176656,-1.4078799999999998,4
2024-06-14 10:06:09.771,24.92,127.47,25.41,-1.3229680000000001,0.16348,-1.454728,4
2024-06-14 10:06:09.776,19.6,129.43,9.94,-1.19804,0.171288,-1.360544,4
2024-06-14 10:06:09.780,17.29,127.82,-6.51,-1.103856,0.17812,-1.1555840000000002,4
2024-06-14 10:06:09.785,14.98,126.56,-23.94,-1.027728,0.166896,-0.9852719999999999,4
2024-06-14 10:06:09.790,12.32,128.03,-41.65,-0.977952,0.120536,-0.900848,4
2024-06-14 10:06:09.795,10.64,132.44,-58.59,-0.9335439999999999,0.056608,-0.8632719999999999,4
2024-06-14 10:06:09.800,11.76,139.37,-73.43,-0.900848,-0.011712,-0.818376,4
2024-06-14 10:06:09.805,16.66,148.89,-85.4,-0.877912,-0.07222400000000001,-0.7686000000000001,4
2024-06-14 10:06:09.809,24.57,160.51,-94.92,-0.851072,-0.122488,-0.747616,4
2024-06-14 10:06:09.814,34.09,173.88,-102.41,-0.8217920000000001,-0.150792,-0.7481039999999999,4
2024-06-14 10:06:09.819,43.61,188.3,-108.08,-0.797392,-0.16250399999999998,-0.770552,4
2024-06-14 10:06:09.824,52.29,204.12,-112.42,-0.771528,-0.14396,-0.7915359999999999,4
2024-06-14 10:06:09.829,59.08,220.57,-115.64,-0.7524959999999999,-0.112728,-0.8100799999999999,4
2024-06-14 10:06:09.834,63.91,237.3,-118.16,-0.721264,-0.091256,-0.838384,4
2024-06-14 10:06:09.838,66.43,253.89,-119.77,-0.682712,-0.071248,-0.876936,4
2024-06-14 10:06:09.843,67.55,269.71,-120.05,-0.633424,-0.061975999999999996,-0.924272,4
2024-06-14 10:06:09.848,68.39,284.27,-119.07,-0.584136,-0.055632,-0.964288,4
2024-06-14 10:06:09.853,70.35,296.87,-115.99,-0.532408,-0.05368,-0.993568,4
2024-06-14 10:06:09.858,74.2,307.65,-111.37,-0.488,-0.057095999999999994,-1.0262639999999998,4
2024-06-14 10:06:09.863,78.89,316.4,-105.14,-0.438224,-0.049288,-1.059936,4
2024-06-14 10:06:09.867,83.58,323.33,-97.93,-0.38795999999999997,-0.035135999999999994,-1.096536,4
2024-06-14 10:06:09.872,87.57,328.93,-89.81,-0.346968,-0.012688,-1.13704,4
2024-06-14 10:06:09.877,90.09,333.41,-81.2,-0.307928,0.02196,-1.172664,4
2024-06-14 10:06:09.882,90.37,337.05,-72.59,-0.272792,0.06344,-1.21512,4
2024-06-14 10:06:09.887,88.48,340.41,-64.05,-0.24790399999999999,0.11467999999999999,-1.258064,4
2024-06-14 10:06:09.892,84.77,343.63,-55.58,-0.22350399999999998,0.154696,-1.2897839999999998,4
2024-06-14 10:06:09.896,79.8,346.36,-47.32,-0.203008,0.19422399999999998,-1.321992,4
2024-06-14 10:06:09.901,73.71,348.46,-39.13,-0.18544,0.232288,-1.360544,4
2024-06-14 10:06:09.906,66.92,350.49,-31.5,-0.17275200000000002,0.272304,-1.394216,4
2024-06-14 10:06:09.911,59.43,351.89,-24.01,-0.156648,0.303048,-1.440088,4
2024-06-14 10:06:09.916,50.96,353.5,-17.22,-0.147864,0.333792,-1.4869359999999998,4
2024-06-14 10:06:09.921,41.65,355.04,-10.85,-0.13419999999999999,0.369416,-1.53476,4
2024-06-14 10:06:09.925,31.92,356.51,-5.18,-0.11858400000000001,0.39283999999999997,-1.592344,4
2024-06-14 10:06:09.930,22.26,358.33,0.21,-0.105408,0.411384,-1.652856,4
2024-06-14 10:06:09.935,12.95,360.15,5.18,-0.093696,0.416264,-1.711416,4
2024-06-14 10:06:09.940,4.2,361.97,9.52,-0.077104,0.420168,-1.77388,4
2024-06-14 10:06:09.945,-3.64,364.0,13.51,-0.046848,0.414312,-1.8446399999999998,4
2024-06-14 10:06:09.950,-10.29,365.75,17.22,-0.016592,0.419192,-1.914912,4
2024-06-14 10:06:09.954,-15.68,367.22,20.65,0.014152,0.411384,-1.9939679999999997,4
2024-06-14 10:06:09.959,-19.74,368.06,23.94,0.049288,0.399184,-2.0705839999999998,4
2024-06-14 10:06:09.964,-22.89,368.2,27.23,0.093696,0.385032,-2.141832,4
2024-06-14 10:06:09.969,-25.06,367.29,30.52,0.13712799999999997,0.384056,-2.2121039999999996,4
2024-06-14 10:06:09.974,-27.65,364.98,33.46,0.183976,0.39283999999999997,-2.2911599999999996,4
2024-06-14 10:06:09.979,-32.27,361.69,35.56,0.240584,0.431392,-2.379488,4
2024-06-14 10:06:09.983,-40.04,357.21,36.19,0.30256,0.482144,-2.471232,4
2024-06-14 10:06:09.988,-51.66,352.03,35.35,0.366976,0.535336,-2.55956,4
2024-06-14 10:06:09.993,-66.57,346.29,33.25,0.44652,0.565592,-2.659112,4
2024-06-14 10:06:09.998,-83.23,340.83,30.45,0.5641280000000001,0.599752,-2.686928,4
2024-06-14 10:06:10.003,-102.2,336.0,26.53,0.671488,0.5968239999999999,-2.653744,4
2024-06-14 10:06:10.008,-136.08,331.87,19.39,0.711504,0.5582719999999999,-2.811368,4
2024-06-14 10:06:10.012,-176.75,332.15,9.73,0.896944,0.442616,-2.9504479999999997,4
2024-06-14 10:06:10.017,-206.15,332.29,1.05,1.064816,0.250344,-2.999736,4
2024-06-14 10:06:10.022,-217.35,332.64,-4.97,1.163392,-0.0068319999999999995,-3.019744,4
2024-06-14 10:06:10.027,-209.37,334.46,5.25,0.997472,0.226432,-2.9724079999999997,4
2024-06-14 10:06:10.032,-182.28,334.04,-1.68,1.5220719999999999,-1.0853119999999998,-3.108072,4
2024-06-14 10:06:10.037,-154.63,341.6,-8.4,1.4962079999999998,-0.5958479999999999,-2.84748,4
2024-06-14 10:06:10.041,-117.25,343.42,-6.65,1.618696,-0.659288,-2.749392,4
2024-06-14 10:06:10.046,-81.2,343.84,-5.46,1.752896,-0.653432,-2.646912,4
2024-06-14 10:06:10.051,-51.03,341.25,-6.44,1.9017359999999999,-0.5909679999999999,-2.555168,4
2024-06-14 10:06:10.056,-28.84,334.81,-9.52,2.084736,-0.483608,-2.470256,4
2024-06-14 10:06:10.061,-14.42,324.66,-13.72,2.279936,-0.357704,-2.3882719999999997,4
2024-06-14 10:06:10.066,-4.41,311.01,-18.48,2.4683040000000003,-0.238632,-2.263832,4
2024-06-14 10:06:10.070,4.62,294.28,-24.08,2.64984,-0.10003999999999999,-2.124264,4
2024-06-14 10:06:10.075,13.44,275.24,-31.01,2.8304,0.06490399999999999,-2.004216,4
2024-06-14 10:06:10.080,19.95,254.73,-39.48,3.034872,0.242536,-1.9071040000000001,4
2024-06-14 10:06:10.085,19.81,233.8,-50.26,3.248128,0.39771999999999996,-1.801208,4
2024-06-14 10:06:10.090,8.05,213.43,-64.26,3.4882239999999998,0.482632,-1.69092,4
2024-06-14 10:06:10.095,-14.0,193.2,-79.66,3.747352,0.438712,-1.59576,4
2024-06-14 10:06:10.099,-40.67,171.78,-92.61,4.0147759999999995,0.23326399999999997,-1.515728,4
2024-06-14 10:06:10.104,-64.47,147.07,-98.63,4.242184,-0.111264,-1.44692,4
2024-06-14 10:06:10.109,-76.23,117.46,-94.78,4.390536,-0.508496,-1.355664,4
2024-06-14 10:06:10.114,-69.79,82.18,-80.78,4.418352,-0.866688,-1.269776,4
2024-06-14 10:06:10.119,-43.89,42.07,-58.45,4.300256,-1.0970239999999998,-1.19316,4
2024-06-14 10:06:10.124,-4.41,-0.0,-31.29,4.07236,-1.1546079999999999,-1.16632,4
2024-06-14 10:06:10.128,38.01,-38.71,-3.29,3.7927359999999997,-1.033584,-1.22244,4
2024-06-14 10:06:10.133,72.1,-70.28,21.84,3.490176,-0.7686000000000001,-1.324432,4
2024-06-14 10:06:10.138,93.31,-93.38,42.0,3.1661439999999996,-0.419192,-1.378112,4
2024-06-14 10:06:10.143,102.27,-108.5,56.0,2.8557759999999996,-0.090768,-1.4083679999999998,4
2024-06-14 10:06:10.148,99.75,-116.34,64.75,2.571272,0.155672,-1.4752239999999999,4
2024-06-14 10:06:10.153,60.2,-371.84,36.68,4.409568,1.76412,-12.437168,4
