time,gyroscope_x,gyroscope_y,gyroscope_z,accelerometer_x,accelerometer_y,accelerometer_z,phase
2024-06-14 11:16:00.581,197.75,-451.08000000000004,51.415,3.8703279999999998,-1.4825439999999999,-5.947744,1
2024-06-14 11:16:00.586,192.745,-325.255,52.254999999999995,0.9957640000000002,-0.581208,0.414556,1
2024-06-14 11:16:00.591,239.15499999999997,-331.87,42.525000000000006,-0.49849199999999994,0.323544,0.0012200000000000544,1
2024-06-14 11:16:00.596,264.81,-414.75,55.335,-0.26693599999999995,-0.08149600000000001,-0.8940159999999999,1
2024-06-14 11:16:00.601,127.92500000000001,-290.885,69.825,-0.805444,-0.10418799999999999,-1.7965719999999998,1
2024-06-14 11:16:00.605,52.815,-299.075,87.71000000000001,-0.483608,-0.018299999999999997,-1.654564,1
2024-06-14 11:16:00.610,4.899999999999999,-304.465,100.765,0.026839999999999996,-0.00732,-1.798036,1
2024-06-14 11:16:00.615,-24.045,-298.79499999999996,106.92500000000001,0.25986,-0.238388,-1.910276,1
2024-06-14 11:16:00.620,-33.705,-286.475,104.055,0.26205599999999996,-0.426512,-1.90564,1
2024-06-14 11:16:00.625,-27.685000000000002,-281.225,90.89500000000001,0.16372399999999998,-0.56364,-1.939068,1
2024-06-14 11:16:00.629,-31.955,-269.01,69.685,0.099552,-0.6946680000000001,-2.0984,1
2024-06-14 11:16:00.634,-35.105000000000004,-248.815,44.17,0.093208,-0.789828,-2.382904,1
2024-06-14 11:16:00.639,-30.064999999999998,-223.86,13.055,0.18788,-0.704672,-2.3919319999999997,2
2024-06-14 11:16:00.644,-24.15,-195.195,-15.504999999999999,0.124928,-0.390156,-2.125484,2
2024-06-14 11:16:00.649,-5.145,-155.95999999999998,-24.814999999999998,0.08125199999999999,-0.062708,-1.6352879999999999,2
2024-06-14 11:16:00.654,-8.190000000000001,-119.42,-19.495,0.061731999999999995,0.16714,-1.5093839999999998,2
2024-06-14 11:16:00.658,-11.969999999999999,-83.965,-7.56,-0.003172000000000001,0.200812,-1.376404,2
2024-06-14 11:16:00.663,-15.505,-59.709999999999994,2.73,-0.020984,0.16128399999999998,-1.258064,2
2024-06-14 11:16:00.668,-15.995,-40.67,9.379999999999999,-0.050752,0.12444,-1.144848,2
2024-06-14 11:16:00.673,-17.36,-24.08,11.48,-0.036112,-0.035136,-1.120448,2
2024-06-14 11:16:00.678,-15.225,-15.365,8.435,-0.061731999999999995,-0.07808000000000001,-1.074576,2
2024-06-14 11:16:00.683,-9.344999999999999,-13.895,2.135,-0.039772,-0.088084,-1.06262,2
2024-06-14 11:16:00.687,-7.875,-13.965,-4.0600000000000005,-0.026352,-0.021716000000000003,-1.053348,2
2024-06-14 11:16:00.692,-7.07,-11.305,-4.795,-0.014152,0.046848,-1.05042,2
2024-06-14 11:16:00.697,-6.3,-9.415,-1.575,-0.0014639999999999983,0.054412,-1.0470039999999998,2
2024-06-14 11:16:00.702,-4.515000000000001,-7.0,1.7149999999999999,-0.017324,0.04758,-1.0409039999999998,2
2024-06-14 11:16:00.707,-2.5549999999999997,-5.425,2.17,-0.044652,0.014152,-1.0216280000000002,2
2024-06-14 11:16:00.711,-0.91,-4.13,0.20999999999999996,-0.062952,-0.01098,-1.0194320000000001,2
2024-06-14 11:16:00.716,-0.28,-3.08,-1.8199999999999998,-0.061,-0.015372,-1.0262639999999998,2
2024-06-14 11:16:00.721,-0.14,-2.835,-2.625,-0.050508,-0.013420000000000001,-1.0352919999999999,2
2024-06-14 11:16:00.726,0.35,-2.7649999999999997,-2.38,-0.061731999999999995,-0.014395999999999999,-1.032364,2
2024-06-14 11:16:00.731,0.665,-2.485,-3.29,-0.054900000000000004,-0.022448,-1.038708,2
2024-06-14 11:16:00.736,0.49,-2.065,-3.08,-0.070028,-0.005123999999999999,-1.01992,2
2024-06-14 11:16:00.740,0.0,-2.03,-2.6950000000000003,-0.08515600000000001,0.00122,-1.007476,2
2024-06-14 11:16:00.745,0.27999999999999997,-2.275,-2.835,-0.07466400000000001,-0.00244,-1.0140639999999999,2
2024-06-14 11:16:00.750,0.35,-2.9050000000000002,-2.905,-0.0732,-0.006344,-1.0177239999999999,2
2024-06-14 11:16:00.755,0.315,-3.36,-2.73,-0.078812,-0.008296,-1.0189439999999998,2
2024-06-14 11:16:00.760,0.10500000000000001,-4.095,-2.87,-0.082716,-0.000488,-1.019188,2
2024-06-14 11:16:00.764,0.21,-4.83,-2.6950000000000003,-0.078568,-0.00366,-1.0182120000000001,2
2024-06-14 11:16:00.769,0.0,-6.125,-2.8,-0.08588799999999999,-0.007319999999999999,-1.020896,2
2024-06-14 11:16:00.774,-0.175,-7.734999999999999,-2.975,-0.082228,-0.0061,-1.02114,2
2024-06-14 11:16:00.779,-0.49,-9.205,-3.045,-0.082228,-0.00976,-1.016016,2
2024-06-14 11:16:00.784,-0.9450000000000001,-10.85,-3.15,-0.08247199999999999,-0.00488,-1.0201639999999998,2
2024-06-14 11:16:00.789,-1.12,-12.67,-3.08,-0.08027599999999999,-0.010248,-1.02236,2
2024-06-14 11:16:00.793,-1.33,-14.84,-3.2199999999999998,-0.084912,-0.0053679999999999995,-1.0238239999999998,2
2024-06-14 11:16:00.798,-1.6099999999999999,-16.310000000000002,-3.255,-0.078812,-0.00366,-1.0226039999999998,2
2024-06-14 11:16:00.803,-1.68,-17.43,-3.08,-0.073688,-0.006588,-1.0189439999999998,2
2024-06-14 11:16:00.808,-1.68,-18.865000000000002,-2.94,-0.074176,-0.011224,-1.01992,2
2024-06-14 11:16:00.813,-1.7850000000000001,-19.53,-2.73,-0.075152,-0.00732,-1.018456,2
2024-06-14 11:16:00.817,-1.8900000000000001,-21.244999999999997,-2.66,-0.07076,-0.003172,-1.0187,2
2024-06-14 11:16:00.822,-1.7850000000000001,-20.685,-2.625,-0.06953999999999999,-0.005856,-1.01626,2
2024-06-14 11:16:00.827,-1.7149999999999999,-20.965,-2.8,-0.06612399999999999,-0.0034159999999999998,-1.0121120000000001,2
2024-06-14 11:16:00.830,-1.6099999999999999,-21.244999999999997,-2.87,-0.063196,-0.0026839999999999993,-1.009916,2
2024-06-14 11:16:00.835,-0.7,-20.93,-2.625,-0.06417199999999999,0.001952,-1.011136,2
2024-06-14 11:16:00.840,0.735,-20.405,-2.625,-0.058803999999999995,-0.000976,-1.0126,2
2024-06-14 11:16:00.844,1.4,-20.125,-2.5549999999999997,-0.061487999999999994,0.001464,-1.0126,2
2024-06-14 11:16:00.849,1.7149999999999999,-19.355,-2.59,-0.055875999999999995,0.000732,-1.01138,2
2024-06-14 11:16:00.854,1.5750000000000002,-14.245000000000001,-2.66,-0.051484,-0.000244,-1.004548,2
2024-06-14 11:16:00.859,1.96,-18.725,-2.87,-0.050508,-0.000732,-1.011136,2
2024-06-14 11:16:00.864,2.2750000000000004,-18.83,-2.7300000000000004,-0.048556,0.000732,-1.008696,2
2024-06-14 11:16:00.869,1.96,-17.745,-2.8,-0.048556,0.000244,-1.006988,2
2024-06-14 11:16:00.873,2.45,-16.905,-3.01,-0.042212,0.001464,-1.0072320000000001,2
2024-06-14 11:16:00.878,2.59,-16.310000000000002,-3.01,-0.0427,-0.002196,-1.006744,2
2024-06-14 11:16:00.883,2.66,-15.33,-2.975,-0.041968,-0.0034159999999999998,-1.0065,2
2024-06-14 11:16:00.888,2.59,-14.455,-2.835,-0.038064,-0.004392,-1.0072320000000001,2
2024-06-14 11:16:00.893,2.415,-13.965,-2.87,-0.038307999999999995,-0.008296,-1.005036,2
2024-06-14 11:16:00.898,2.31,-12.25,-2.87,-0.038552,-0.011467999999999999,-1.006988,2
2024-06-14 11:16:00.902,2.1,-12.075,-2.66,-0.038064,-0.011956,-1.006744,2
2024-06-14 11:16:00.907,1.7850000000000001,-11.34,-2.625,-0.035624,-0.006588,-1.00772,2
2024-06-14 11:16:00.912,1.68,-10.08,-2.52,-0.038064,-0.00854,-1.009916,2
2024-06-14 11:16:00.917,1.295,-11.27,-2.5549999999999997,-0.035868,-0.011467999999999999,-1.01382,2
2024-06-14 11:16:00.922,1.19,-10.92,-2.45,-0.037576,-0.0075639999999999995,-1.02114,2
2024-06-14 11:16:00.927,0.9450000000000001,-11.41,-2.38,-0.037332000000000004,-0.011956,-1.013576,2
2024-06-14 11:16:00.931,0.595,-11.725000000000001,-2.345,-0.035379999999999995,-0.005124,-1.011868,2
2024-06-14 11:16:00.936,-0.034999999999999976,-16.31,-2.38,-0.03294,-0.0075639999999999995,-1.012356,2
2024-06-14 11:16:00.941,0.49,-13.23,-2.415,-0.035379999999999995,-0.00488,-1.0179680000000002,2
2024-06-14 11:16:00.946,0.525,-14.07,-2.38,-0.03660000000000001,-0.00366,-1.022116,2
2024-06-14 11:16:00.951,0.84,-15.96,-2.485,-0.032695999999999996,-0.002196,-1.023092,2
2024-06-14 11:16:00.956,3.78,30.555,-3.465,-0.026352,-0.005124,-1.02114,2
2024-06-14 11:16:00.961,1.19,-20.02,-2.3449999999999998,-0.031964,-0.005612,-1.0250439999999998,2
2024-06-14 11:16:00.965,0.525,-20.965,-2.52,-0.026596,-0.006588,-1.025776,2
2024-06-14 11:16:00.970,1.085,-24.64,-2.66,-0.028547999999999997,-0.004392,-1.029192,2
2024-06-14 11:16:00.975,1.785,-27.020000000000003,-2.625,-0.021228,-0.002196,-1.0218720000000001,2
2024-06-14 11:16:00.980,1.225,-26.845000000000002,-2.87,-0.025619999999999997,0.00122,-1.0265079999999998,2
2024-06-14 11:16:00.985,1.96,-28.909999999999997,-2.52,-0.016104,-0.0046359999999999995,-1.0309,2
2024-06-14 11:16:00.990,5.88,-15.855,-2.835,-0.017812,0.001708,-1.032364,2
2024-06-14 11:16:00.994,-2.24,-39.129999999999995,-2.625,-0.006588,0.011956,-1.0201639999999998,2
2024-06-14 11:16:00.999,4.165,-36.19,-2.415,-0.01464,0.007808000000000001,-1.035292,2
2024-06-14 11:16:01.004,-0.28,-39.269999999999996,-3.535,-0.007075999999999999,0.0017079999999999999,-1.033828,2
2024-06-14 11:16:01.009,3.8150000000000004,-40.915,-3.5700000000000003,-0.005368,-0.0004879999999999993,-1.041148,2
2024-06-14 11:16:01.014,1.645,-41.72,-3.1149999999999998,-0.002928,-0.00366,-1.0579839999999998,2
2024-06-14 11:16:01.019,4.654999999999999,-40.53,-2.38,0.009028000000000001,-0.005124,-1.04066,2
2024-06-14 11:16:01.023,4.41,-44.730000000000004,-2.2399999999999998,0.00732,-0.012444,-1.0328519999999999,2
2024-06-14 11:16:01.028,3.5,-46.445,-2.3449999999999998,0.008539999999999999,-0.0046359999999999995,-1.050908,2
2024-06-14 11:16:01.033,4.2,-49.489999999999995,-1.7149999999999999,0.014152,-0.016348,-1.053836,2
2024-06-14 11:16:01.038,1.225,-57.54,-1.085,0.010248,-0.004636,-1.0992199999999999,2
2024-06-14 11:16:01.043,2.87,-62.685,-0.245,0.0122,0.013176,-1.1128840000000002,2
2024-06-14 11:16:01.048,7.5600000000000005,-63.525,0.175,0.020252,-0.020252,-1.119472,2
2024-06-14 11:16:01.052,4.375,-73.745,-0.77,0.027572,-0.0048800000000000015,-1.176568,2
2024-06-14 11:16:01.057,6.265000000000001,-58.03,0.8049999999999999,0.037087999999999996,0.005368,-1.2358600000000002,3
2024-06-14 11:16:01.062,5.53,-59.08,2.065,0.033916,-0.016836,-1.2282959999999998,3
2024-06-14 11:16:01.067,1.855,-63.0,1.7850000000000001,0.039040000000000005,-0.026840000000000003,-1.295152,3
2024-06-14 11:16:01.072,-2.17,-76.195,0.735,0.022691999999999997,-0.066856,-1.259528,3
2024-06-14 11:16:01.077,-10.92,-77.525,0.56,0.032208,-0.030012000000000004,-1.39446,3
2024-06-14 11:16:01.081,-19.950000000000003,-73.185,1.085,0.030987999999999998,-0.030744,-1.398852,3
2024-06-14 11:16:01.086,-24.535,-76.50999999999999,1.26,0.037332,-0.06490399999999999,-1.47742,3
2024-06-14 11:16:01.091,-27.58,-84.84,1.6800000000000002,0.040504,-0.053436,-1.486448,3
2024-06-14 11:16:01.096,-31.604999999999997,-90.3,1.645,0.030988,-0.033672,-1.474492,3
2024-06-14 11:16:01.101,-33.635,-99.25999999999999,1.54,0.030255999999999998,-0.043432,-1.552572,3
2024-06-14 11:16:01.106,-31.92,-111.965,2.24,0.018056,-0.033671999999999994,-1.602104,3
2024-06-14 11:16:01.110,-32.97,-124.91499999999999,2.0999999999999996,0.014884,-0.01464,-1.627724,3
2024-06-14 11:16:01.115,-34.265,-137.76,1.9249999999999998,0.006344000000000001,-0.0024399999999999995,-1.6448040000000002,3
2024-06-14 11:16:01.120,-34.3,-152.67,1.19,-0.0060999999999999995,0.009028,-1.6701800000000002,3
2024-06-14 11:16:01.125,-33.985,-169.32999999999998,0.42,-0.014152,0.025863999999999998,-1.708732,3
2024-06-14 11:16:01.130,-35.595,-185.955,-0.9450000000000001,-0.034159999999999996,0.06246399999999999,-1.730936,3
2024-06-14 11:16:01.135,-37.45,-204.82,-2.835,-0.04392,0.06368399999999999,-1.794376,3
2024-06-14 11:16:01.139,-34.894999999999996,-226.31,-4.97,-0.06124399999999999,0.1159,-1.877092,3
2024-06-14 11:16:01.144,-32.865,-248.78,-7.91,-0.077592,0.145424,-1.9441919999999997,3
2024-06-14 11:16:01.149,-29.54,-271.88,-10.99,-0.101748,0.165676,-2.021052,3
2024-06-14 11:16:01.154,-24.78,-296.975,-14.49,-0.114192,0.190076,-2.0671679999999997,3
2024-06-14 11:16:01.159,-19.424999999999997,-322.84000000000003,-18.549999999999997,-0.14884,0.22447999999999999,-2.0842479999999997,3
2024-06-14 11:16:01.164,-13.545,-348.145,-23.240000000000002,-0.177876,0.238144,-2.1396360000000003,3
2024-06-14 11:16:01.169,-7.28,-374.465,-27.3,-0.198372,0.226432,-2.189412,3
2024-06-14 11:16:01.173,-1.47,-400.61,-30.415,-0.220088,0.183976,-2.254316,3
2024-06-14 11:16:01.178,5.6,-429.03,-32.480000000000004,-0.280356,0.159332,-2.231624,3
2024-06-14 11:16:01.183,5.845,-458.99,-33.705,-0.255712,0.112728,-2.3119,3
2024-06-14 11:16:01.188,2.31,-488.145,-33.425,-0.20740000000000003,0.039772,-2.5480919999999996,3
2024-06-14 11:16:01.193,-0.9450000000000001,-514.22,-31.36,-0.08784,0.065392,-2.7591520000000003,3
2024-06-14 11:16:01.198,-9.835,-535.185,-29.61,0.048799999999999996,0.157868,-2.927024,3
2024-06-14 11:16:01.202,-24.535,-553.315,-30.1,0.129808,0.2318,-3.097824,3
2024-06-14 11:16:01.207,-40.635000000000005,-560.9449999999999,-32.480000000000004,0.292312,0.180316,-3.3227919999999997,3
2024-06-14 11:16:01.212,-46.515,-569.135,-31.044999999999998,0.403576,0.109068,-3.4472319999999996,3
2024-06-14 11:16:01.217,-49.7,-564.13,-31.57,0.323056,0.151036,-3.4796839999999998,3
2024-06-14 11:16:01.222,-44.17,-559.335,-38.22,0.238388,0.213744,-3.1573599999999997,3
2024-06-14 11:16:01.227,-31.535000000000004,-559.65,-41.965,0.202032,0.20178800000000002,-2.874564,3
2024-06-14 11:16:01.231,-20.72,-552.23,-42.349999999999994,0.0058560000000000036,0.316224,-2.78648,3
2024-06-14 11:16:01.236,-22.82,-531.0899999999999,-50.785,-0.080764,0.42700000000000005,-2.689368,3
2024-06-14 11:16:01.241,-10.01,-507.92,-57.225,-0.145424,0.30768399999999996,-2.6139719999999995,3
2024-06-14 11:16:01.246,6.86,-488.005,-55.894999999999996,-0.448472,0.270108,-2.6944920000000003,3
2024-06-14 11:16:01.251,11.06,-478.975,-54.04,-0.9555039999999999,0.47116399999999997,-2.846748,4
2024-06-14 11:16:01.256,-7.35,-472.92,-58.135000000000005,-1.479616,0.7015,-2.8460159999999997,4
2024-06-14 11:16:01.260,-42.14,-459.865,-69.755,-2.054236,0.801296,-2.708888,4
2024-06-14 11:16:01.265,-92.4,-433.125,-88.095,-2.636908,0.727364,-2.2264999999999997,4
2024-06-14 11:16:01.270,-129.57,-399.385,-119.77,-2.749148,0.6058520000000001,-1.1563160000000001,4
2024-06-14 11:16:01.275,-136.60500000000002,-379.82000000000005,-152.28500000000003,-2.456104,0.469212,0.07075999999999999,4
2024-06-14 11:16:01.280,-113.61,-385.41999999999996,-167.09,-1.653832,0.923052,0.03416,4
2024-06-14 11:16:01.285,-98.28,-257.95,-174.01999999999998,-1.2734359999999998,0.544852,-0.670512,4
2024-06-14 11:16:01.289,-118.3,-111.265,-178.675,-1.9886,0.128832,-1.6753039999999997,4
2024-06-14 11:16:01.294,-118.72,3.99,-167.57999999999998,-2.265784,-0.37576,-0.9137799999999999,4
2024-06-14 11:16:01.299,-69.965,109.62,-138.18,-2.1706239999999997,-0.5709599999999999,-0.70638,4
2024-06-14 11:16:01.304,-5.880000000000001,192.43,-105.42,-1.9551720000000001,-0.599996,-1.0943399999999999,4
2024-06-14 11:16:01.309,44.31,243.565,-77.175,-1.681892,-0.47214,-1.2575759999999998,4
2024-06-14 11:16:01.314,76.475,267.47,-55.965,-1.47742,-0.29402,-1.1624160000000001,4
2024-06-14 11:16:01.318,89.495,274.4,-42.175,-1.3685960000000001,-0.100528,-1.042368,4
2024-06-14 11:16:01.323,88.69,273.21000000000004,-34.475,-1.258308,0.066856,-0.906948,4
2024-06-14 11:16:01.328,73.955,267.53999999999996,-31.185000000000002,-1.1101999999999999,0.19812799999999997,-0.799588,4
2024-06-14 11:16:01.333,50.155,261.345,-29.33,-0.9657519999999999,0.281332,-0.690032,4
2024-06-14 11:16:01.338,20.265,258.475,-27.86,-0.854244,0.29768,-0.6222000000000001,4
2024-06-14 11:16:01.343,-11.829999999999998,261.1,-26.284999999999997,-0.7817759999999999,0.266204,-0.5848679999999999,4
2024-06-14 11:16:01.347,-40.81,268.625,-24.36,-0.7378559999999998,0.18544,-0.586332,4
2024-06-14 11:16:01.352,-61.53,279.475,-21.455,-0.703452,0.06831999999999999,-0.620004,4
2024-06-14 11:16:01.357,-71.155,292.005,-17.465,-0.671488,-0.061975999999999996,-0.669292,4
2024-06-14 11:16:01.362,-70.10499999999999,304.675,-12.145,-0.6466,-0.18178,-0.734928,4
2024-06-14 11:16:01.367,-61.495,316.015,-5.6,-0.636352,-0.287676,-0.8027599999999999,4
2024-06-14 11:16:01.372,-48.65,325.15,1.61,-0.626104,-0.34892,-0.856684,4
2024-06-14 11:16:01.380,-34.335,332.99,8.575,-0.621224,-0.36575599999999997,-0.892308,4
2024-06-14 11:16:01.384,-21.595,339.67499999999995,14.28,-0.606584,-0.335988,-0.92476,4
2024-06-14 11:16:01.389,-12.25,345.905,18.27,-0.595116,-0.275964,-0.96014,4
2024-06-14 11:16:01.394,-7.42,351.995,19.74,-0.583648,-0.188612,-1.019676,4
2024-06-14 11:16:01.399,-7.175,358.29499999999996,18.655,-0.5802320000000001,-0.11077599999999999,-1.0509080000000002,4
2024-06-14 11:16:01.404,-11.55,365.995,15.434999999999999,-0.592676,-0.055144,-1.04432,4
2024-06-14 11:16:01.408,-19.46,374.605,10.29,-0.604144,-0.014884,-1.05042,4
2024-06-14 11:16:01.413,-29.12,384.405,4.27,-0.588772,0.0053679999999999995,-1.1187399999999998,4
2024-06-14 11:16:01.418,-39.515,393.08500000000004,-1.8199999999999998,-0.560468,-0.005612000000000001,-1.1924279999999998,4
2024-06-14 11:16:01.423,-48.894999999999996,399.55999999999995,-7.525,-0.5321640000000001,-0.039772,-1.257088,4
2024-06-14 11:16:01.428,-54.67,404.145,-12.11,-0.49898,-0.08784,-1.311988,4
2024-06-14 11:16:01.432,-56.805,407.05,-15.435,-0.462136,-0.142008,-1.3754279999999999,4
2024-06-14 11:16:01.437,-55.93,408.905,-17.15,-0.407236,-0.19154,-1.444236,4
2024-06-14 11:16:01.442,-53.41,409.53499999999997,-17.85,-0.34965199999999996,-0.20910800000000002,-1.487912,4
2024-06-14 11:16:01.447,-50.504999999999995,409.815,-17.99,-0.281576,-0.206424,-1.556964,4
2024-06-14 11:16:01.452,-50.155,409.675,-18.025,-0.195932,-0.177388,-1.6042999999999998,4
2024-06-14 11:16:01.456,-54.18,407.92499999999995,-17.92,-0.080764,-0.151524,-1.6504159999999999,4
2024-06-14 11:16:01.461,-62.05500000000001,404.28499999999997,-17.045,0.037087999999999996,-0.132492,-1.715564,4
2024-06-14 11:16:01.466,-72.31,397.81,-14.805,0.164456,-0.12956399999999998,-1.7868119999999998,4
2024-06-14 11:16:01.471,-83.54499999999999,389.06,-10.605,0.280356,-0.157624,-1.860012,4
2024-06-14 11:16:01.476,-92.61000000000001,378.56,-4.375,0.35624,-0.206424,-1.927844,4
2024-06-14 11:16:01.481,-97.195,366.275,3.29,0.39893999999999996,-0.24180399999999996,-1.991528,4
2024-06-14 11:16:01.485,-97.265,352.135,11.34,0.416508,-0.263032,-2.078392,4
2024-06-14 11:16:01.490,-94.32499999999999,336.28,19.145,0.43212399999999995,-0.27205999999999997,-2.1701360000000003,4
2024-06-14 11:16:01.495,-88.305,320.81,26.18,0.409432,-0.237168,-2.282864,4
2024-06-14 11:16:01.500,-81.58500000000001,310.485,31.464999999999996,0.37795599999999996,-0.193736,-2.3992519999999997,4
2024-06-14 11:16:01.505,-76.055,310.1,35.980000000000004,0.343796,-0.165432,-2.479284,4
2024-06-14 11:16:01.509,-70.69999999999999,319.375,40.985,0.34184400000000004,-0.138348,-2.543456,4
2024-06-14 11:16:01.514,-65.52000000000001,333.27,47.04,0.392108,-0.11175199999999999,-2.634956,4
2024-06-14 11:16:01.519,-60.69,345.87,54.11,0.48068,-0.08710799999999999,-2.733044,4
2024-06-14 11:16:01.524,-57.05,355.03999999999996,61.6,0.582428,-0.05856,-2.7806239999999995,4
2024-06-14 11:16:01.529,-52.849999999999994,361.865,68.88,0.6846639999999999,-0.029036000000000003,-2.7911159999999997,4
2024-06-14 11:16:01.533,-48.09,368.725,76.055,0.798368,-0.014152000000000001,-2.793068,4
2024-06-14 11:16:01.538,-42.769999999999996,375.655,83.545,0.927444,-0.005856,-2.7933120000000002,4
2024-06-14 11:16:01.543,-38.36,381.95500000000004,91.595,1.067744,0.006344,-2.7859920000000002,4
2024-06-14 11:16:01.548,-35.349999999999994,386.12,99.96000000000001,1.225856,0.022203999999999998,-2.776964,4
2024-06-14 11:16:01.553,-34.37,387.59,108.255,1.41276,0.043432,-2.77062,4
2024-06-14 11:16:01.557,-34.894999999999996,386.4,116.235,1.621868,0.058803999999999995,-2.7530520000000003,4
2024-06-14 11:16:01.562,-34.685,382.305,123.58500000000001,1.8365879999999999,0.067344,-2.709132,4
2024-06-14 11:16:01.567,-31.29,375.025,130.02499999999998,2.037644,0.09272,-2.636176,4
2024-06-14 11:16:01.572,-16.134999999999998,355.81,135.20499999999998,2.4234080000000002,0.20739999999999997,-2.614948,4
2024-06-14 11:16:01.577,3.6050000000000004,315.84000000000003,143.95499999999998,2.519788,-0.12322,-2.4551279999999998,4
2024-06-14 11:16:01.582,18.375,318.395,129.535,2.364604,0.323056,-2.126948,4
2024-06-14 11:16:01.586,14.559999999999999,321.685,118.125,2.903844,0.7078439999999999,-1.786324,4
2024-06-14 11:16:01.591,12.985,304.22,100.59,3.341336,1.097268,-1.8727,4
2024-06-14 11:16:01.596,1.8899999999999997,276.78,78.08500000000001,3.799812,1.2458639999999999,-2.079124,4
2024-06-14 11:16:01.601,-25.515,254.485,52.955,4.20046,1.23464,-1.6165,4
2024-06-14 11:16:01.606,-53.41,224.245,29.645000000000003,4.68358,1.124352,-1.3644479999999999,4
2024-06-14 11:16:01.610,-74.27000000000001,144.515,14.350000000000001,5.413384000000001,0.6685599999999999,-2.00568,4
2024-06-14 11:16:01.615,-72.66,71.225,8.575,5.5029319999999995,0.108336,-1.640656,4
2024-06-14 11:16:01.620,-62.019999999999996,-2.3099999999999987,11.48,5.739856,-0.6527,-0.8288679999999999,4
2024-06-14 11:16:01.625,-7.0,-110.53,20.65,5.455108,-0.8088599999999999,-1.471808,0
2024-06-14 11:16:01.630,44.94,-192.115,34.614999999999995,5.23624,-0.887916,-1.1982840000000001,0
2024-06-14 11:16:01.634,96.6,-273.315,47.144999999999996,5.047628,-0.858392,-0.70272,0
2024-06-14 11:16:01.639,65.94,-356.93,53.83,4.832908,-0.21716000000000002,-1.6992159999999998,0
