time,gyroscope_x,gyroscope_y,gyroscope_z,accelerometer_x,accelerometer_y,accelerometer_z,phase
2024-06-14 08:13:56.432,171.115,-199.745,30.905,3.620716,-0.349164,-2.12158,1
2024-06-14 08:13:56.436,181.195,-221.33999999999997,1.7150000000000003,2.898232,0.33330400000000004,-0.266204,1
2024-06-14 08:13:56.441,233.94,-271.53,-29.19,2.7659839999999996,0.448472,-0.547292,1
2024-06-14 08:13:56.446,262.115,-238.20999999999998,-40.39,1.9219880000000003,-0.113216,-1.4579,1
2024-06-14 08:13:56.451,287.945,-237.57999999999998,-37.905,0.36526800000000004,-0.0039039999999999995,-1.218292,1
2024-06-14 08:13:56.456,193.72500000000002,-249.795,-32.2,-0.094672,-0.146156,-1.492792,1
2024-06-14 08:13:56.461,128.975,-226.45,-16.765,-0.5404599999999999,0.229116,-1.7733919999999999,1
2024-06-14 08:13:56.465,87.67500000000001,-211.68,1.645,-0.353312,0.22326000000000001,-1.785836,1
2024-06-14 08:13:56.470,79.555,-213.465,16.835,-0.19276,0.049288,-2.064972,1
2024-06-14 08:13:56.475,60.55,-229.67000000000002,24.395,0.144204,-0.09345200000000001,-2.3055559999999997,1
2024-06-14 08:13:56.480,47.565,-237.475,28.945,0.087352,-0.289384,-2.383636,1
2024-06-14 08:13:56.485,33.25,-227.29000000000002,27.195,0.056852,-0.552416,-2.53638,1
2024-06-14 08:13:56.490,6.685,-188.89499999999998,13.58,0.089792,-0.6324479999999999,-2.4258480000000002,1
2024-06-14 08:13:56.494,-9.59,-153.54500000000002,-6.93,0.071492,-0.506056,-2.352648,1
2024-06-14 08:13:56.499,-11.865,-126.105,-22.015,0.189344,-0.23643600000000004,-2.0266640000000002,1
2024-06-14 08:13:56.504,-19.425,-87.08,-27.509999999999998,0.21423199999999998,0.056608000000000006,-2.131096,1
2024-06-14 08:13:56.509,-15.190000000000001,-59.150000000000006,-17.08,0.259128,0.32818,-1.658468,1
2024-06-14 08:13:56.514,-8.4,-59.325,1.8199999999999998,0.15128,0.36941599999999997,-1.5081639999999998,1
2024-06-14 08:13:56.518,2.4499999999999997,-63.980000000000004,10.605,0.169336,0.25717599999999996,-1.4581439999999999,1
2024-06-14 08:13:56.523,10.605,-65.80000000000001,14.98,0.07075999999999999,0.086376,-1.3000319999999999,1
2024-06-14 08:13:56.528,14.49,-64.19,12.844999999999999,-0.038796,-0.032452,-1.133136,1
2024-06-14 08:13:56.533,14.594999999999999,-55.3,7.595,-0.04636,-0.051727999999999996,-1.0592039999999998,2
2024-06-14 08:13:56.538,14.455,-47.39,3.395,-0.021228,0.003416,-0.9962519999999999,2
2024-06-14 08:13:56.543,13.195,-38.465,2.9050000000000002,0.033671999999999994,0.0039039999999999995,-1.030168,2
2024-06-14 08:13:56.547,12.25,-29.575000000000003,4.375,0.035136,0.05856,-1.035536,2
2024-06-14 08:13:56.552,14.7,-27.825,3.3949999999999996,0.052947999999999995,0.055144,-1.1150799999999998,2
2024-06-14 08:13:56.557,16.38,-26.985,1.82,0.046848,0.010492,-1.1480199999999998,2
2024-06-14 08:13:56.562,15.26,-27.965,1.0150000000000001,-0.013176,-0.020252,-1.13094,2
2024-06-14 08:13:56.567,12.565000000000001,-29.085,0.10500000000000001,-0.011712,-0.031964,-1.134112,2
2024-06-14 08:13:56.572,8.925,-30.765,0.0,-0.016592,-0.031231999999999996,-1.126304,2
2024-06-14 08:13:56.576,5.53,-32.445,-0.07,-0.009516,-0.013908,-1.132648,2
2024-06-14 08:13:56.581,2.9050000000000002,-35.42,-0.28,-0.010248000000000002,-0.005612,-1.129232,2
2024-06-14 08:13:56.586,1.54,-36.925,-0.9450000000000001,-0.031232,0.011224,-1.1004399999999999,2
2024-06-14 08:13:56.591,0.77,-37.8,-1.505,-0.033672,0.013908,-1.073356,2
2024-06-14 08:13:56.596,0.10499999999999998,-37.975,-1.855,-0.0244,0.013908,-1.068232,2
2024-06-14 08:13:56.601,-1.26,-38.57,-1.96,-0.005856,0.008296,-1.0804319999999998,2
2024-06-14 08:13:56.605,-2.9050000000000002,-39.445,-1.9249999999999998,0.0009760000000000001,0.005612000000000001,-1.084336,2
2024-06-14 08:13:56.610,-4.795,-40.705,-1.96,-0.012932,0.00366,-1.087996,2
2024-06-14 08:13:56.615,-6.335,-42.980000000000004,-1.96,-0.027816,0.010735999999999999,-1.0901919999999998,2
2024-06-14 08:13:56.620,-7.175,-45.57,-2.2750000000000004,-0.030011999999999997,0.022204,-1.093852,2
2024-06-14 08:13:56.625,-7.63,-47.635,-2.8,-0.025619999999999997,0.02196,-1.0899480000000001,2
2024-06-14 08:13:56.630,-8.225000000000001,-49.735,-3.185,-0.00976,0.016347999999999998,-1.090436,2
2024-06-14 08:13:56.634,-9.135,-50.89,-3.395,0.0012200000000000002,0.006832,-1.0943399999999999,2
2024-06-14 08:13:56.639,-10.045,-51.45,-3.36,0.003904,-0.000976,-1.085556,2
2024-06-14 08:13:56.644,-11.41,-51.45,-3.08,0.010735999999999999,-0.0031720000000000003,-1.0857999999999999,2
2024-06-14 08:13:56.649,-12.285,-52.08,-2.625,0.014152,-0.004636,-1.078724,2
2024-06-14 08:13:56.654,-13.16,-52.43,-2.38,0.018788,0.00366,-1.077016,2
2024-06-14 08:13:56.658,-13.23,-52.045,-2.1,0.023668,0.009271999999999999,-1.0716480000000002,2
2024-06-14 08:13:56.663,-8.504999999999999,-49.42,-1.26,0.028791999999999998,0.024155999999999997,-1.06872,2
2024-06-14 08:13:56.668,-7.945,-49.14,-1.295,0.035624,0.042212,-1.06628,2
2024-06-14 08:13:56.673,-7.77,-49.980000000000004,-1.435,0.032696,0.038796,-1.059936,2
2024-06-14 08:13:56.678,-7.175000000000001,-51.415,-1.4,0.032208,0.053680000000000005,-1.051152,2
2024-06-14 08:13:56.683,-5.215,-52.465,-1.6099999999999999,0.041235999999999995,0.048555999999999995,-1.0579839999999998,2
2024-06-14 08:13:56.687,-6.369999999999999,-51.695,-1.75,0.047091999999999995,0.04026,-1.05164,2
2024-06-14 08:13:56.692,-18.025,-20.79,-3.64,0.05953599999999999,0.048556,-1.020652,2
2024-06-14 08:13:56.697,-6.4399999999999995,-53.305,-2.205,0.060511999999999996,0.047824,-1.039196,2
2024-06-14 08:13:56.702,-4.06,-59.01,-1.82,0.06466,0.04758,-1.050664,2
2024-06-14 08:13:56.707,-3.5,-50.715,-1.54,0.07075999999999999,0.053191999999999996,-1.0509080000000002,2
2024-06-14 08:13:56.712,-4.62,-50.05,-1.26,0.07564,0.044896000000000005,-1.041636,2
2024-06-14 08:13:56.716,-5.074999999999999,-48.58,-1.75,0.07417599999999999,0.040015999999999996,-1.0555439999999998,2
2024-06-14 08:13:56.721,-5.495,-45.465,-1.7149999999999999,0.092476,0.024155999999999997,-1.067012,2
2024-06-14 08:13:56.726,-5.88,-45.394999999999996,-0.6299999999999999,0.08906,0.016347999999999998,-1.070916,2
2024-06-14 08:13:56.731,-10.535,-49.21,0.42,0.08418,0.0017079999999999999,-1.0614,2
2024-06-14 08:13:56.736,-13.299999999999999,-43.400000000000006,1.085,0.08759600000000001,0.007807999999999999,-1.106052,2
2024-06-14 08:13:56.741,-21.07,-43.365,1.12,0.090768,0.008539999999999999,-1.070672,2
2024-06-14 08:13:56.745,-22.225,-42.07,1.9249999999999998,0.097356,0.024399999999999998,-1.0784799999999999,2
2024-06-14 08:13:56.750,-23.799999999999997,-41.265,2.87,0.093208,0.033671999999999994,-1.088972,2
2024-06-14 08:13:56.755,-23.765,-40.599999999999994,2.94,0.103212,0.02806,-1.070916,2
2024-06-14 08:13:56.760,-23.240000000000002,-39.935,2.835,0.10638399999999999,0.043432,-1.0748199999999999,2
2024-06-14 08:13:56.765,-23.064999999999998,-39.69,2.17,0.10858000000000001,0.052704,-1.053592,2
2024-06-14 08:13:56.770,-24.745,-39.655,1.995,0.11102,0.072712,-1.05408,2
2024-06-14 08:13:56.774,-21.244999999999997,-38.78,2.1,0.11687600000000001,0.077348,-1.0311439999999998,2
2024-06-14 08:13:56.779,-22.435000000000002,-37.94,0.98,0.125172,0.08832799999999999,-1.0423679999999997,2
2024-06-14 08:13:56.784,-20.825000000000003,-36.54,-0.14,0.113948,0.09418399999999999,-1.028948,2
2024-06-14 08:13:56.789,-19.18,-34.894999999999996,-0.945,0.116876,0.09638,-1.02846,2
2024-06-14 08:13:56.794,-17.115000000000002,-31.85,-1.785,0.11882799999999999,0.104432,-1.023336,2
2024-06-14 08:13:56.799,-13.825,-27.93,-2.73,0.1159,0.11223999999999999,-1.0250439999999998,2
2024-06-14 08:13:56.803,-9.065,-28.560000000000002,-3.325,0.123952,0.10394400000000001,-1.025776,2
2024-06-14 08:13:56.808,-4.795,-28.455,-3.815,0.113704,0.121268,-1.02846,2
2024-06-14 08:13:56.813,-0.525,-28.315,-4.83,0.121268,0.11858400000000001,-1.034316,2
2024-06-14 08:13:56.818,3.8850000000000002,-28.384999999999998,-5.390000000000001,0.122976,0.11345999999999999,-1.0291919999999999,2
2024-06-14 08:13:56.823,7.91,-27.965,-6.02,0.126392,0.11053199999999999,-1.0301680000000002,2
2024-06-14 08:13:56.827,12.11,-27.65,-6.475,0.13590799999999997,0.10735999999999998,-1.037,2
2024-06-14 08:13:56.832,16.31,-26.845,-7.07,0.1464,0.097356,-1.026752,2
2024-06-14 08:13:56.837,20.195,-26.775,-7.3149999999999995,0.154208,0.08710799999999999,-1.0274839999999998,2
2024-06-14 08:13:56.842,22.925,-26.075,-7.49,0.159088,0.08174,-1.01992,2
2024-06-14 08:13:56.847,24.57,-25.34,-7.63,0.16250399999999998,0.07198,-1.0287039999999998,2
2024-06-14 08:13:56.852,25.935,-24.325,-7.77,0.16128399999999998,0.06246399999999999,-1.031632,2
2024-06-14 08:13:56.856,26.32,-23.625,-7.63,0.165432,0.057828,-1.035536,2
2024-06-14 08:13:56.861,26.32,-23.45,-7.63,0.16616399999999998,0.045627999999999995,-1.036756,2
2024-06-14 08:13:56.866,25.479999999999997,-23.1,-7.5600000000000005,0.17275200000000002,0.035624,-1.04676,2
2024-06-14 08:13:56.871,24.009999999999998,-22.82,-7.21,0.18178,0.024156,-1.0628639999999998,2
2024-06-14 08:13:56.876,21.805,-22.715,-6.475,0.183244,0.0026839999999999998,-1.072136,2
2024-06-14 08:13:56.881,18.585,-22.575,-5.74,0.18470799999999998,-0.0039040000000000004,-1.0789680000000001,2
2024-06-14 08:13:56.885,15.155000000000001,-23.1,-4.9350000000000005,0.188368,-0.022692,-1.093852,2
2024-06-14 08:13:56.890,10.99,-23.415,-3.885,0.182512,-0.020252,-1.103612,2
2024-06-14 08:13:56.895,6.965,-24.395000000000003,-2.8,0.181292,-0.030743999999999997,-1.114836,2
2024-06-14 08:13:56.900,3.255,-25.41,-1.75,0.178364,-0.021716,-1.130696,2
2024-06-14 08:13:56.905,-0.35,-27.16,-0.875,0.178852,-0.016592,-1.137284,2
2024-06-14 08:13:56.910,-3.7800000000000002,-28.630000000000003,-0.105,0.17836400000000002,-0.010492,-1.145092,2
2024-06-14 08:13:56.914,-7.3149999999999995,-31.009999999999998,0.385,0.17446,-0.002196,-1.157048,3
2024-06-14 08:13:56.919,-10.535,-33.495,1.12,0.177144,-0.00024400000000000002,-1.166808,3
2024-06-14 08:13:56.924,-12.985,-36.68,1.435,0.17592400000000002,0.015127999999999999,-1.1714440000000002,3
2024-06-14 08:13:56.929,-14.98,-39.095,1.75,0.17836400000000002,0.017812,-1.169248,3
2024-06-14 08:13:56.934,-16.835,-41.72,1.995,0.183976,0.019032,-1.174128,3
2024-06-14 08:13:56.939,-18.375,-44.555,2.24,0.186416,0.023424,-1.172908,3
2024-06-14 08:13:56.943,-19.740000000000002,-47.005,2.45,0.18544,0.026352,-1.186328,3
2024-06-14 08:13:56.948,-20.439999999999998,-49.945,2.5549999999999997,0.183732,0.038064,-1.196332,3
2024-06-14 08:13:56.953,-20.825,-53.095,2.59,0.187392,0.050019999999999995,-1.207068,3
2024-06-14 08:13:56.958,-20.545,-56.0,2.52,0.18836799999999998,0.057096,-1.223172,3
2024-06-14 08:13:56.963,-19.810000000000002,-58.94,2.38,0.18446400000000002,0.062464,-1.232688,3
2024-06-14 08:13:56.967,-18.619999999999997,-62.894999999999996,2.03,0.185196,0.07539599999999999,-1.2407400000000002,3
2024-06-14 08:13:56.972,-17.884999999999998,-66.78,1.5750000000000002,0.196176,0.06222,-1.247328,3
2024-06-14 08:13:56.977,-16.869999999999997,-72.13499999999999,1.61,0.197396,0.06417199999999999,-1.254648,3
2024-06-14 08:13:56.982,-16.695,-77.315,1.19,0.201544,0.070272,-1.27368,3
2024-06-14 08:13:56.987,-17.15,-82.18,0.77,0.212524,0.078568,-1.298324,3
2024-06-14 08:13:56.992,-20.23,-89.845,-0.035,0.1891,0.104432,-1.336144,3
2024-06-14 08:13:56.996,-16.59,-92.995,-0.63,0.207644,0.055388,-1.3122319999999998,3
2024-06-14 08:13:57.001,-15.645,-99.505,-0.56,0.20910800000000002,0.084424,-1.34566,3
2024-06-14 08:13:57.006,-16.8,-105.805,-1.8199999999999998,0.219356,0.14395999999999998,-1.3527360000000002,3
2024-06-14 08:13:57.011,-18.305,-112.91,-3.85,0.222772,0.144692,-1.3734760000000001,3
2024-06-14 08:13:57.016,-16.8,-120.05000000000001,-5.215,0.221308,0.121512,-1.3888479999999999,3
2024-06-14 08:13:57.021,-14.35,-128.31,-6.4399999999999995,0.210572,0.123464,-1.40666,3
2024-06-14 08:13:57.025,-12.215,-137.095,-7.699999999999999,0.21228,0.14761999999999997,-1.4388679999999998,3
2024-06-14 08:13:57.030,-10.36,-147.49,-9.59,0.214232,0.17568,-1.4718079999999998,3
2024-06-14 08:13:57.035,-9.52,-157.78,-11.934999999999999,0.214964,0.14981599999999998,-1.48962,3
2024-06-14 08:13:57.040,-4.9,-168.875,-13.02,0.210328,0.141764,-1.528172,3
2024-06-14 08:13:57.045,-4.34,-180.53,-14.875,0.20862000000000003,0.17397200000000002,-1.589172,3
2024-06-14 08:13:57.050,-3.01,-191.625,-16.59,0.207156,0.154696,-1.6323599999999998,3
2024-06-14 08:13:57.054,-2.625,-204.575,-18.165,0.207644,0.157624,-1.68116,3
2024-06-14 08:13:57.059,-5.215,-217.91,-20.755000000000003,0.200812,0.17226399999999997,-1.7043400000000002,3
2024-06-14 08:13:57.064,-3.395,-231.76999999999998,-22.96,0.198372,0.174704,-1.734108,3
2024-06-14 08:13:57.069,-3.71,-247.135,-25.48,0.17812,0.199592,-1.799256,3
2024-06-14 08:13:57.074,-4.655,-261.1,-28.945,0.170068,0.15689199999999998,-1.8475679999999999,3
2024-06-14 08:13:57.079,-3.99,-277.165,-30.66,0.176168,0.13810399999999998,-1.860256,3
2024-06-14 08:13:57.083,-3.045,-294.77,-32.165,0.19276,0.14810800000000002,-1.9510239999999999,3
2024-06-14 08:13:57.088,13.684999999999999,-313.39,-34.335,0.16665199999999997,0.08052000000000001,-2.05936,3
2024-06-14 08:13:57.093,-6.93,-328.405,-34.055,0.201788,0.10052799999999999,-2.1550079999999996,3
2024-06-14 08:13:57.098,-10.01,-345.20500000000004,-34.825,0.21545199999999998,0.1159,-2.301896,3
2024-06-14 08:13:57.103,-4.234999999999999,-363.195,-34.545,0.198128,0.12834399999999999,-2.3404480000000003,3
2024-06-14 08:13:57.108,-3.15,-379.33000000000004,-34.265,0.218868,0.20813199999999998,-2.443904,3
2024-06-14 08:13:57.112,-3.08,-391.86,-35.84,0.266692,0.271328,-2.586888,3
2024-06-14 08:13:57.117,-4.0600000000000005,-404.80999999999995,-38.57,0.26278799999999997,0.31012399999999996,-2.5956719999999995,3
2024-06-14 08:13:57.122,-2.6950000000000003,-412.02,-39.235,0.227408,0.395768,-2.6330039999999997,3
2024-06-14 08:13:57.127,-9.205,-415.275,-46.375,0.17958399999999997,0.52338,-2.5559000000000003,3
2024-06-14 08:13:57.132,-6.3,-421.225,-52.29,0.155916,0.5636399999999999,-2.469036,3
2024-06-14 08:13:57.136,-9.870000000000001,-424.20000000000005,-60.655,0.034892000000000006,0.6622159999999999,-2.4578119999999997,3
2024-06-14 08:13:57.141,-13.405,-425.32,-72.41499999999999,0.048068,0.753228,-2.255292,3
2024-06-14 08:13:57.146,-14.42,-430.46500000000003,-83.65,0.0671,0.865956,-2.093032,3
2024-06-14 08:13:57.151,-14.63,-437.395,-99.29499999999999,0.473116,0.8869400000000001,-1.802428,3
2024-06-14 08:13:57.156,1.855,-445.305,-104.22999999999999,0.300364,0.847656,-1.899784,3
2024-06-14 08:13:57.161,-11.41,-448.07,-110.985,0.26156799999999997,1.1045880000000001,-1.6967759999999998,3
2024-06-14 08:13:57.165,-46.13,-442.925,-122.88499999999999,0.08662,1.3512719999999998,-1.751188,3
2024-06-14 08:13:57.170,-94.465,-429.38,-137.305,0.051972,1.35908,-1.833904,3
2024-06-14 08:13:57.175,-148.715,-414.75,-151.13,-0.158112,1.312476,-1.900028,3
2024-06-14 08:13:57.180,-200.865,-393.71500000000003,-166.70499999999998,-0.42431599999999997,1.319308,-1.782908,3
2024-06-14 08:13:57.185,-240.275,-363.51,-186.375,-0.6075600000000001,1.212192,-1.533296,3
2024-06-14 08:13:57.190,-265.72,-326.97,-208.915,-0.7546919999999999,0.963312,-1.300764,3
2024-06-14 08:13:57.194,-275.345,-288.435,-227.885,-1.03456,0.709308,-0.992104,3
2024-06-14 08:13:57.199,-260.26,-240.27499999999998,-217.7,-1.5069439999999998,0.448472,-0.647576,3
2024-06-14 08:13:57.204,-225.26,-170.31,-189.245,-0.6180519999999999,0.14273999999999998,-0.502884,4
2024-06-14 08:13:57.209,-171.255,-75.03999999999999,-155.29500000000002,-1.079944,-0.483608,-1.128256,4
2024-06-14 08:13:57.214,-105.525,15.260000000000002,-107.87,-1.5755080000000001,-0.9525759999999999,-0.760548,4
2024-06-14 08:13:57.219,-29.155,80.395,-51.099999999999994,-1.6165,-0.955748,-0.480436,4
2024-06-14 08:13:57.223,44.695,133.49,-4.41,-1.27978,-0.633668,-0.61122,4
2024-06-14 08:13:57.228,109.76,175.28,27.195,-0.9325679999999998,-0.398208,-0.8618079999999999,4
2024-06-14 08:13:57.233,154.805,202.265,47.739999999999995,-0.789828,-0.18788,-1.0072320000000001,4
2024-06-14 08:13:57.238,175.56,219.58999999999997,58.135000000000005,-0.739564,0.08052,-1.014308,4
2024-06-14 08:13:57.243,175.595,232.015,59.045,-0.6958880000000001,0.35038400000000003,-0.932812,4
2024-06-14 08:13:57.248,161.735,241.01,53.129999999999995,-0.643184,0.528748,-0.8564400000000001,4
2024-06-14 08:13:57.252,137.82999999999998,248.01,42.875,-0.609756,0.636352,-0.804956,4
2024-06-14 08:13:57.257,107.66,252.945,29.75,-0.577548,0.678564,-0.769576,4
2024-06-14 08:13:57.262,75.70500000000001,255.745,15.399999999999999,-0.5304559999999999,0.67466,-0.7378560000000001,4
2024-06-14 08:13:57.267,46.480000000000004,255.95499999999998,1.2599999999999998,-0.47336,0.629032,-0.714188,4
2024-06-14 08:13:57.272,23.520000000000003,253.08499999999998,-12.18,-0.416508,0.5611999999999999,-0.701012,4
2024-06-14 08:13:57.276,7.1049999999999995,248.57,-24.08,-0.371368,0.46848,-0.697352,4
2024-06-14 08:13:57.281,-2.9050000000000002,244.335,-33.285,-0.34038,0.36356,-0.675148,4
2024-06-14 08:13:57.286,-6.055,242.2,-39.305,-0.325252,0.261324,-0.650504,4
2024-06-14 08:13:57.291,-4.515000000000001,242.26999999999998,-42.035,-0.33086399999999994,0.18397599999999997,-0.658312,4
2024-06-14 08:13:57.296,0.03499999999999992,245.45499999999998,-41.58,-0.317932,0.124196,-0.665632,4
2024-06-14 08:13:57.301,6.125,251.755,-38.43,-0.312808,0.089792,-0.6871039999999999,4
2024-06-14 08:13:57.305,12.705,259.805,-33.215,-0.30280399999999996,0.08149599999999999,-0.722972,4
2024-06-14 08:13:57.310,18.235,269.255,-26.845,-0.30036399999999996,0.09345200000000001,-0.754936,4
2024-06-14 08:13:57.315,22.19,278.845,-19.46,-0.304268,0.10467599999999999,-0.7942199999999999,4
2024-06-14 08:13:57.320,24.465,288.26,-11.969999999999999,-0.305976,0.1281,-0.8337479999999999,4
2024-06-14 08:13:57.325,23.869999999999997,297.85,-4.55,-0.30036399999999996,0.163968,-0.874984,4
2024-06-14 08:13:57.330,20.439999999999998,307.23,2.5199999999999996,-0.28694400000000003,0.21301199999999998,-0.9176839999999999,4
2024-06-14 08:13:57.334,15.715,315.525,9.379999999999999,-0.26449599999999995,0.23668,-0.961604,4
2024-06-14 08:13:57.339,10.57,322.245,15.68,-0.2318,0.24034,-1.016016,4
2024-06-14 08:13:57.344,5.355,327.075,21.35,-0.19398,0.233508,-1.06506,4
2024-06-14 08:13:57.349,0.5249999999999999,329.49,26.6,-0.151036,0.22813999999999998,-1.087752,4
2024-06-14 08:13:57.354,-4.585,329.41999999999996,31.045,-0.107604,0.23204399999999997,-1.113128,4
2024-06-14 08:13:57.359,-10.745000000000001,326.9,34.335,-0.061,0.255468,-1.159,4
2024-06-14 08:13:57.363,-18.165,321.895,36.084999999999994,-0.000732,0.29621600000000003,-1.224148,4
2024-06-14 08:13:57.368,-26.53,314.58000000000004,35.84,0.059292,0.325496,-1.2866119999999999,4
2024-06-14 08:13:57.373,-36.155,306.145,34.195,0.09394,0.33696399999999993,-1.337364,4
2024-06-14 08:13:57.378,-46.760000000000005,297.885,31.675,0.1159,0.325496,-1.362496,4
2024-06-14 08:13:57.383,-57.120000000000005,290.395,29.015,0.12468399999999999,0.31232,-1.393484,4
2024-06-14 08:13:57.388,-65.8,284.305,26.53,0.139568,0.282308,-1.4535079999999998,4
2024-06-14 08:13:57.392,-72.625,279.755,24.814999999999998,0.16909200000000002,0.22814,-1.50792,4
2024-06-14 08:13:57.397,-76.965,275.765,25.025,0.19154,0.16836,-1.54208,4
2024-06-14 08:13:57.402,-78.715,274.04999999999995,27.3,0.204472,0.11346,-1.5779480000000001,4
2024-06-14 08:13:57.407,-79.205,273.245,31.045,0.22594399999999998,0.07197999999999999,-1.620648,4
2024-06-14 08:13:57.412,-79.31,273.42,36.435,0.260592,0.041235999999999995,-1.663592,4
2024-06-14 08:13:57.417,-79.44999999999999,273.80499999999995,43.26,0.290848,0.022204,-1.701656,4
2024-06-14 08:13:57.421,-78.995,274.155,51.1,0.311588,0.0031719999999999995,-1.729716,4
2024-06-14 08:13:57.426,-78.225,274.08500000000004,59.15,0.324764,-0.003172,-1.760216,4
2024-06-14 08:13:57.431,-77.455,273.21000000000004,66.78,0.336476,0.012199999999999999,-1.793156,4
2024-06-14 08:13:57.436,-76.72,271.28499999999997,73.185,0.34477199999999997,0.039772,-1.823168,4
2024-06-14 08:13:57.441,-76.61500000000001,269.885,78.33,0.32817999999999997,0.079544,-1.8451279999999999,4
2024-06-14 08:13:57.445,-77.105,268.45,81.305,0.311588,0.12517199999999998,-1.870504,4
2024-06-14 08:13:57.450,-78.33000000000001,268.38,82.215,0.295728,0.159088,-1.894904,4
2024-06-14 08:13:57.455,-79.13499999999999,268.73,81.445,0.29792399999999997,0.173728,-1.9224759999999999,4
2024-06-14 08:13:57.460,-78.75,269.5,79.59,0.320616,0.189344,-1.9463879999999998,4
2024-06-14 08:13:57.465,-77.56,270.235,76.82499999999999,0.354044,0.18470799999999998,-1.9705439999999999,4
2024-06-14 08:13:57.470,-75.91499999999999,271.67,74.375,0.39161999999999997,0.17202,-1.9854279999999997,4
2024-06-14 08:13:57.474,-73.955,273.63,72.485,0.43066,0.167872,-1.9927479999999997,4
2024-06-14 08:13:57.479,-72.16999999999999,275.8,70.97999999999999,0.477508,0.16543199999999997,-1.9893319999999999,4
2024-06-14 08:13:57.484,-70.98,277.69,69.61500000000001,0.5338719999999999,0.168848,-1.9951880000000002,4
2024-06-14 08:13:57.489,-70.525,278.635,68.215,0.594384,0.174948,-1.998848,4
2024-06-14 08:13:57.494,-70.56,278.03999999999996,66.88499999999999,0.66002,0.175436,-1.9951879999999997,4
2024-06-14 08:13:57.499,-70.805,275.975,65.66,0.720532,0.18348799999999998,-1.9998239999999998,4
2024-06-14 08:13:57.503,-71.295,273.63,64.25999999999999,0.76738,0.183732,-2.0156840000000003,4
2024-06-14 08:13:57.508,-71.4,271.355,62.825,0.8100799999999999,0.186416,-2.02642,4
2024-06-14 08:13:57.513,-70.735,269.36,61.495000000000005,0.8422879999999999,0.188612,-2.0217840000000002,4
2024-06-14 08:13:57.518,-69.405,266.98,60.2,0.876448,0.19154,-2.019344,4
2024-06-14 08:13:57.523,-69.02000000000001,264.355,58.905,0.912804,0.19885999999999998,-2.02032,4
2024-06-14 08:13:57.528,-70.28,261.24,57.61,0.96136,0.212036,-2.012512,4
2024-06-14 08:13:57.532,-74.095,258.23,56.245000000000005,1.02724,0.213744,-2.012756,4
2024-06-14 08:13:57.537,-79.24000000000001,255.36,54.495000000000005,1.0994639999999998,0.191052,-1.999336,4
2024-06-14 08:13:57.542,-83.93,252.28,52.57,1.1958440000000001,0.14713199999999999,-1.9756679999999998,4
2024-06-14 08:13:57.547,-87.185,248.255,50.75,1.3195519999999998,0.09394,-1.9402879999999998,4
2024-06-14 08:13:57.552,-88.13,241.99,49.105000000000004,1.456436,0.034404,-1.890756,4
2024-06-14 08:13:57.557,-87.71000000000001,233.38,47.565,1.6006399999999998,-0.008784,-1.835124,4
2024-06-14 08:13:57.561,-87.85,221.795,45.78,1.761436,-0.045628,-1.777296,4
2024-06-14 08:13:57.566,-89.03999999999999,208.18,43.47,1.9332120000000002,-0.07808,-1.7094639999999999,4
2024-06-14 08:13:57.571,-92.4,192.92000000000002,39.83,2.1176760000000003,-0.11785199999999998,-1.637484,4
2024-06-14 08:13:57.576,-97.825,176.575,35.385000000000005,2.334104,-0.18056,-1.575264,4
2024-06-14 08:13:57.581,-104.825,159.565,30.275,2.5876200000000003,-0.295972,-1.522804,4
2024-06-14 08:13:57.586,-112.35,141.575,26.494999999999997,2.857728,-0.48507199999999995,-1.47864,4
2024-06-14 08:13:57.590,-116.9,121.485,24.955,3.0875760000000003,-0.7227279999999999,-1.450336,4
2024-06-14 08:13:57.595,-113.015,98.35,27.055,3.2347079999999995,-0.98942,-1.4327679999999998,4
2024-06-14 08:13:57.600,-98.0,72.83500000000001,30.345,3.2615480000000003,-1.247328,-1.408612,4
2024-06-14 08:13:57.605,-71.4,45.745000000000005,36.644999999999996,3.170048,-1.424472,-1.3524919999999998,4
2024-06-14 08:13:57.610,-35.629999999999995,19.46,43.364999999999995,2.99388,-1.44692,-1.302716,4
2024-06-14 08:13:57.614,2.625,-3.7100000000000004,47.81,2.7628120000000003,-1.323944,-1.26392,4
2024-06-14 08:13:57.619,36.4,-22.259999999999998,49.56,2.501488,-1.093364,-1.2148759999999998,4
2024-06-14 08:13:57.624,60.97,-35.42,48.510000000000005,2.2286960000000002,-0.812276,-1.159244,4
2024-06-14 08:13:57.629,110.63499999999999,-105.525,45.71,3.197376,-0.23521599999999998,-1.654076,0
