time,gyroscope_x,gyroscope_y,gyroscope_z,accelerometer_x,accelerometer_y,accelerometer_z,phase
2024-06-14 13:00:05.546,88.13,-287.7,-61.39,4.661864,-2.1520799999999998,-0.633912,1
2024-06-14 13:00:05.551,109.06,-328.79,-40.32,1.7289839999999999,0.46359999999999996,-0.03904,1
2024-06-14 13:00:05.556,194.46,-356.93,-55.09,-1.894904,0.200568,0.360632,1
2024-06-14 13:00:05.561,219.87,-398.44,-54.04,0.12736799999999998,0.20544800000000002,-0.65636,1
2024-06-14 13:00:05.565,223.3,-420.77,-45.15,0.13956799999999997,0.382104,-1.928088,1
2024-06-14 13:00:05.570,203.42,-414.47,-22.05,-0.768112,0.359168,-1.471808,1
2024-06-14 13:00:05.575,162.47,-406.84,6.02,0.054655999999999996,0.267912,-1.690432,1
2024-06-14 13:00:05.580,118.16,-376.67,33.53,0.667584,0.171288,-2.1715999999999998,1
2024-06-14 13:00:05.584,67.13,-307.37,58.38,0.508984,-0.20788800000000002,-2.135,1
2024-06-14 13:00:05.585,86.17,-332.08,53.76,0.599264,-0.124928,-2.0061679999999997,1
2024-06-14 13:00:05.588,77.14,-271.95,52.15,0.26108,-0.489464,-2.1911199999999997,1
2024-06-14 13:00:05.593,54.32,-253.4,39.83,0.220576,-0.6695359999999999,-2.7352399999999997,1
2024-06-14 13:00:05.598,37.17,-219.31,27.79,0.2074,-0.518744,-2.637152,1
2024-06-14 13:00:05.603,9.8,-167.37,17.29,0.365512,-0.27376799999999996,-2.162328,1
2024-06-14 13:00:05.608,10.36,-106.89,7.28,0.396256,-0.314272,-1.850008,1
2024-06-14 13:00:05.613,8.54,-61.6,-3.64,0.326472,-0.150304,-1.6230879999999999,1
2024-06-14 13:00:05.617,10.15,-27.23,-9.59,0.28645600000000004,-0.020007999999999998,-1.352736,1
2024-06-14 13:00:05.622,4.83,-14.21,-6.09,0.19032,-0.036112000000000005,-1.186328,1
2024-06-14 13:00:05.627,-1.89,-13.02,-0.35,0.10003999999999999,-0.018056000000000003,-1.146312,1
2024-06-14 13:00:05.632,-3.43,-13.58,0.84,0.040504,-0.000488,-1.09068,1
2024-06-14 13:00:05.637,-4.13,-13.3,2.38,-0.027327999999999998,-0.011224,-1.05408,1
2024-06-14 13:00:05.642,-2.8,-12.04,1.82,-0.08295999999999999,0.001952,-1.007232,1
2024-06-14 13:00:05.646,-0.7,-10.85,0.21,-0.06539199999999999,0.008296,-0.984784,1
2024-06-14 13:00:05.651,0.63,-8.05,-0.7,-0.045384,-0.010248,-0.9638,1
2024-06-14 13:00:05.656,1.82,-3.64,-0.21,-0.031232,-0.01464,-0.955504,2
2024-06-14 13:00:05.661,3.78,0.77,-0.07,-0.022936,-0.00488,-0.9657519999999999,2
2024-06-14 13:00:05.666,5.88,4.34,0.28,-0.025376,-0.013663999999999999,-0.987712,2
2024-06-14 13:00:05.671,6.16,6.44,0.21,-0.024887999999999997,-0.031232,-1.015528,2
2024-06-14 13:00:05.675,4.9,7.28,0.49,-0.03904,-0.039528,-1.0340719999999999,2
2024-06-14 13:00:05.680,2.87,6.02,0.7,-0.044408,-0.035624,-1.04188,2
2024-06-14 13:00:05.685,1.4,4.76,0.91,-0.044408,-0.025376,-1.044808,2
2024-06-14 13:00:05.690,0.28,3.92,0.91,-0.046848,-0.021472,-1.0340719999999999,2
2024-06-14 13:00:05.695,-0.07,3.64,0.91,-0.046848,-0.019032,-1.030656,2
2024-06-14 13:00:05.700,-0.28,3.43,0.98,-0.049775999999999994,-0.020007999999999998,-1.029192,2
2024-06-14 13:00:05.705,-0.49,2.59,0.98,-0.050263999999999996,-0.018544,-1.033584,2
2024-06-14 13:00:05.709,-0.7,1.19,0.98,-0.057095999999999994,-0.00488,-1.04188,2
2024-06-14 13:00:05.714,-0.77,-0.56,0.84,-0.060024,-0.010736,-1.045296,2
2024-06-14 13:00:05.719,-0.77,-2.8,0.63,-0.059048,-0.012688,-1.049688,2
2024-06-14 13:00:05.724,-0.84,-4.69,0.7,-0.060024,-0.015128,-1.0477359999999998,2
2024-06-14 13:00:05.729,-1.19,-6.58,0.7,-0.062464,-0.018056000000000003,-1.04188,2
2024-06-14 13:00:05.734,-1.33,-7.98,0.7,-0.05856,-0.020496,-1.038952,2
2024-06-14 13:00:05.738,-1.4,-9.24,0.7,-0.055144,-0.020007999999999998,-1.030168,2
2024-06-14 13:00:05.743,-1.26,-9.73,0.7,-0.055144,-0.016104,-1.0262639999999998,2
2024-06-14 13:00:05.748,-1.05,-10.22,0.77,-0.05124,-0.01952,-1.020408,2
2024-06-14 13:00:05.753,-0.77,-10.01,0.7,-0.050752,-0.014152,-1.016992,2
2024-06-14 13:00:05.758,-0.49,-9.87,0.7,-0.04636,-0.017079999999999998,-1.0145520000000001,2
2024-06-14 13:00:05.763,-0.35,-9.66,0.56,-0.05124,-0.018056000000000003,-1.0189439999999998,2
2024-06-14 13:00:05.767,-0.14,-9.59,0.56,-0.050752,-0.01464,-1.021872,2
2024-06-14 13:00:05.772,-0.21,-9.94,0.42,-0.051728,-0.016592,-1.02724,2
2024-06-14 13:00:05.777,-0.14,-10.43,0.42,-0.04636,-0.013176,-1.02724,2
2024-06-14 13:00:05.782,-0.35,-11.06,0.42,-0.050263999999999996,-0.020984,-1.0262639999999998,2
2024-06-14 13:00:05.787,-0.49,-11.69,0.28,-0.045872,-0.017567999999999997,-1.0282159999999998,2
2024-06-14 13:00:05.792,-0.77,-12.18,0.28,-0.045384,-0.020007999999999998,-1.021384,2
2024-06-14 13:00:05.797,-0.63,-12.18,0.28,-0.044896,-0.020007999999999998,-1.020408,2
2024-06-14 13:00:05.801,-0.49,-12.6,0.28,-0.040015999999999996,-0.015616,-1.017968,2
2024-06-14 13:00:05.806,-0.35,-12.67,0.07,-0.040992,-0.015128,-1.0126,2
2024-06-14 13:00:05.811,-0.28,-13.02,0.0,-0.040504,-0.01464,-1.011136,2
2024-06-14 13:00:05.816,-0.21,-12.74,-0.07,-0.040992,-0.01464,-1.01016,2
2024-06-14 13:00:05.821,0.07,-12.6,-0.28,-0.038064,-0.01952,-1.008696,2
2024-06-14 13:00:05.826,0.14,-12.6,-0.35,-0.039528,-0.02196,-1.013576,2
2024-06-14 13:00:05.830,0.21,-12.74,-0.49,-0.040015999999999996,-0.023424,-1.015528,2
2024-06-14 13:00:05.835,0.0,-13.09,-0.63,-0.037088,-0.017079999999999998,-1.016016,2
2024-06-14 13:00:05.840,0.14,-13.09,-0.49,-0.036112000000000005,-0.019032,-1.0126,2
2024-06-14 13:00:05.845,0.28,-13.02,-0.7,-0.037088,-0.020007999999999998,-1.013576,2
2024-06-14 13:00:05.850,0.28,-13.16,-0.63,-0.035135999999999994,-0.019032,-1.0126,2
2024-06-14 13:00:05.855,0.28,-13.09,-0.7,-0.032695999999999996,-0.016592,-1.011624,2
2024-06-14 13:00:05.859,0.28,-12.88,-0.7,-0.033184,-0.017567999999999997,-1.0096720000000001,2
2024-06-14 13:00:05.864,0.49,-12.81,-0.84,-0.028791999999999998,-0.016592,-1.011136,2
2024-06-14 13:00:05.869,0.63,-12.46,-0.77,-0.033184,-0.018544,-1.01016,2
2024-06-14 13:00:05.874,0.63,-12.95,-0.91,-0.030256,-0.018544,-1.011624,2
2024-06-14 13:00:05.879,0.63,-13.09,-1.05,-0.028304,-0.030256,-1.011136,2
2024-06-14 13:00:05.884,0.42,-13.93,-1.12,-0.027816,-0.01952,-1.01504,2
2024-06-14 13:00:05.889,0.56,-13.65,-1.05,-0.027327999999999998,-0.017567999999999997,-1.01504,2
2024-06-14 13:00:05.893,0.56,-13.86,-1.12,-0.028304,-0.015128,-1.015528,2
2024-06-14 13:00:05.898,0.49,-14.0,-1.05,-0.02196,-0.018544,-1.013088,2
2024-06-14 13:00:05.903,0.35,-14.14,-1.05,-0.023424,-0.025376,-1.01504,2
2024-06-14 13:00:05.908,0.28,-14.0,-1.12,-0.022448,-0.022448,-1.011136,2
2024-06-14 13:00:05.913,0.42,-13.72,-1.05,-0.016104,-0.024399999999999998,-1.013088,2
2024-06-14 13:00:05.918,0.28,-13.44,-1.05,-0.018544,-0.02196,-1.011136,2
2024-06-14 13:00:05.922,0.28,-12.88,-1.12,-0.018056000000000003,-0.023424,-1.0047920000000001,2
2024-06-14 13:00:05.927,0.21,-12.53,-1.12,-0.010248,-0.027327999999999998,-1.008696,2
2024-06-14 13:00:05.932,0.0,-12.11,-0.98,-0.013176,-0.028791999999999998,-1.011624,2
2024-06-14 13:00:05.937,-0.42,-12.18,-0.84,-0.013176,-0.029768,-1.0145520000000001,2
2024-06-14 13:00:05.942,-0.7,-12.25,-0.91,-0.013663999999999999,-0.024399999999999998,-1.01992,2
2024-06-14 13:00:05.947,-0.91,-12.74,-0.84,-0.013663999999999999,-0.023424,-1.0194320000000001,2
2024-06-14 13:00:05.951,-0.98,-13.3,-0.91,-0.013663999999999999,-0.020007999999999998,-1.025288,2
2024-06-14 13:00:05.956,-1.96,-13.65,-1.12,-0.010248,-0.018544,-1.0262639999999998,2
2024-06-14 13:00:05.961,-3.64,-13.51,-1.61,-0.00976,-0.01952,-1.025776,2
2024-06-14 13:00:05.966,-36.89,23.38,-18.62,-0.062464,-0.054655999999999996,-1.033096,2
2024-06-14 13:00:05.971,-3.57,48.65,-3.57,-0.010736,-0.016592,-1.033096,2
2024-06-14 13:00:05.976,-4.48,38.43,3.5,-0.011224,-0.016104,-1.029192,2
2024-06-14 13:00:05.980,-10.36,30.8,4.9,-0.011712,-0.020984,-1.0457839999999998,2
2024-06-14 13:00:05.985,-4.48,25.41,0.07,-0.011712,-0.010736,-1.060912,2
2024-06-14 13:00:05.990,-10.08,23.17,-4.2,-0.005368,-0.017567999999999997,-1.025288,2
2024-06-14 13:00:05.995,-2.03,6.79,-1.19,-0.008783999999999998,-0.00976,-1.049688,2
2024-06-14 13:00:06.000,-7.35,-3.08,1.26,-0.005368,-0.020984,-1.064328,2
2024-06-14 13:00:06.005,-0.84,-12.32,-0.28,-0.004391999999999999,-0.021472,-1.0535919999999999,2
2024-06-14 13:00:06.010,-1.33,-20.51,-3.85,0.000976,-0.012688,-1.062376,2
2024-06-14 13:00:06.014,4.48,-26.88,-2.94,0.0034159999999999998,-0.022936,-1.0589600000000001,2
2024-06-14 13:00:06.019,8.96,-33.25,-0.7,0.010248,-0.007808,-1.052128,2
2024-06-14 13:00:06.024,15.12,-36.33,1.05,-0.003904,-0.011224,-1.126792,2
2024-06-14 13:00:06.029,-0.42,-30.24,-2.59,0.00976,-0.011712,-1.1028799999999999,2
2024-06-14 13:00:06.034,-0.49,-33.39,-3.57,0.013176,-0.029768,-1.102392,2
2024-06-14 13:00:06.039,-1.82,-36.05,-2.87,0.00976,-0.006344,-1.11996,2
2024-06-14 13:00:06.043,-2.24,-40.32,-1.61,0.00488,-0.033671999999999994,-1.1653440000000002,2
2024-06-14 13:00:06.048,-1.96,-44.87,-2.38,0.001464,0.0,-1.1843759999999999,3
2024-06-14 13:00:06.053,-2.94,-48.51,-4.06,0.002928,-0.028304,-1.218048,3
2024-06-14 13:00:06.058,-1.19,-54.04,-3.36,0.004391999999999999,-0.022448,-1.231712,3
2024-06-14 13:00:06.063,-1.96,-59.43,-2.52,0.008783999999999998,-0.020007999999999998,-1.251232,3
2024-06-14 13:00:06.068,-3.85,-64.4,-2.24,0.008296,-0.059536,-1.250256,3
2024-06-14 13:00:06.072,-3.5,-69.72,-2.24,0.007808,-0.066856,-1.276608,3
2024-06-14 13:00:06.077,-7.0,-74.13,-2.24,0.015616,-0.07564,-1.272704,3
2024-06-14 13:00:06.082,-10.22,-78.12,-0.84,0.023424,-0.09711199999999999,-1.263432,3
2024-06-14 13:00:06.087,-12.67,-82.95,0.91,0.028791999999999998,-0.095648,-1.281488,3
2024-06-14 13:00:06.092,-14.49,-87.43,1.68,0.023912,-0.090768,-1.296128,3
2024-06-14 13:00:06.097,-15.68,-92.12,1.89,0.026352,-0.075152,-1.316136,3
2024-06-14 13:00:06.102,-17.57,-98.91,2.52,0.025864,-0.052216,-1.345904,3
2024-06-14 13:00:06.106,-20.02,-106.19,2.8,0.025376,-0.034159999999999996,-1.3785999999999998,3
2024-06-14 13:00:06.111,-20.58,-114.52,2.45,0.018544,-0.005368,-1.3898240000000002,3
2024-06-14 13:00:06.116,-19.88,-124.95,1.68,0.009272,0.008296,-1.4552159999999998,3
2024-06-14 13:00:06.121,-18.41,-136.64,0.84,0.006344,0.025864,-1.49084,3
2024-06-14 13:00:06.126,-16.66,-150.78,0.07,0.006344,0.013176,-1.465952,3
2024-06-14 13:00:06.131,-12.81,-163.17,0.0,0.008296,0.039528,-1.575264,3
2024-06-14 13:00:06.135,-8.12,-176.54,-1.54,0.005856,0.087352,-1.567456,3
2024-06-14 13:00:06.140,-1.4,-187.95,-3.78,-0.012688,0.1586,-1.589904,3
2024-06-14 13:00:06.145,3.5,-200.97,-7.21,-0.015616,0.211304,-1.635288,3
2024-06-14 13:00:06.150,12.6,-214.41,-10.36,-0.013176,0.202032,-1.647488,3
2024-06-14 13:00:06.155,19.6,-226.94,-13.65,0.0,0.19276,-1.702144,3
2024-06-14 13:00:06.160,27.93,-239.4,-16.38,-0.015128,0.14884,-1.75924,3
2024-06-14 13:00:06.164,32.76,-253.82,-18.55,-0.02196,0.132736,-1.8207280000000001,3
2024-06-14 13:00:06.169,38.43,-269.78,-20.23,-0.04392,0.135176,-1.951512,3
2024-06-14 13:00:06.174,45.29,-288.33,-22.05,-0.057583999999999996,0.167872,-2.02764,3
2024-06-14 13:00:06.179,51.45,-308.07,-24.43,-0.08930400000000001,0.211792,-2.1071839999999997,3
2024-06-14 13:00:06.184,55.37,-328.93,-27.65,-0.087352,0.247416,-2.179408,3
2024-06-14 13:00:06.189,57.26,-350.49,-31.08,-0.035624,0.28792,-2.338984,3
2024-06-14 13:00:06.194,59.22,-372.4,-34.65,-0.004391999999999999,0.35965600000000003,-2.591768,3
2024-06-14 13:00:06.198,60.62,-394.87,-38.71,0.012199999999999999,0.472384,-2.88408,3
2024-06-14 13:00:06.203,55.65,-418.53,-44.59,-0.01952,0.57828,-3.1231999999999998,3
2024-06-14 13:00:06.208,42.07,-440.51,-51.66,0.063928,0.589504,-3.172,3
2024-06-14 13:00:06.213,25.2,-464.73,-57.4,0.06588,0.523624,-3.127592,3
2024-06-14 13:00:06.218,-5.6,-477.82,-61.95,0.23033599999999999,0.521672,-3.059272,3
2024-06-14 13:00:06.223,-37.45,-490.49,-65.59,0.236192,0.5143519999999999,-3.073424,4
2024-06-14 13:00:06.227,-73.85,-495.32,-70.91,0.08930400000000001,0.52704,-3.043168,4
2024-06-14 13:00:06.232,-101.36,-489.37,-80.15,0.025864,0.427488,-3.0285279999999997,4
2024-06-14 13:00:06.237,-115.08,-475.09,-90.09,0.15372,0.193248,-3.1817599999999997,4
2024-06-14 13:00:06.242,-108.92,-471.66,-96.11,-0.038552,-0.054168,-3.338408,4
2024-06-14 13:00:06.247,-94.15,-466.2,-97.86,-0.19763999999999998,-0.11175199999999999,-3.3676880000000002,4
2024-06-14 13:00:06.252,-78.54,-462.91,-98.56,-0.550464,-0.017079999999999998,-3.3227919999999997,4
2024-06-14 13:00:06.256,-67.13,-449.82,-104.65,-0.930616,0.095648,-3.105632,4
2024-06-14 13:00:06.261,-54.11,-438.27,-126.91,-1.18096,-0.154696,-2.737192,4
2024-06-14 13:00:06.266,-41.23,-435.96,-123.41,-1.919792,0.7193120000000001,-2.333616,4
2024-06-14 13:00:06.271,-25.34,-428.4,-123.97,-2.007144,0.25961599999999996,-1.958832,4
2024-06-14 13:00:06.276,-1.12,-432.81,-123.97,-1.950536,0.089792,-1.569408,4
2024-06-14 13:00:06.281,45.36,-458.78,-109.83,-1.7402079999999998,-0.001464,-1.2404959999999998,4
2024-06-14 13:00:06.286,101.22,-516.53,-79.24,-1.2780719999999999,-0.123464,-0.48068,4
2024-06-14 13:00:06.290,138.18,-555.66,-44.87,-1.111176,-0.122488,-0.916952,4
2024-06-14 13:00:06.295,165.41,-496.37,-12.46,-0.997472,0.033184,-0.94672,4
2024-06-14 13:00:06.300,184.73,-414.33,17.64,-1.1794959999999999,0.27669599999999994,-1.089704,4
2024-06-14 13:00:06.305,181.16,-329.14,47.95,-1.452288,0.36844,-1.006744,4
2024-06-14 13:00:06.310,149.1,-217.21,80.22,-1.7758319999999999,0.42212,-0.6095119999999999,4
2024-06-14 13:00:06.315,110.39,-91.28,110.95,-2.12768,0.48312,-0.314272,4
2024-06-14 13:00:06.319,72.66,31.43,133.77,-2.255536,0.484096,-0.23716800000000002,4
2024-06-14 13:00:06.324,40.53,137.9,150.22,-2.110112,0.447496,-0.423584,4
2024-06-14 13:00:06.329,20.93,220.43,164.85,-1.90076,0.385032,-0.672952,4
2024-06-14 13:00:06.334,11.41,279.09,177.03,-1.71044,0.325496,-0.893528,4
2024-06-14 13:00:06.339,8.61,317.66,183.47,-1.5220719999999999,0.30744,-1.022848,4
2024-06-14 13:00:06.344,8.4,342.16,183.47,-1.331264,0.375272,-1.039928,4
2024-06-14 13:00:06.348,13.58,355.32,178.15,-1.179984,0.46311199999999997,-1.0535919999999999,4
2024-06-14 13:00:06.353,17.78,358.75,167.51,-1.101904,0.50752,-1.0614,4
2024-06-14 13:00:06.358,15.54,357.21,151.9,-1.055056,0.520208,-1.0282159999999998,4
2024-06-14 13:00:06.363,9.45,354.2,132.93,-1.006256,0.515328,-0.922808,4
2024-06-14 13:00:06.368,4.2,349.93,112.42,-0.950624,0.496784,-0.7954399999999999,4
2024-06-14 13:00:06.373,2.24,345.59,92.05,-0.88328,0.500688,-0.6944239999999999,4
2024-06-14 13:00:06.377,0.63,341.39,71.19,-0.814472,0.517768,-0.657824,4
2024-06-14 13:00:06.382,-5.39,337.47,48.37,-0.743712,0.530456,-0.68564,4
2024-06-14 13:00:06.387,-17.22,333.48,24.29,-0.6597759999999999,0.5070319999999999,-0.74176,4
2024-06-14 13:00:06.392,-32.97,330.33,0.98,-0.565592,0.45676799999999995,-0.774944,4
2024-06-14 13:00:06.397,-47.95,328.44,-19.81,-0.491904,0.384056,-0.78812,4
2024-06-14 13:00:06.402,-61.04,328.3,-37.52,-0.443104,0.28059999999999996,-0.8017839999999999,4
2024-06-14 13:00:06.407,-71.4,330.12,-52.01,-0.41968,0.18104800000000001,-0.8213039999999999,4
2024-06-14 13:00:06.411,-77.91,333.34,-63.49,-0.41089600000000004,0.081984,-0.852536,4
2024-06-14 13:00:06.416,-80.64,338.17,-71.75,-0.406016,-0.012688,-0.89304,4
2024-06-14 13:00:06.421,-78.61,344.12,-76.93,-0.39039999999999997,-0.08930400000000001,-0.9481839999999999,4
2024-06-14 13:00:06.426,-72.59,350.91,-79.73,-0.377224,-0.149816,-1.01016,4
2024-06-14 13:00:06.431,-63.49,358.33,-80.64,-0.359168,-0.19519999999999998,-1.0833599999999999,4
2024-06-14 13:00:06.436,-52.78,365.33,-79.87,-0.34159999999999996,-0.22106399999999998,-1.164856,4
2024-06-14 13:00:06.440,-41.79,372.19,-78.05,-0.32452,-0.238144,-1.23464,4
2024-06-14 13:00:06.445,-31.5,378.35,-75.25,-0.304512,-0.23424,-1.292712,4
2024-06-14 13:00:06.450,-22.12,383.88,-71.82,-0.28108799999999995,-0.219112,-1.340536,4
2024-06-14 13:00:06.455,-14.98,388.36,-67.76,-0.25132,-0.19910399999999998,-1.379576,4
2024-06-14 13:00:06.460,-10.92,392.0,-63.49,-0.224968,-0.170312,-1.4273999999999998,4
2024-06-14 13:00:06.465,-10.15,394.52,-58.94,-0.194712,-0.14103200000000002,-1.48352,4
2024-06-14 13:00:06.469,-12.74,395.92,-54.46,-0.174704,-0.110776,-1.5372000000000001,4
2024-06-14 13:00:06.474,-17.85,396.34,-49.84,-0.149816,-0.084424,-1.593808,4
2024-06-14 13:00:06.479,-25.13,395.99,-45.01,-0.12834399999999999,-0.06539199999999999,-1.6499279999999998,4
2024-06-14 13:00:06.484,-33.67,395.15,-39.83,-0.11663199999999999,-0.048799999999999996,-1.71044,4
2024-06-14 13:00:06.489,-42.56,393.96,-34.51,-0.106872,-0.04636,-1.772904,4
2024-06-14 13:00:06.494,-51.38,392.91,-28.91,-0.09759999999999999,-0.050263999999999996,-1.841224,4
2024-06-14 13:00:06.499,-59.01,391.93,-23.1,-0.084424,-0.052704,-1.921744,4
2024-06-14 13:00:06.503,-64.61,390.88,-16.8,-0.074176,-0.06490399999999999,-2.016904,4
2024-06-14 13:00:06.508,-68.18,390.11,-9.87,-0.046848,-0.07173600000000001,-2.120848,4
2024-06-14 13:00:06.513,-69.23,388.92,-2.31,-0.015616,-0.076128,-2.243824,4
2024-06-14 13:00:06.518,-67.76,387.52,6.23,0.031232,-0.081008,-2.365824,4
2024-06-14 13:00:06.523,-64.89,385.35,15.68,0.092232,-0.07564,-2.4902640000000003,4
2024-06-14 13:00:06.528,-61.11,382.62,26.18,0.162016,-0.057095999999999994,-2.606408,4
2024-06-14 13:00:06.532,-57.54,379.33,36.89,0.24156,-0.02196,-2.724992,4
2024-06-14 13:00:06.537,-55.37,376.11,47.18,0.330376,0.011712,-2.826496,4
2024-06-14 13:00:06.542,-54.6,372.54,56.49,0.43676,0.04636,-2.90848,4
2024-06-14 13:00:06.547,-55.23,369.18,64.4,0.549,0.084424,-2.982168,4
2024-06-14 13:00:06.552,-57.68,365.05,70.07,0.671976,0.128832,-3.059272,4
2024-06-14 13:00:06.557,-61.32,360.92,73.29,0.81496,0.17519200000000001,-3.1183199999999998,4
2024-06-14 13:00:06.561,-65.38,356.3,74.34,0.979904,0.215696,-3.170048,4
2024-06-14 13:00:06.566,-69.72,350.98,73.99,1.1619279999999998,0.247416,-3.214944,4
2024-06-14 13:00:06.571,-74.97,345.87,72.8,1.3864079999999999,0.285968,-3.236904,4
2024-06-14 13:00:06.576,-80.85,340.13,70.84,1.61772,0.29768,-3.249104,4
2024-06-14 13:00:06.581,-87.78,334.67,68.25,1.8578160000000001,0.30744,-3.226168,4
2024-06-14 13:00:06.586,-96.46,329.77,67.69,2.11548,0.269864,-3.146136,4
2024-06-14 13:00:06.591,-105.98,324.03,70.98,2.3345920000000002,0.250344,-3.0002240000000002,4
2024-06-14 13:00:06.595,-113.33,316.19,86.66,2.4473200000000004,0.40015999999999996,-2.7796480000000003,4
2024-06-14 13:00:06.600,-116.69,307.23,93.73,3.1256399999999998,-0.732,-2.655696,4
2024-06-14 13:00:06.605,-107.94,298.55,87.85,3.019256,-0.08637600000000001,-2.3175120000000002,4
2024-06-14 13:00:06.610,-94.22,283.01,94.22,3.222264,-0.138592,-2.0539919999999996,4
2024-06-14 13:00:06.615,-73.85,265.3,96.74,3.53068,-0.156648,-1.7387439999999998,4
2024-06-14 13:00:06.620,-46.48,247.1,93.45,3.958656,-0.07466400000000001,-1.342,4
2024-06-14 13:00:06.624,-15.75,228.2,82.11,4.44568,0.06783199999999999,-0.9667279999999999,4
2024-06-14 13:00:06.629,-2.17,208.6,58.73,4.9126959999999995,0.18104800000000001,-0.7622559999999999,4
2024-06-14 13:00:06.634,-16.1,187.04,23.52,5.298215999999999,0.27571999999999997,-0.768112,4
2024-06-14 13:00:06.639,-44.87,157.22,-17.29,5.474384,0.297192,-0.930616,4
2024-06-14 13:00:06.644,-72.31,115.43,-56.28,5.356287999999999,0.162016,-1.120936,4
2024-06-14 13:00:06.649,-87.71,61.67,-87.08,4.967352,-0.087352,-1.2385439999999999,4
2024-06-14 13:00:06.653,-84.98,0.56,-107.31,4.482768,-0.32256799999999997,-1.208776,4
2024-06-14 13:00:06.658,-61.81,-62.86,-116.48,3.818112,-0.499224,-1.0589600000000001,4
2024-06-14 13:00:06.663,193.83,-444.08,-27.02,6.85396,-5.230384,-10.390008,4
