time,gyroscope_x,gyroscope_y,gyroscope_z,accelerometer_x,accelerometer_y,accelerometer_z,phase
2024-06-14 09:57:44.639,113.225,-184.135,-10.92,3.982812,-0.03440400000000002,-5.821351999999999,1
2024-06-14 09:57:44.643,80.85,-179.69,-38.465,2.4221880000000002,0.31842,1.361764,1
2024-06-14 09:57:44.648,156.1,-247.52,-59.43,2.885788,0.47043199999999996,-0.8988959999999999,1
2024-06-14 09:57:44.653,240.20499999999998,-303.555,-72.765,0.30646399999999996,-0.24741600000000002,-1.8173119999999998,1
2024-06-14 09:57:44.658,216.86,-243.565,-84.38499999999999,-0.41504399999999997,-0.10980000000000001,-1.386896,1
2024-06-14 09:57:44.663,278.67,-281.82,-69.965,-0.598532,-0.151768,-1.624064,1
2024-06-14 09:57:44.667,221.89999999999998,-266.21000000000004,-67.83,-0.34623599999999993,-0.026596,-1.606252,1
2024-06-14 09:57:44.672,208.635,-266.17499999999995,-55.894999999999996,0.255712,0.025375999999999996,-1.927844,1
2024-06-14 09:57:44.677,174.055,-262.605,-38.64,0.48922,0.233752,-2.091324,1
2024-06-14 09:57:44.682,131.25,-248.53500000000003,-13.02,0.274256,0.36038800000000004,-1.872212,1
2024-06-14 09:57:44.687,75.495,-230.89499999999998,16.625,-0.084912,0.31354000000000004,-1.760948,1
2024-06-14 09:57:44.692,26.985,-208.705,44.205,-0.170068,0.272304,-1.840004,1
2024-06-14 09:57:44.696,8.715,-191.065,60.06,0.033184,-0.061000000000000006,-1.896856,2
2024-06-14 09:57:44.701,4.305,-169.82,57.96,0.13054,-0.355996,-1.9400439999999999,2
2024-06-14 09:57:44.706,5.915,-153.86,45.64,0.12468399999999999,-0.504592,-1.75558,2
2024-06-14 09:57:44.711,-0.07,-137.62,29.645,0.09272,-0.511668,-1.730448,2
2024-06-14 09:57:44.716,2.415,-116.795,13.3,0.150304,-0.566812,-1.539152,2
2024-06-14 09:57:44.720,-0.665,-104.755,-1.68,0.094428,-0.35136,-1.4703439999999999,2
2024-06-14 09:57:44.725,-6.055,-92.015,-8.05,0.013420000000000001,-0.135176,-1.456436,2
2024-06-14 09:57:44.730,-14.77,-78.19,-5.425,-0.0366,0.025864,-1.3549319999999998,2
2024-06-14 09:57:44.735,-20.93,-67.9,1.855,-0.041968,0.08906,-1.342488,2
2024-06-14 09:57:44.740,-25.200000000000003,-59.08,8.855,-0.032208,0.057584,-1.262456,2
2024-06-14 09:57:44.745,-25.27,-51.695,11.620000000000001,-0.025132,-0.030256,-1.215608,2
2024-06-14 09:57:44.749,-23.975,-45.71,9.940000000000001,-0.027327999999999998,-0.095892,-1.164612,2
2024-06-14 09:57:44.754,-22.96,-42.21,6.545,-0.033428,-0.116144,-1.125084,2
2024-06-14 09:57:44.759,-23.625,-38.675,4.025,-0.037332000000000004,-0.084424,-1.1114199999999999,2
2024-06-14 09:57:44.764,-25.549999999999997,-35.665,3.8499999999999996,-0.046848,-0.033184,-1.128012,2
2024-06-14 09:57:44.769,-25.865000000000002,-31.85,5.109999999999999,-0.002440000000000001,0.009271999999999999,-1.1799840000000001,2
2024-06-14 09:57:44.773,-21.490000000000002,-18.865000000000002,5.32,0.06709999999999999,0.063684,-1.21878,2
2024-06-14 09:57:44.778,-17.255,-13.895,5.8100000000000005,0.044407999999999996,0.022691999999999997,-1.2444,2
2024-06-14 09:57:44.783,-12.88,-8.68,5.075,0.029768000000000003,-0.06831999999999999,-1.251232,2
2024-06-14 09:57:44.788,-14.105,-7.945,3.5700000000000003,-0.066856,-0.12126799999999999,-1.115568,2
2024-06-14 09:57:44.793,-15.26,-8.26,0.98,-0.07295600000000001,-0.068076,-1.0784799999999999,2
2024-06-14 09:57:44.798,-15.995000000000001,-9.59,-0.07,-0.055632,-0.038552,-1.0894599999999999,2
2024-06-14 09:57:44.802,-16.345,-9.940000000000001,0.385,-0.066856,-0.014152,-1.089216,2
2024-06-14 09:57:44.807,-15.12,-10.01,0.455,-0.060511999999999996,-0.008784,-1.092388,2
2024-06-14 09:57:44.812,-13.58,-10.85,-0.21000000000000002,-0.065636,-0.023424,-1.076284,2
2024-06-14 09:57:44.817,-12.95,-11.48,-0.98,-0.063928,-0.020252,-1.0784799999999999,2
2024-06-14 09:57:44.822,-12.425,-12.81,-1.26,-0.059292,-0.017079999999999998,-1.081652,2
2024-06-14 09:57:44.827,-12.145,-14.0,-1.5750000000000002,-0.05246,-0.023668,-1.087752,2
2024-06-14 09:57:44.831,-12.46,-14.21,-1.855,-0.058316,-0.031964,-1.0862879999999997,2
2024-06-14 09:57:44.836,-13.719999999999999,-15.75,-2.205,-0.06588,-0.038064,-1.0814080000000001,2
2024-06-14 09:57:44.841,-15.05,-18.2,-2.415,-0.067588,-0.035136,-1.086776,2
2024-06-14 09:57:44.846,-16.17,-20.545,-2.5549999999999997,-0.06344,-0.025132,-1.085556,2
2024-06-14 09:57:44.851,-16.625,-22.33,-2.59,-0.059292,-0.021471999999999998,-1.0918999999999999,2
2024-06-14 09:57:44.855,-16.695,-23.73,-2.52,-0.05367999999999999,-0.018788,-1.0899480000000001,2
2024-06-14 09:57:44.860,-16.345,-24.43,-2.52,-0.045627999999999995,-0.013420000000000001,-1.091656,2
2024-06-14 09:57:44.865,-16.17,-25.655,-2.31,-0.045384,-0.015372,-1.087264,2
2024-06-14 09:57:44.870,-15.575,-25.13,-2.17,-0.044408,-0.011467999999999999,-1.0862880000000001,2
2024-06-14 09:57:44.875,-14.945,-25.165,-2.1,-0.039527999999999994,-0.012931999999999999,-1.0826280000000001,2
2024-06-14 09:57:44.880,-14.0,-25.585,-1.96,-0.040015999999999996,-0.005856,-1.087264,2
2024-06-14 09:57:44.884,-12.985,-25.62,-1.645,-0.033915999999999995,-0.000488,-1.087752,2
2024-06-14 09:57:44.889,-12.145,-25.655,-1.54,-0.034648,-0.002196,-1.087264,2
2024-06-14 09:57:44.894,-11.62,-25.515,-1.435,-0.039284,-0.0007320000000000004,-1.0870199999999999,2
2024-06-14 09:57:44.899,-10.920000000000002,-25.865000000000002,-1.33,-0.035868,0.003416,-1.082872,2
2024-06-14 09:57:44.904,-10.185,-25.2,-1.295,-0.027327999999999998,0.000732,-1.075796,2
2024-06-14 09:57:44.908,-9.52,-24.115000000000002,-1.295,-0.022936,0.0014639999999999998,-1.078724,2
2024-06-14 09:57:44.913,-8.785,-23.415,-1.26,-0.02318,0.007807999999999999,-1.085068,2
2024-06-14 09:57:44.918,-8.26,-22.82,-1.295,-0.023668,0.002196,-1.0814080000000001,2
2024-06-14 09:57:44.923,-7.5600000000000005,-22.12,-1.33,-0.022692,-0.000244,-1.085068,2
2024-06-14 09:57:44.928,-7.21,-21.630000000000003,-1.365,-0.020007999999999998,-0.000732,-1.081896,2
2024-06-14 09:57:44.933,-6.895,-21.0,-1.435,-0.016104,-0.005612,-1.084092,2
2024-06-14 09:57:44.937,-7.175,-21.21,-1.295,-0.016835999999999997,-0.0046359999999999995,-1.085068,2
2024-06-14 09:57:44.942,-7.07,-21.245,-1.26,-0.013176,-0.0046359999999999995,-1.085556,2
2024-06-14 09:57:44.947,-7.245,-21.560000000000002,-1.19,-0.012688,0.000976,-1.087996,2
2024-06-14 09:57:44.952,-7.244999999999999,-22.365000000000002,-1.12,-0.014884,0.0014639999999999998,-1.0853119999999998,2
2024-06-14 09:57:44.957,-7.525,-22.47,-1.19,-0.014884,-0.004148000000000001,-1.0821399999999999,2
2024-06-14 09:57:44.961,-7.875,-23.625,-1.26,-0.01098,0.000732,-1.082384,2
2024-06-14 09:57:44.966,-7.875,-23.52,-1.19,-0.0068319999999999995,-0.001708,-1.084092,2
2024-06-14 09:57:44.971,-7.945,-24.465,-1.085,-0.0075639999999999995,-0.00024400000000000008,-1.088972,2
2024-06-14 09:57:44.974,-7.5600000000000005,-25.725,-1.19,-0.0053679999999999995,0.00732,-1.092876,2
2024-06-14 09:57:44.979,-6.965,-25.759999999999998,-1.225,-0.0046359999999999995,0.00976,-1.0931199999999999,2
2024-06-14 09:57:44.984,-26.529999999999998,92.575,-7.5249999999999995,-0.0014639999999999998,-0.047091999999999995,-1.0655479999999997,2
2024-06-14 09:57:44.988,2.1,-62.440000000000005,2.3800000000000003,0.005612,0.009515999999999998,-1.1162999999999998,2
2024-06-14 09:57:44.993,-7.035,-30.029999999999998,-2.1350000000000002,0.005124,0.014395999999999999,-1.0857999999999999,2
2024-06-14 09:57:44.998,-3.2199999999999998,-28.91,-3.045,0.007319999999999999,0.016347999999999998,-1.081164,2
2024-06-14 09:57:45.003,-4.725,-27.860000000000003,-1.225,0.008539999999999999,0.022448000000000003,-1.081164,2
2024-06-14 09:57:45.008,-2.3449999999999998,-27.3,0.17500000000000002,0.0061,0.020007999999999998,-1.0796999999999999,2
2024-06-14 09:57:45.013,-2.135,-26.565,-1.365,0.007075999999999999,0.029523999999999998,-1.077504,2
2024-06-14 09:57:45.017,1.8199999999999998,-15.575000000000001,-3.3249999999999997,0.011224,0.028059999999999998,-1.0814080000000001,2
2024-06-14 09:57:45.022,0.665,-25.97,-2.835,0.013908,0.01708,-1.086776,2
2024-06-14 09:57:45.027,1.12,-26.18,-1.505,0.01586,0.021228,-1.085556,2
2024-06-14 09:57:45.032,2.2750000000000004,-25.9,-1.715,0.019276,0.016835999999999997,-1.0796999999999999,2
2024-06-14 09:57:45.037,2.6950000000000003,-25.795,-3.01,0.023668,0.01464,-1.0735999999999999,2
2024-06-14 09:57:45.042,3.465,-24.22,-3.1849999999999996,0.026108,0.015127999999999999,-1.070428,2
2024-06-14 09:57:45.046,4.025,-23.869999999999997,-2.415,0.027084,0.006832,-1.069208,2
2024-06-14 09:57:45.051,4.305,-23.485,-2.03,0.027572,0.005856,-1.0716480000000002,2
2024-06-14 09:57:45.056,4.9,-23.625,-2.45,0.033428,0.0,-1.077992,2
2024-06-14 09:57:45.061,5.109999999999999,-22.96,-2.765,0.029036,0.002196,-1.085312,2
2024-06-14 09:57:45.066,5.53,-23.695,-2.38,0.027572,0.013908,-1.0821399999999999,2
2024-06-14 09:57:45.071,5.845000000000001,-24.009999999999998,-1.9249999999999998,0.028791999999999998,0.012931999999999999,-1.0821399999999999,2
2024-06-14 09:57:45.075,6.055,-24.15,-2.38,0.027816,0.013176,-1.085556,2
2024-06-14 09:57:45.080,5.949999999999999,-24.605,-3.1500000000000004,0.037576,0.010248,-1.08824,2
2024-06-14 09:57:45.085,5.32,-24.36,-3.43,0.037088,0.017324,-1.093364,2
2024-06-14 09:57:45.090,5.145,-26.425,-3.115,0.040015999999999996,0.012932,-1.092144,2
2024-06-14 09:57:45.095,4.935,-25.235,-3.71,0.042943999999999996,0.061,-1.0884839999999998,2
2024-06-14 09:57:45.100,1.54,-25.34,-6.615,0.047336,0.073932,-1.086044,2
2024-06-14 09:57:45.105,-0.5599999999999999,-26.005,-8.61,0.047824,0.040504,-1.079212,2
2024-06-14 09:57:45.109,-2.555,-27.16,-9.59,0.049044,0.024155999999999997,-1.0967799999999999,2
2024-06-14 09:57:45.114,-4.48,-28.595,-10.149999999999999,0.055632,-0.000976,-1.108492,2
2024-06-14 09:57:45.119,-6.300000000000001,-30.240000000000002,-10.675,0.060756,-0.005123999999999999,-1.1145919999999998,2
2024-06-14 09:57:45.124,-10.115,-31.64,-11.2,0.06246399999999999,-0.012688,-1.1289879999999999,2
2024-06-14 09:57:45.129,-14.07,-32.655,-11.024999999999999,0.06612399999999999,-0.041724,-1.150948,2
2024-06-14 09:57:45.134,-19.67,-33.565,-10.395,0.060756,-0.033672,-1.17242,2
2024-06-14 09:57:45.138,-26.53,-34.230000000000004,-10.605,0.056119999999999996,-0.028791999999999998,-1.1733959999999999,2
2024-06-14 09:57:45.143,-27.23,-35.945,-9.8,0.06417199999999999,-0.086864,-1.210728,2
2024-06-14 09:57:45.148,-15.75,-40.985,-4.305,0.068076,-0.1586,-1.2734359999999998,2
2024-06-14 09:57:45.153,-16.134999999999998,-44.765,-2.065,0.053924,0.016347999999999998,-1.2053600000000002,2
2024-06-14 09:57:45.158,-21.7,-46.760000000000005,-2.625,0.062708,-0.04489599999999999,-1.218048,2
2024-06-14 09:57:45.163,-23.555,-50.120000000000005,-1.19,0.06636799999999998,-0.04489599999999999,-1.2099959999999998,2
2024-06-14 09:57:45.167,-27.51,-53.34,-1.0150000000000001,0.06588,-0.011467999999999999,-1.216828,3
2024-06-14 09:57:45.172,-30.240000000000002,-56.245,-0.875,0.06905199999999999,-0.004392,-1.224148,3
2024-06-14 09:57:45.177,-32.97,-59.709999999999994,-0.875,0.071492,0.02074,-1.240984,3
2024-06-14 09:57:45.182,-36.155,-62.685,-1.5750000000000002,0.08296,0.032452,-1.246596,3
2024-06-14 09:57:45.187,-38.185,-65.975,-2.0300000000000002,0.088816,0.024399999999999998,-1.25782,3
2024-06-14 09:57:45.192,-41.019999999999996,-70.035,-2.45,0.08369199999999999,0.022204,-1.280268,3
2024-06-14 09:57:45.196,-43.82,-74.58500000000001,-2.555,0.087108,0.0075639999999999995,-1.3036919999999999,3
2024-06-14 09:57:45.201,-45.010000000000005,-79.065,-2.24,0.086132,0.022203999999999998,-1.3329719999999998,3
2024-06-14 09:57:45.206,-45.675,-83.685,-2.3449999999999998,0.087108,0.048068,-1.330776,3
2024-06-14 09:57:45.211,-46.97,-87.955,-3.15,0.088328,0.049288,-1.352736,3
2024-06-14 09:57:45.216,-46.305,-93.38,-3.08,0.08759600000000001,0.020984000000000003,-1.3768919999999998,3
2024-06-14 09:57:45.221,-43.504999999999995,-98.315,-2.66,0.084912,0.030500000000000003,-1.3905560000000001,3
2024-06-14 09:57:45.225,-42.525000000000006,-104.58,-2.8,0.081008,0.05368,-1.408124,3
2024-06-14 09:57:45.230,-39.760000000000005,-110.88,-2.87,0.086864,0.013176,-1.42496,3
2024-06-14 09:57:45.235,-32.41,-118.195,-1.575,0.07783599999999999,-0.0019520000000000002,-1.418616,3
2024-06-14 09:57:45.240,-23.94,-125.86,0.035,0.08052,0.07783599999999999,-1.446188,3
2024-06-14 09:57:45.245,-24.884999999999998,-131.495,-1.365,0.08784,0.114924,-1.451312,3
2024-06-14 09:57:45.250,-22.225,-137.725,-2.17,0.08857200000000001,0.08979200000000001,-1.455948,3
2024-06-14 09:57:45.254,-19.075000000000003,-146.825,-2.5549999999999997,0.09296399999999999,0.10126,-1.471808,3
2024-06-14 09:57:45.259,-18.69,-154.76999999999998,-3.5700000000000003,0.10467599999999999,0.11712,-1.49084,3
2024-06-14 09:57:45.264,-19.67,-162.96,-4.970000000000001,0.10003999999999999,0.133468,-1.501332,3
2024-06-14 09:57:45.269,-20.755,-171.22,-7.0,0.08759600000000001,0.13273600000000002,-1.4945,3
2024-06-14 09:57:45.274,-20.439999999999998,-180.635,-8.47,0.09223200000000001,0.130052,-1.5118239999999998,3
2024-06-14 09:57:45.279,-22.295,-190.47,-9.975,0.093696,0.081252,-1.584536,3
2024-06-14 09:57:45.283,-22.05,-205.765,-10.045,0.092476,-0.01586,-1.638216,3
2024-06-14 09:57:45.288,-21.384999999999998,-219.66,-8.33,0.11102,-0.046604,-1.735572,3
2024-06-14 09:57:45.293,-21.595,-237.685,-7.07,0.118584,0.035379999999999995,-1.6772559999999999,3
2024-06-14 09:57:45.298,-31.43,-257.355,-8.504999999999999,0.101748,0.14762,-1.781932,3
2024-06-14 09:57:45.303,-33.565,-272.78999999999996,-11.48,0.107116,0.196664,-1.8478119999999998,3
2024-06-14 09:57:45.308,-33.81,-289.83500000000004,-14.280000000000001,0.064416,0.176412,-1.81902,3
2024-06-14 09:57:45.313,-33.004999999999995,-308.105,-16.134999999999998,0.043188,0.168604,-1.872944,3
2024-06-14 09:57:45.317,-32.55,-327.67,-18.165,0.029036,0.06417199999999999,-1.941508,3
2024-06-14 09:57:45.322,-22.994999999999997,-342.475,-16.31,0.062464000000000006,-0.111996,-2.070584,3
2024-06-14 09:57:45.327,-11.76,-361.865,-12.46,0.09394,-0.238388,-2.01788,3
2024-06-14 09:57:45.332,1.54,-382.9,-4.2,0.143716,-0.39625599999999994,-2.202344,3
2024-06-14 09:57:45.337,18.41,-393.71500000000003,5.67,0.18958799999999998,-0.226188,-2.1928279999999996,3
2024-06-14 09:57:45.342,21.84,-416.605,10.92,0.244244,-0.154452,-2.28018,3
2024-06-14 09:57:45.346,24.605,-424.62,16.415,0.22399199999999997,-0.198372,-2.550776,3
2024-06-14 09:57:45.351,27.93,-432.635,25.305,0.27571999999999997,-0.17177599999999998,-2.561268,3
2024-06-14 09:57:45.356,33.355000000000004,-432.70500000000004,28.98,0.32012799999999997,-0.13298,-2.609336,3
2024-06-14 09:57:45.361,40.705,-449.47,36.995000000000005,0.335988,-0.12932,-2.691808,3
2024-06-14 09:57:45.366,41.019999999999996,-448.56,41.09,0.232532,0.045383999999999994,-2.8038039999999995,3
2024-06-14 09:57:45.371,34.44,-453.53,40.495000000000005,0.16738399999999998,-0.020007999999999998,-2.843088,3
2024-06-14 09:57:45.375,46.375,-446.03999999999996,46.97,0.07905599999999999,-0.081984,-2.885544,3
2024-06-14 09:57:45.380,47.565,-438.655,51.765,-0.067832,0.066856,-2.9187279999999998,3
2024-06-14 09:57:45.385,47.985,-437.53499999999997,52.71,-0.21032800000000001,0.216428,-2.801608,3
2024-06-14 09:57:45.390,38.709999999999994,-434.805,53.129999999999995,-0.35087199999999996,0.27718400000000004,-2.775988,3
2024-06-14 09:57:45.395,26.04,-429.38,48.58,-0.506544,0.311344,-2.707912,4
2024-06-14 09:57:45.400,15.015,-412.29999999999995,44.485,-0.894016,0.255712,-2.622268,4
2024-06-14 09:57:45.404,6.23,-378.105,36.225,-1.031144,0.2379,-2.0827839999999997,4
2024-06-14 09:57:45.409,-5.145,-353.22,24.675,-1.277584,0.30475599999999997,-1.4752239999999999,4
2024-06-14 09:57:45.414,-1.8900000000000001,-344.4,31.045,-2.406816,0.569008,-1.01382,4
2024-06-14 09:57:45.419,21.28,-324.65999999999997,52.01,-1.0858,0.6883239999999999,-0.26839999999999997,4
2024-06-14 09:57:45.424,37.415000000000006,-270.025,67.27,-0.94062,0.358924,-2.51076,4
2024-06-14 09:57:45.429,34.86,-152.39000000000001,83.44,-1.6531000000000002,-0.000732,-2.630076,4
2024-06-14 09:57:45.433,33.88,-62.86,95.235,-1.7199559999999998,0.19934799999999997,-1.5228039999999998,4
2024-06-14 09:57:45.438,49.455,7.21,99.64500000000001,-1.6250399999999998,0.325984,-1.3183319999999998,4
2024-06-14 09:57:45.443,67.9,50.295,97.965,-1.258064,0.313052,-1.521096,4
2024-06-14 09:57:45.448,70.07,71.015,87.92,-1.003572,0.353556,-1.628944,4
2024-06-14 09:57:45.453,59.29,77.525,71.26,-0.848632,0.426512,-1.4454559999999999,4
2024-06-14 09:57:45.458,44.519999999999996,74.41,51.345,-0.727364,0.46482,-1.2214639999999999,4
2024-06-14 09:57:45.462,25.479999999999997,69.755,29.505,-0.632204,0.455304,-1.0750639999999998,4
2024-06-14 09:57:45.467,7.56,67.025,8.05,-0.571692,0.387716,-0.9899079999999999,4
2024-06-14 09:57:45.472,-5.145,67.62,-10.08,-0.553148,0.277916,-0.941108,4
2024-06-14 09:57:45.477,-11.83,72.205,-24.57,-0.559004,0.155428,-0.9037759999999999,4
2024-06-14 09:57:45.482,-12.145,81.75999999999999,-34.754999999999995,-0.577548,0.045871999999999996,-0.880352,4
2024-06-14 09:57:45.487,-6.055,94.91999999999999,-41.230000000000004,-0.597556,-0.054168,-0.8708359999999999,4
2024-06-14 09:57:45.491,5.109999999999999,111.475,-44.065,-0.62464,-0.12688,-0.868396,4
2024-06-14 09:57:45.496,19.915,130.41,-43.995000000000005,-0.645624,-0.17397200000000002,-0.8752279999999999,4
2024-06-14 09:57:45.501,36.05,150.60500000000002,-42.175,-0.670512,-0.17568,-0.890112,4
2024-06-14 09:57:45.506,50.995000000000005,171.465,-39.620000000000005,-0.686616,-0.13883600000000001,-0.888404,4
2024-06-14 09:57:45.511,63.875,191.555,-36.89,-0.681492,-0.09638,-0.885964,4
2024-06-14 09:57:45.516,73.92,210.07,-34.79,-0.6714879999999999,-0.042455999999999994,-0.888404,4
2024-06-14 09:57:45.522,80.88499999999999,226.03,-33.215,-0.642452,0.015615999999999998,-0.8915759999999999,4
2024-06-14 09:57:45.526,84.84,239.54000000000002,-32.62,-0.608292,0.055632,-0.884988,4
2024-06-14 09:57:45.531,87.185,250.635,-32.269999999999996,-0.5763280000000001,0.08247199999999999,-0.880352,4
2024-06-14 09:57:45.536,89.14500000000001,259.90999999999997,-31.885,-0.5475359999999999,0.08662,-0.878644,4
2024-06-14 09:57:45.541,91.66499999999999,268.135,-31.08,-0.52338,0.087108,-0.882792,4
2024-06-14 09:57:45.546,94.71000000000001,275.765,-29.75,-0.493124,0.09101200000000001,-0.887672,4
2024-06-14 09:57:45.550,98.66499999999999,282.765,-27.93,-0.469456,0.08613200000000001,-0.899872,4
2024-06-14 09:57:45.555,103.25,289.65999999999997,-25.585,-0.44212799999999997,0.08613200000000001,-0.92598,4
2024-06-14 09:57:45.560,108.255,296.485,-22.61,-0.41699600000000003,0.083936,-0.955992,4
2024-06-14 09:57:45.565,113.53999999999999,303.45,-19.18,-0.394792,0.096624,-0.98454,4
2024-06-14 09:57:45.570,118.825,310.135,-15.89,-0.374296,0.11053199999999999,-1.0116239999999999,4
2024-06-14 09:57:45.575,122.64,316.155,-13.09,-0.341356,0.13298,-1.051396,4
2024-06-14 09:57:45.579,124.705,321.44,-10.57,-0.31256399999999995,0.165188,-1.0933639999999998,4
2024-06-14 09:57:45.584,124.88,325.42999999999995,-8.715,-0.28425999999999996,0.19397999999999999,-1.125328,4
2024-06-14 09:57:45.589,123.16499999999999,328.545,-7.279999999999999,-0.258884,0.225944,-1.153632,4
2024-06-14 09:57:45.594,119.69999999999999,330.925,-6.615,-0.238632,0.254492,-1.1709559999999999,4
2024-06-14 09:57:45.599,114.24,332.22,-6.545,-0.213744,0.279136,-1.18706,4
2024-06-14 09:57:45.604,106.82,332.255,-7.0,-0.18202400000000002,0.31134399999999995,-1.2126800000000002,4
2024-06-14 09:57:45.608,97.72,331.24,-7.665,-0.157868,0.335012,-1.2551359999999998,4
2024-06-14 09:57:45.613,86.835,329.7,-8.995000000000001,-0.131272,0.36356,-1.312476,4
2024-06-14 09:57:45.618,75.53,328.44,-10.149999999999999,-0.1281,0.36941599999999997,-1.382016,4
2024-06-14 09:57:45.623,63.80499999999999,328.405,-10.955,-0.136152,0.36453599999999997,-1.4256919999999997,4
2024-06-14 09:57:45.628,53.095,330.29499999999996,-11.445,-0.146644,0.358192,-1.4671720000000001,4
2024-06-14 09:57:45.633,43.4,333.655,-11.76,-0.149084,0.34477199999999997,-1.532076,4
2024-06-14 09:57:45.637,35.07,337.89,-11.83,-0.14151999999999998,0.325252,-1.6079599999999998,4
2024-06-14 09:57:45.642,27.79,342.44,-11.585,-0.121268,0.30646399999999996,-1.678232,4
2024-06-14 09:57:45.647,20.895,346.675,-11.06,-0.090768,0.28816400000000003,-1.7453319999999999,4
2024-06-14 09:57:45.652,13.86,350.14,-10.745000000000001,-0.043676,0.28181999999999996,-1.8148719999999998,4
2024-06-14 09:57:45.657,5.949999999999999,352.16999999999996,-10.219999999999999,0.023912,0.27181599999999995,-1.8902679999999998,4
2024-06-14 09:57:45.662,-1.96,351.89,-9.344999999999999,0.10711599999999999,0.261812,-1.9527320000000001,4
2024-06-14 09:57:45.666,-10.5,349.09000000000003,-8.469999999999999,0.21032800000000001,0.25498,-2.01056,4
2024-06-14 09:57:45.671,-19.775,343.875,-7.49,0.31964000000000004,0.247172,-2.080588,4
2024-06-14 09:57:45.676,-29.4,337.015,-6.79,0.42602399999999996,0.231068,-2.1520799999999998,4
2024-06-14 09:57:45.681,-38.465,329.66499999999996,-6.4399999999999995,0.505812,0.191784,-2.221864,4
2024-06-14 09:57:45.686,-45.64,323.4,-6.055,0.57584,0.15005999999999997,-2.276032,4
2024-06-14 09:57:45.690,-50.085,319.445,-5.5649999999999995,0.6139039999999999,0.103212,-2.3270279999999994,4
2024-06-14 09:57:45.695,-51.24,317.87,-4.48,0.6600199999999999,0.057339999999999995,-2.391932,4
2024-06-14 09:57:45.700,-49.945,319.16499999999996,-2.975,0.689544,0.015372,-2.4705,4
2024-06-14 09:57:45.705,-47.495,323.61,-1.435,0.709552,-0.011224000000000001,-2.52906,4
2024-06-14 09:57:45.710,-44.555,330.75,-0.105,0.7427360000000001,-0.028547999999999997,-2.570296,4
2024-06-14 09:57:45.715,-41.79,339.53499999999997,0.665,0.8078839999999999,-0.033916,-2.5986,4
2024-06-14 09:57:45.719,-40.495000000000005,348.07500000000005,0.035,0.909144,-0.016348,-2.610068,4
2024-06-14 09:57:45.724,-41.72,353.885,-2.38,1.037,-0.0021959999999999996,-2.609336,4
2024-06-14 09:57:45.729,-45.465,355.985,-6.720000000000001,1.1833999999999998,0.023912,-2.6000639999999997,4
2024-06-14 09:57:45.734,-49.805,353.85,-12.495000000000001,1.329068,0.022936,-2.57786,4
2024-06-14 09:57:45.739,-52.675,348.07500000000005,-18.795,1.4461879999999998,-0.021716,-2.542968,4
2024-06-14 09:57:45.744,-52.465,340.095,-24.395000000000003,1.5506199999999999,-0.081984,-2.512468,4
2024-06-14 09:57:45.748,-46.41,330.68,-28.7,1.6360199999999998,-0.150548,-2.476356,4
2024-06-14 09:57:45.753,-34.37,320.53,-31.535000000000004,1.713368,-0.194224,-2.4192599999999995,4
2024-06-14 09:57:45.758,-19.285,310.415,-33.6,1.800476,-0.188856,-2.350208,4
2024-06-14 09:57:45.763,-4.444999999999999,300.09000000000003,-35.84,1.890024,-0.123952,-2.2814,4
2024-06-14 09:57:45.768,5.88,289.625,-39.025,1.981524,-0.034648,-2.2167399999999997,4
2024-06-14 09:57:45.773,8.05,279.51,-43.365,2.085468,0.058804,-2.160864,4
2024-06-14 09:57:45.777,3.325,269.01,-48.79,2.200636,0.13078399999999998,-2.0676559999999995,4
2024-06-14 09:57:45.782,-4.13,256.865,-54.53,2.329956,0.16836,-1.966396,4
2024-06-14 09:57:45.787,-11.165,241.465,-59.745000000000005,2.4766,0.195444,-1.8853879999999998,4
2024-06-14 09:57:45.792,-19.95,223.195,-64.64500000000001,2.642032,0.20373999999999998,-1.813896,4
2024-06-14 09:57:45.797,-30.87,202.57999999999998,-69.37,2.818932,0.188368,-1.720932,4
2024-06-14 09:57:45.802,-43.120000000000005,180.425,-73.325,3.00608,0.134688,-1.62992,4
2024-06-14 09:57:45.806,-55.055,157.255,-75.81,3.169072,0.047336,-1.537932,4
2024-06-14 09:57:45.811,-67.095,124.25,-56.91,3.047072,0.511424,-1.3903119999999998,4
2024-06-14 09:57:45.816,-65.87,111.3,-71.61,3.3545119999999997,-0.11468000000000002,-1.259772,4
2024-06-14 09:57:45.821,-62.3,81.75999999999999,-65.765,3.518236,-0.517524,-1.31638,4
2024-06-14 09:57:45.826,-50.47,53.795,-52.955,3.482124,-0.672708,-1.25782,4
2024-06-14 09:57:45.831,-32.795,25.865,-38.08,3.3593919999999997,-0.761524,-1.215608,4
2024-06-14 09:57:45.835,-7.385000000000001,-0.875,-23.065,3.150772,-0.756156,-1.186572,4
2024-06-14 09:57:45.840,20.93,-24.884999999999998,-10.08,2.9089679999999998,-0.650992,-1.181692,4
2024-06-14 09:57:45.845,47.81,-45.64,-0.35000000000000003,2.63886,-0.470188,-1.225368,4
2024-06-14 09:57:45.850,64.82,-61.95,3.99,2.373144,-0.23936400000000002,-1.284172,4
2024-06-14 09:57:45.855,61.355000000000004,-109.305,-1.2600000000000002,3.890824,0.426512,-6.127084,4
