time,gyroscope_x,gyroscope_y,gyroscope_z,accelerometer_x,accelerometer_y,accelerometer_z,phase
2024-06-14 11:20:44.495,114.555,-306.81,41.23,4.589884,-1.735084,-3.1915199999999997,1
2024-06-14 11:20:44.504,228.375,-413.175,59.010000000000005,2.008852,-0.24546400000000002,0.879864,1
2024-06-14 11:20:44.514,149.66,-392.03499999999997,71.05000000000001,-0.12712399999999996,-0.308416,-2.288476,1
2024-06-14 11:20:44.524,-5.25,-380.555,98.245,-0.371368,-0.120536,-2.241628,1
2024-06-14 11:20:44.533,-40.32,-342.615,95.83,0.47604399999999997,-0.5570520000000001,-2.432924,1
2024-06-14 11:20:44.543,-44.099999999999994,-312.69,51.415000000000006,0.301828,-0.7395639999999999,-2.9309279999999998,2
2024-06-14 11:20:44.553,-28.91,-234.57,-3.01,0.21911199999999997,-0.46652799999999994,-2.386564,2
2024-06-14 11:20:44.562,-10.15,-130.58499999999998,-20.405,0.040748,0.12688,-1.6552959999999999,2
2024-06-14 11:20:44.572,-20.229999999999997,-64.47,4.9,-0.012688,0.184952,-1.2297600000000002,2
2024-06-14 11:20:44.582,-21.840000000000003,-27.545,10.395,-0.073444,0.016103999999999997,-1.108736,2
2024-06-14 11:20:44.591,-12.425,-11.83,2.975,0.019764000000000004,-0.025376,-1.0909239999999998,2
2024-06-14 11:20:44.601,-8.19,-9.695,-0.49,0.030255999999999998,0.077592,-1.0777480000000002,2
2024-06-14 11:20:44.611,-4.515,-5.74,3.115,-0.051728,0.032696,-1.022116,2
2024-06-14 11:20:44.620,-1.47,-3.8499999999999996,-1.4,-0.084668,0.029768000000000003,-1.02358,2
2024-06-14 11:20:44.630,-0.14,-3.5,-3.43,-0.051239999999999994,-0.010003999999999999,-1.05286,2
2024-06-14 11:20:44.640,-1.575,-4.305,-2.24,-0.096136,0.024888,-1.0133320000000001,2
2024-06-14 11:20:44.649,-1.26,-6.265000000000001,-2.59,-0.0793,0.012688,-1.0152839999999999,2
2024-06-14 11:20:44.659,-1.155,-9.344999999999999,-2.695,-0.088328,0.024399999999999998,-1.016016,2
2024-06-14 11:20:44.669,-1.6099999999999999,-14.49,-3.08,-0.089792,0.012444,-1.020896,2
2024-06-14 11:20:44.678,-2.31,-20.02,-3.745,-0.09223200000000001,0.0122,-1.026996,2
2024-06-14 11:20:44.688,-2.45,-25.025,-4.13,-0.083204,0.017079999999999998,-1.025776,2
2024-06-14 11:20:44.698,-2.45,-27.265,-4.13,-0.071492,0.012688,-1.0204080000000002,2
2024-06-14 11:20:44.707,-2.38,-29.155,-3.71,-0.06978399999999998,0.013663999999999999,-1.026752,2
2024-06-14 11:20:44.717,0.315,-31.5,-3.01,-0.06709999999999999,0.017568,-1.025776,2
2024-06-14 11:20:44.727,0.56,-30.38,-2.625,-0.055144,0.016592000000000003,-1.0226039999999998,2
2024-06-14 11:20:44.736,0.91,-35.28,-2.0300000000000002,-0.049776,0.016835999999999997,-1.0187,2
2024-06-14 11:20:44.746,1.4,-39.025,-2.0999999999999996,-0.048556,0.022448000000000003,-1.0248,2
2024-06-14 11:20:44.756,0.7000000000000001,-56.735,-1.9249999999999998,-0.03904,0.022204,-1.025288,2
2024-06-14 11:20:44.765,2.625,-38.955,-2.17,-0.027572,0.024887999999999997,-1.01626,2
2024-06-14 11:20:44.775,4.234999999999999,-31.115,-1.225,-0.019276,0.023424,-1.0145520000000001,2
2024-06-14 11:20:44.785,1.785,-37.59,-1.54,-0.016104,0.023668,-1.0133320000000001,2
2024-06-14 11:20:44.794,0.735,-30.45,-1.505,-0.00976,0.024156,-1.0067439999999999,2
2024-06-14 11:20:44.804,1.4,-30.625,-1.855,-0.0060999999999999995,0.022692,-1.01382,2
2024-06-14 11:20:44.814,1.225,-34.37,-2.3449999999999998,-0.000732,0.026352,-1.024068,2
2024-06-14 11:20:44.823,3.465,-32.375,-2.065,0.010492,0.010736,-1.030168,2
2024-06-14 11:20:44.833,4.4799999999999995,-32.515,-2.38,0.009028000000000001,0.008052,-1.02358,2
2024-06-14 11:20:44.843,6.6499999999999995,-30.555,-1.6800000000000002,0.015372,0.020984,-1.037976,2
2024-06-14 11:20:44.852,17.185,-27.299999999999997,-1.19,0.020984000000000003,0.022935999999999998,-1.02968,2
2024-06-14 11:20:44.862,10.815,-31.08,-1.225,0.02074,0.020496,-1.03822,2
2024-06-14 11:20:44.872,8.82,-27.79,-1.6099999999999999,0.025131999999999998,0.012199999999999999,-1.04554,2
2024-06-14 11:20:44.881,6.4399999999999995,-27.895,-2.1,0.023912,0.020496,-1.081896,2
2024-06-14 11:20:44.891,5.215,-32.480000000000004,-2.975,0.02562,0.014395999999999999,-1.089216,2
2024-06-14 11:20:44.901,3.1849999999999996,-36.260000000000005,-3.045,0.035136,-0.0068319999999999995,-1.099952,2
2024-06-14 11:20:44.910,-0.1399999999999999,-35.665000000000006,-2.45,0.043188000000000004,-0.012688,-1.126792,2
2024-06-14 11:20:44.920,-7.699999999999999,-40.25,-1.8199999999999998,0.052216,-0.02074,-1.138504,2
2024-06-14 11:20:44.930,-14.700000000000001,-43.68,-0.49,0.05978,-0.0366,-1.179008,2
2024-06-14 11:20:44.939,-23.975,-49.49,-0.07,0.052704,-0.031476,-1.250988,2
2024-06-14 11:20:44.949,-30.799999999999997,-59.605000000000004,0.8049999999999999,0.050752000000000005,-0.0183,-1.323944,2
2024-06-14 11:20:44.959,-35.21,-75.11,1.05,0.044164,-0.005612,-1.37738,2
2024-06-14 11:20:44.968,-39.2,-93.065,1.085,0.040748000000000006,-0.01464,-1.438624,2
2024-06-14 11:20:44.978,-42.56,-111.22999999999999,2.3449999999999998,0.048799999999999996,-0.03904,-1.411784,2
2024-06-14 11:20:44.988,-51.065,-132.57999999999998,3.8150000000000004,0.042455999999999994,-0.049532,-1.483276,2
2024-06-14 11:20:44.997,-60.795,-158.235,4.62,0.02806,-0.012444,-1.6055199999999998,3
2024-06-14 11:20:45.007,-64.715,-189.45499999999998,3.955,0.0009759999999999994,0.056364,-1.674816,3
2024-06-14 11:20:45.017,-64.225,-227.99,0.9099999999999999,-0.0305,0.104432,-1.799988,3
2024-06-14 11:20:45.026,-64.155,-271.425,-3.4650000000000003,-0.057828,0.117364,-1.899052,3
2024-06-14 11:20:45.036,-64.295,-318.71,-7.455,-0.08588799999999999,0.14713199999999999,-2.074976,3
2024-06-14 11:20:45.046,-62.335,-372.015,-13.684999999999999,-0.140544,0.22277200000000003,-2.17892,3
2024-06-14 11:20:45.055,-57.68,-431.935,-21.0,-0.210572,0.261568,-2.389736,3
2024-06-14 11:20:45.065,-55.790000000000006,-487.48,-25.795,-0.07076,0.25205200000000005,-2.7203559999999998,3
2024-06-14 11:20:45.075,-76.65,-535.955,-23.939999999999998,0.108824,-0.041968000000000005,-3.1985959999999998,3
2024-06-14 11:20:45.084,-106.08500000000001,-569.31,-12.775,0.384788,-0.062708,-3.647068,3
2024-06-14 11:20:45.094,-132.685,-578.655,-14.385,0.21301199999999998,0.008052000000000004,-3.495788,3
2024-06-14 11:20:45.104,-104.055,-590.94,-17.29,0.0732,-0.08247199999999999,-3.176392,3
2024-06-14 11:20:45.113,-67.97,-581.0699999999999,-20.79,0.098332,0.21789199999999997,-2.842112,3
2024-06-14 11:20:45.123,-86.17,-549.0450000000001,-18.445,-0.448228,0.650992,-3.2595959999999997,3
2024-06-14 11:20:45.133,-154.455,-488.215,-41.265,-1.543056,0.6871039999999999,-3.3183999999999996,4
2024-06-14 11:20:45.142,-237.825,-412.15999999999997,-89.705,-2.866512,0.39137599999999995,-2.4273119999999997,4
2024-06-14 11:20:45.152,-258.58000000000004,-369.6,-174.44,-2.370704,0.501176,-0.3213480000000001,4
2024-06-14 11:20:45.164,-159.705,-275.83500000000004,-207.79500000000002,-1.416908,0.377712,-0.588284,4
2024-06-14 11:20:45.173,-122.04499999999999,-8.084999999999997,-205.38,-2.0049479999999997,-0.11150800000000001,-0.7100399999999999,4
2024-06-14 11:20:45.183,-36.33,177.83499999999998,-150.07999999999998,-1.7492359999999998,-0.610244,-0.9603839999999999,4
2024-06-14 11:20:45.192,69.93,271.355,-86.87,-1.356152,-0.44944799999999996,-1.3766479999999999,4
2024-06-14 11:20:45.202,139.01999999999998,303.275,-45.325,-1.098732,-0.22155199999999997,-1.227808,4
2024-06-14 11:20:45.212,159.91500000000002,312.69,-23.555,-0.9237839999999999,-0.003172000000000001,-0.9767319999999999,4
2024-06-14 11:20:45.221,142.8,315.525,-16.205000000000002,-0.737124,0.18178,-0.853512,4
2024-06-14 11:20:45.231,104.895,319.79499999999996,-14.735,-0.604144,0.2379,-0.812276,4
2024-06-14 11:20:45.241,68.285,327.74,-15.085,-0.5472919999999999,0.19398,-0.7966599999999999,4
2024-06-14 11:20:45.250,48.65,340.235,-14.91,-0.532896,0.090036,-0.8235,4
2024-06-14 11:20:45.260,48.754999999999995,355.18,-12.915,-0.5224040000000001,0.0060999999999999995,-0.90158,4
2024-06-14 11:20:45.270,57.47,371.17499999999995,-10.36,-0.5246,-0.011712,-0.98454,4
2024-06-14 11:20:45.279,61.95,387.24,-9.59,-0.5106919999999999,0.035868,-1.05652,4
2024-06-14 11:20:45.289,55.93,401.135,-12.32,-0.47824,0.10516400000000001,-1.1289879999999999,4
2024-06-14 11:20:45.299,40.215,410.97,-18.025,-0.41479999999999995,0.17397200000000002,-1.242692,4
2024-06-14 11:20:45.308,22.854999999999997,417.48,-25.2,-0.386008,0.156404,-1.301008,4
2024-06-14 11:20:45.318,12.565000000000001,427.14,-29.435000000000002,-0.35624,0.114924,-1.375916,4
2024-06-14 11:20:45.328,7.35,435.365,-29.96,-0.271572,0.10613999999999998,-1.50914,4
2024-06-14 11:20:45.337,0.24499999999999988,433.96500000000003,-28.805,-0.151524,0.155184,-1.6533440000000001,4
2024-06-14 11:20:45.347,-12.075,422.835,-28.770000000000003,-0.010736,0.26352,-1.789496,4
2024-06-14 11:20:45.356,-31.185000000000002,406.245,-30.765,0.140788,0.337208,-1.905884,4
2024-06-14 11:20:45.366,-51.835,388.815,-31.395,0.24814799999999998,0.361852,-2.0557,4
2024-06-14 11:20:45.376,-65.205,369.495,-29.75,0.32134799999999997,0.349408,-2.257732,4
2024-06-14 11:20:45.385,-74.445,349.09000000000003,-27.335,0.374052,0.43602799999999997,-2.521496,4
2024-06-14 11:20:45.395,-92.92500000000001,344.05,-22.855,0.462624,0.5041039999999999,-2.783308,4
2024-06-14 11:20:45.405,-110.145,363.96500000000003,-10.43,0.587796,0.449692,-2.92434,4
2024-06-14 11:20:45.414,-110.775,385.735,13.334999999999999,0.8320399999999999,0.339648,-3.042192,4
2024-06-14 11:20:45.424,-103.67,392.735,45.185,1.098732,0.287188,-3.058052,4
2024-06-14 11:20:45.434,-110.775,394.135,74.095,1.52744,0.32012799999999997,-2.9972959999999995,4
2024-06-14 11:20:45.443,-131.845,392.90999999999997,91.84,2.058384,0.212524,-2.9321479999999998,4
2024-06-14 11:20:45.453,-120.82,372.33,106.4,2.584448,-0.01098,-2.7530520000000003,4
2024-06-14 11:20:45.463,-76.755,333.025,106.36500000000001,3.0358479999999997,-0.020008,-2.412428,4
2024-06-14 11:20:45.472,-30.555,285.03999999999996,88.83000000000001,3.600952,0.22155199999999997,-2.047892,4
2024-06-14 11:20:45.482,-13.3,234.14999999999998,50.504999999999995,4.436895999999999,0.5260640000000001,-1.794376,4
2024-06-14 11:20:45.492,-30.939999999999998,171.675,4.515000000000001,5.236484,0.484096,-1.543788,4
2024-06-14 11:20:45.501,-39.76,75.18,-20.475,5.415092,-0.16591999999999998,-1.394216,4
2024-06-14 11:20:45.511,-12.775,-37.485,-27.16,4.6787,-0.443592,-1.3012519999999999,4
2024-06-14 11:20:45.520,21.98,-123.47999999999999,-14.525,3.80274,-0.49166,-1.411784,4
2024-06-14 11:20:45.530,44.275000000000006,-160.16,-2.59,2.9843640000000002,-0.196176,-1.519632,4
