time,gyroscope_x,gyroscope_y,gyroscope_z,accelerometer_x,accelerometer_y,accelerometer_z,phase
2024-06-14 11:03:58.549,-65.66,-309.68,-14.35,6.009232,1.977864,-3.332064,1
2024-06-14 11:03:58.554,-127.61,-297.57,-66.43,0.039528,-0.386984,-0.9516,1
2024-06-14 11:03:58.559,-93.52,-394.52,-48.65,-0.770064,0.575352,-1.4483840000000001,1
2024-06-14 11:03:58.564,-134.96,-269.22,-24.01,-0.11419199999999999,0.218136,-2.036912,1
2024-06-14 11:03:58.569,-187.32,-283.92,-24.29,-0.647088,-0.026352,-1.042368,1
2024-06-14 11:03:58.573,-151.76,-290.01,-24.01,-0.445056,0.20251999999999998,-1.621136,1
2024-06-14 11:03:58.578,-140.49,-292.6,-25.34,-0.163968,0.156648,-1.282464,1
2024-06-14 11:03:58.583,-125.65,-296.59,-24.92,0.206424,0.245952,-1.499624,1
2024-06-14 11:03:58.588,-110.32,-285.32,-26.46,0.39967199999999997,0.27913599999999994,-1.5942960000000002,1
2024-06-14 11:03:58.593,-74.27,-272.02,-25.83,0.455304,0.508008,-1.77876,1
2024-06-14 11:03:58.598,-36.61,-258.58,-20.51,0.44212799999999997,0.428952,-1.531344,1
2024-06-14 11:03:58.602,-24.01,-250.11,-14.84,0.1464,0.145424,-1.563064,1
2024-06-14 11:03:58.607,-14.56,-224.0,-11.69,0.060512,0.333792,-1.850984,1
2024-06-14 11:03:58.612,-12.74,-208.04,-6.58,0.06734399999999999,0.232288,-1.742648,1
2024-06-14 11:03:58.617,-21.42,-186.41,-1.26,0.15372,0.110776,-2.1203600000000002,1
2024-06-14 11:03:58.622,-16.03,-184.8,0.0,0.267424,0.0732,-1.894904,1
2024-06-14 11:03:58.627,-21.42,-127.19,0.21,0.25668799999999997,-0.056119999999999996,-1.751432,1
2024-06-14 11:03:58.631,-14.77,-109.55,-3.92,0.187392,0.005856,-1.687504,1
2024-06-14 11:03:58.636,-13.37,-80.85,-10.64,0.22838399999999998,-0.098576,-1.618696,1
2024-06-14 11:03:58.641,-14.49,-65.87,-15.33,0.093208,0.040504,-1.482056,1
2024-06-14 11:03:58.646,-10.92,-45.15,-15.89,0.275232,0.19178399999999998,-1.533296,1
2024-06-14 11:03:58.651,-6.16,-28.49,-7.56,-0.09711199999999999,0.21716,-1.2048720000000002,1
2024-06-14 11:03:58.656,-8.05,-28.28,-3.08,-0.046848,0.228872,-1.15168,1
2024-06-14 11:03:58.660,-3.5,-28.84,0.56,0.031232,0.177144,-1.059448,1
2024-06-14 11:03:58.665,-0.98,-29.12,0.07,0.105408,-0.0732,-0.997472,1
2024-06-14 11:03:58.670,2.17,-27.58,-1.33,-0.101504,0.150792,-1.089704,1
2024-06-14 11:03:58.675,2.38,-28.91,-3.01,-0.110776,0.177632,-1.13216,2
2024-06-14 11:03:58.680,0.28,-25.62,-3.15,0.039528,0.032208,-1.081408,2
2024-06-14 11:03:58.685,-3.43,-23.17,-3.08,0.06539199999999999,0.11663199999999999,-1.1458240000000002,2
2024-06-14 11:03:58.689,-4.55,-21.84,-2.94,0.10394400000000001,0.045872,-1.096536,2
2024-06-14 11:03:58.694,-4.27,-21.14,-1.82,0.06734399999999999,0.049775999999999994,-1.089704,2
2024-06-14 11:03:58.699,-1.19,-21.7,-1.96,0.023424,0.044896,-1.0555439999999998,2
2024-06-14 11:03:58.704,1.4,-22.96,-0.63,0.027327999999999998,0.08052,-1.058472,2
2024-06-14 11:03:58.709,3.64,-24.78,-0.35,0.013663999999999999,0.06783199999999999,-1.051152,2
2024-06-14 11:03:58.714,5.74,-27.16,-0.28,0.022448,0.061,-1.057008,2
2024-06-14 11:03:58.718,7.0,-29.75,-0.84,0.010736,0.131272,-1.077992,2
2024-06-14 11:03:58.723,8.75,-32.83,-0.63,0.016104,0.057583999999999996,-1.0692080000000002,2
2024-06-14 11:03:58.728,10.64,-37.17,-1.12,0.006344,0.11858400000000001,-1.0735999999999999,2
2024-06-14 11:03:58.733,13.37,-40.39,-0.77,0.021472,0.07564,-1.06628,2
2024-06-14 11:03:58.738,15.96,-42.14,-1.19,0.07222400000000001,0.048312,-1.035536,2
2024-06-14 11:03:58.743,17.71,-44.24,-1.33,0.038552,0.059048,-1.073112,2
2024-06-14 11:03:58.747,20.09,-42.84,-1.33,0.08295999999999999,-0.00244,-1.0287039999999998,2
2024-06-14 11:03:58.752,21.21,-45.71,-1.47,0.029768,0.07564,-1.059936,2
2024-06-14 11:03:58.757,22.68,-43.89,-1.4,0.061488,0.052216,-1.02236,2
2024-06-14 11:03:58.762,22.89,-43.96,-1.47,0.033671999999999994,0.058072,-1.0492000000000001,2
2024-06-14 11:03:58.767,23.8,-49.07,-1.33,0.048799999999999996,0.057583999999999996,-1.016016,2
2024-06-14 11:03:58.772,22.89,-44.45,-1.54,-0.055144,0.088328,-1.070184,2
2024-06-14 11:03:58.776,23.38,-44.73,-1.4,0.044408,0.045384,-1.011624,2
2024-06-14 11:03:58.781,21.0,-43.05,-1.12,-0.088328,0.093696,-1.09068,2
2024-06-14 11:03:58.786,21.35,-42.91,-1.4,0.06588,0.046848,-1.010648,2
2024-06-14 11:03:58.791,19.95,-43.33,-1.19,0.11467999999999999,0.015616,-1.040904,2
2024-06-14 11:03:58.796,19.11,-42.63,-1.54,0.055144,0.018544,-1.033096,2
2024-06-14 11:03:58.801,17.01,-39.97,-1.19,0.115656,0.007808,-0.9437920000000001,2
2024-06-14 11:03:58.805,13.93,-32.27,-1.19,-0.028304,0.02928,-1.0857999999999999,2
2024-06-14 11:03:58.810,13.44,-38.5,-0.98,0.062952,0.045384,-1.006744,2
2024-06-14 11:03:58.815,9.24,-34.09,-0.14,0.232288,-0.053192,-0.909632,2
2024-06-14 11:03:58.820,7.07,-31.43,-0.35,-0.050752,0.052216,-1.011136,2
2024-06-14 11:03:58.825,5.67,-37.87,0.0,0.048312,0.048312,-0.969656,2
2024-06-14 11:03:58.830,2.87,-33.11,0.42,0.160552,-0.000976,-0.989664,2
2024-06-14 11:03:58.834,1.19,-38.92,0.07,0.09711199999999999,0.025864,-0.9921039999999999,2
2024-06-14 11:03:58.839,0.0,-34.86,0.91,0.04392,0.042944,-1.0360239999999998,2
2024-06-14 11:03:58.844,-1.33,-35.07,0.42,0.103456,0.041968,-0.979904,2
2024-06-14 11:03:58.849,-7.0,-100.45,0.63,0.105408,0.022448,-0.957456,2
2024-06-14 11:03:58.854,-0.98,-49.7,-0.84,0.120048,-0.017079999999999998,-0.885232,2
2024-06-14 11:03:58.859,-12.39,-47.46,-1.05,0.11712,-0.005856,-0.9628239999999999,2
2024-06-14 11:03:58.863,-4.97,-42.56,0.28,0.10736,0.029768,-0.9618479999999999,2
2024-06-14 11:03:58.868,-8.68,-34.72,1.75,0.187392,-0.00488,-0.865712,2
2024-06-14 11:03:58.873,-10.29,-34.23,1.89,0.121024,0.006344,-0.9481839999999999,2
2024-06-14 11:03:58.878,-6.09,-31.01,1.05,0.120536,0.033671999999999994,-0.96624,2
2024-06-14 11:03:58.883,-9.73,-29.26,0.28,0.120536,0.021472,-0.969656,2
2024-06-14 11:03:58.888,-7.7,-26.6,0.63,0.11956,0.025376,-0.979416,2
2024-06-14 11:03:58.892,-7.49,-25.2,1.54,0.122976,0.02684,-0.982832,2
2024-06-14 11:03:58.897,-8.82,-23.31,2.31,0.12688,0.03172,-0.989664,2
2024-06-14 11:03:58.902,-6.79,-22.12,2.1,0.130296,0.0366,-0.9901519999999999,2
2024-06-14 11:03:58.907,-7.7,-21.14,1.54,0.12688,0.040015999999999996,-0.9950319999999999,2
2024-06-14 11:03:58.912,-6.72,-19.88,1.05,0.12932,0.042455999999999994,-0.9964959999999999,2
2024-06-14 11:03:58.918,-5.46,-18.48,1.12,0.13224799999999998,0.042944,-1.001376,2
2024-06-14 11:03:58.922,-5.18,-17.85,1.47,0.136152,0.045872,-1.002352,2
2024-06-14 11:03:58.927,-3.92,-17.22,1.61,0.136152,0.044408,-1.01016,2
2024-06-14 11:03:58.932,-2.59,-12.95,1.12,0.138592,0.047335999999999996,-1.018456,2
2024-06-14 11:03:58.937,-2.45,-18.62,0.77,0.13322399999999998,0.041479999999999996,-1.020896,2
2024-06-14 11:03:58.942,-1.75,-19.18,0.42,0.13322399999999998,0.038064,-1.021384,2
2024-06-14 11:03:58.946,-2.38,-20.09,0.63,0.13712799999999997,0.037088,-1.0262639999999998,2
2024-06-14 11:03:58.951,-1.75,-20.86,0.91,0.13907999999999998,0.038552,-1.0238239999999998,2
2024-06-14 11:03:58.956,-2.24,-21.77,1.12,0.135176,0.033671999999999994,-1.021872,2
2024-06-14 11:03:58.961,-2.66,-22.05,0.98,0.13907999999999998,0.0068319999999999995,-1.006744,2
2024-06-14 11:03:58.966,-2.8,-24.22,0.98,0.147376,0.033671999999999994,-1.020408,2
2024-06-14 11:03:58.971,-3.99,-24.85,0.84,0.14396,0.022936,-1.024312,2
2024-06-14 11:03:58.975,-5.04,-26.25,1.05,0.144936,0.037088,-1.0282159999999998,2
2024-06-14 11:03:58.980,-5.74,-26.74,1.47,0.12932,-0.017079999999999998,-1.006256,2
2024-06-14 11:03:58.985,-6.09,-28.21,1.61,0.159088,0.02928,-1.015528,2
2024-06-14 11:03:58.990,-5.25,-28.77,1.61,0.157624,0.051728,-1.020896,2
2024-06-14 11:03:58.995,-4.69,-28.98,1.19,0.131272,0.092232,-1.030168,2
2024-06-14 11:03:59.000,-3.71,-28.77,0.98,0.152744,-0.015616,-1.013576,2
2024-06-14 11:03:59.004,-3.64,-28.63,0.63,0.165432,0.027816,-1.029192,2
2024-06-14 11:03:59.009,-3.71,-28.21,0.42,0.15616,-0.048312,-0.987712,2
2024-06-14 11:03:59.014,-2.66,-28.7,0.14,0.179096,0.13663999999999998,-1.0755519999999998,2
2024-06-14 11:03:59.019,0.07,-31.01,0.14,0.166896,0.061975999999999996,-1.047248,2
2024-06-14 11:03:59.024,-0.49,-32.76,-1.4,0.171776,0.041479999999999996,-1.074088,2
2024-06-14 11:03:59.029,1.61,-35.07,-1.61,0.17275200000000002,0.09516,-1.1067839999999998,2
2024-06-14 11:03:59.033,0.63,-40.25,-2.59,0.17372800000000002,0.059048,-1.104344,2
2024-06-14 11:03:59.038,9.45,-43.75,-2.66,0.17079999999999998,0.07222400000000001,-1.151192,2
2024-06-14 11:03:59.043,31.71,-43.47,-0.7,0.167872,0.055632,-1.255624,2
2024-06-14 11:03:59.048,21.21,-49.0,-2.17,0.174216,0.060512,-1.221952,2
2024-06-14 11:03:59.053,24.36,-54.53,-2.87,0.19178399999999998,0.035624,-1.262944,2
2024-06-14 11:03:59.058,34.37,-61.04,-3.15,0.16738399999999998,0.088816,-1.2322,2
2024-06-14 11:03:59.062,35.42,-66.08,-3.78,0.169336,0.036112000000000005,-1.2322,2
2024-06-14 11:03:59.067,41.37,-67.41,-3.99,0.227408,0.063928,-1.282952,2
2024-06-14 11:03:59.072,41.79,-63.49,-4.62,0.179096,0.041968,-1.3390719999999998,2
2024-06-14 11:03:59.077,42.56,-62.79,-4.69,0.225456,0.04392,-0.8061759999999999,2
2024-06-14 11:03:59.082,45.01,-74.76,-5.6,0.20007999999999998,0.05856,-1.189256,2
2024-06-14 11:03:59.086,45.57,-85.4,-6.44,0.193736,0.066368,-1.086288,2
2024-06-14 11:03:59.091,48.02,-96.39,-6.79,0.187392,0.054168,-1.303448,2
2024-06-14 11:03:59.096,46.62,-103.6,-7.0,0.216184,0.025376,-1.3327280000000001,2
2024-06-14 11:03:59.101,44.38,-110.53,-7.63,0.20496,0.039528,-1.3493199999999999,2
2024-06-14 11:03:59.106,47.18,-116.41,-8.12,0.211792,0.014152,-1.4674159999999998,2
2024-06-14 11:03:59.111,47.39,-123.76,-8.33,0.203496,-0.001464,-1.4396,2
2024-06-14 11:03:59.115,45.43,-133.0,-8.4,0.209352,-0.002928,-1.4288640000000001,2
2024-06-14 11:03:59.120,44.45,-144.41,-8.4,0.208864,-0.01464,-1.4488720000000002,2
2024-06-14 11:03:59.125,44.03,-150.92,-8.05,0.206424,-0.020984,-1.422032,2
2024-06-14 11:03:59.130,42.63,-157.99,-7.7,0.210816,-0.013176,-1.44692,2
2024-06-14 11:03:59.135,42.56,-167.58,-7.42,0.20105599999999998,-0.037088,-1.472296,2
2024-06-14 11:03:59.140,40.67,-174.86,-6.37,0.21862399999999999,-0.059048,-1.3961679999999999,2
2024-06-14 11:03:59.144,41.3,-188.37,-5.04,0.21228,-0.06978399999999998,-1.41276,2
2024-06-14 11:03:59.149,39.97,-198.52,-3.64,0.216184,-0.088816,-1.4376479999999998,2
2024-06-14 11:03:59.154,40.39,-207.76,-2.38,0.22691999999999998,-0.066368,-1.518168,2
2024-06-14 11:03:59.159,41.16,-216.93,-1.05,0.23716800000000002,-0.076616,-1.6040560000000001,2
2024-06-14 11:03:59.164,40.67,-228.27,0.56,0.23424,-0.116144,-1.708,2
2024-06-14 11:03:59.169,37.8,-240.59,3.01,0.23912,-0.121512,-1.78608,2
2024-06-14 11:03:59.173,35.84,-254.45,6.02,0.23277599999999998,-0.205936,-1.870504,2
2024-06-14 11:03:59.178,31.5,-268.66,10.57,0.190808,-0.305,-1.815848,2
2024-06-14 11:03:59.183,29.89,-285.25,16.87,0.168848,-0.3782,-1.75924,2
2024-06-14 11:03:59.188,25.55,-303.52,23.66,0.155672,-0.423096,-1.8426879999999999,2
2024-06-14 11:03:59.193,24.5,-322.63,30.52,0.190808,-0.491904,-1.86172,2
2024-06-14 11:03:59.198,24.57,-342.93,38.71,0.20251999999999998,-0.571936,-1.99348,2
2024-06-14 11:03:59.202,28.21,-365.12,46.62,0.199592,-0.530944,-2.064728,2
2024-06-14 11:03:59.207,33.46,-387.52,52.78,0.310368,-0.492392,-2.150616,2
2024-06-14 11:03:59.212,42.21,-406.35,57.82,0.371856,-0.470432,-2.49124,2
2024-06-14 11:03:59.217,53.2,-421.61,61.53,0.501664,-0.424072,-2.714744,2
2024-06-14 11:03:59.222,65.52,-436.24,62.72,0.476288,-0.369416,-2.839672,2
2024-06-14 11:03:59.227,71.4,-441.21,63.84,0.483608,-0.29182400000000003,-2.810392,2
2024-06-14 11:03:59.231,75.25,-448.28,66.15,0.490928,-0.213256,-2.712792,2
2024-06-14 11:03:59.236,70.77,-451.64,68.6,0.43432,-0.186416,-2.604944,2
2024-06-14 11:03:59.241,69.72,-451.5,69.58,0.46067199999999997,-0.049775999999999994,-2.584448,2
2024-06-14 11:03:59.246,72.94,-448.63,68.25,0.43432,-0.05856,-2.590304,2
2024-06-14 11:03:59.251,77.56,-442.61,67.9,0.245952,-0.128832,-2.592744,2
2024-06-14 11:03:59.255,77.7,-437.15,75.6,0.213744,-0.220088,-2.565904,2
2024-06-14 11:03:59.260,56.7,-434.56,82.25,0.172264,-0.191296,-2.6571599999999997,2
2024-06-14 11:03:59.265,28.77,-438.13,85.82,0.023912,-0.155184,-2.53272,2
2024-06-14 11:03:59.270,5.32,-437.71,87.64,-0.1098,-0.26693599999999995,-2.302872,2
2024-06-14 11:03:59.275,-13.58,-426.16,88.34,-0.35624,-0.482144,-1.8378079999999999,2
2024-06-14 11:03:59.280,-28.42,-405.44,94.08,-0.645624,-0.792512,-1.50304,2
2024-06-14 11:03:59.284,-39.2,-377.3,102.83,-0.88816,-1.140944,-1.440088,2
2024-06-14 11:03:59.289,-25.2,-337.05,118.09,-1.2483039999999999,-1.308816,-1.41032,2
2024-06-14 11:03:59.294,8.68,-291.27,144.62,-1.0535919999999999,-1.316624,-1.2307359999999998,2
2024-06-14 11:03:59.299,29.33,-245.07,165.76,-0.945256,-1.040904,-1.404464,2
2024-06-14 11:03:59.304,52.78,-200.83,182.84,-1.012112,-0.74176,-1.327848,3
2024-06-14 11:03:59.309,73.64,-155.12,199.08,-1.1228879999999999,-0.5626639999999999,-1.1448479999999999,3
2024-06-14 11:03:59.313,78.96,-117.95,201.11,-0.862784,-0.435296,-1.052616,3
2024-06-14 11:03:59.318,72.03,-76.79,179.55,-0.930128,-0.344528,-0.976976,3
2024-06-14 11:03:59.323,67.06,-11.34,155.26,-1.291248,-0.328912,-0.945256,3
2024-06-14 11:03:59.328,38.36,40.18,136.78,-1.4352079999999998,-0.08052,-0.776408,3
2024-06-14 11:03:59.333,1.54,85.68,120.4,-1.371768,0.14054399999999997,-0.8413120000000001,3
2024-06-14 11:03:59.338,-20.3,118.72,107.8,-1.109224,0.074176,-0.87108,3
2024-06-14 11:03:59.342,-45.85,137.9,96.32,-0.8730319999999999,-0.038064,-0.81496,3
2024-06-14 11:03:59.347,-68.81,147.21,85.47,-0.760792,-0.091744,-0.774944,4
2024-06-14 11:03:59.352,-85.82,154.63,75.11,-0.730048,-0.108824,-0.7129679999999999,4
2024-06-14 11:03:59.357,-95.97,159.46,66.22,-0.7178479999999999,-0.157136,-0.6417200000000001,4
2024-06-14 11:03:59.362,-97.16,165.13,59.5,-0.685152,-0.22838399999999998,-0.584624,4
2024-06-14 11:03:59.367,-91.14,170.24,54.67,-0.626592,-0.305488,-0.526064,4
2024-06-14 11:03:59.371,-80.22,174.37,51.1,-0.574864,-0.365024,-0.49288,4
2024-06-14 11:03:59.376,-65.66,179.2,47.88,-0.545584,-0.39820799999999995,-0.46652799999999994,4
2024-06-14 11:03:59.381,-47.53,185.78,44.87,-0.52704,-0.40015999999999996,-0.46164799999999995,4
2024-06-14 11:03:59.386,-27.79,194.6,41.58,-0.50996,-0.387472,-0.462136,4
2024-06-14 11:03:59.391,-9.59,203.91,37.31,-0.481168,-0.340624,-0.47189600000000004,4
2024-06-14 11:03:59.395,6.02,215.39,31.92,-0.45871999999999996,-0.28548,-0.488,4
2024-06-14 11:03:59.400,17.57,226.59,24.78,-0.43968799999999997,-0.22106399999999998,-0.516792,4
2024-06-14 11:03:59.405,25.76,239.33,16.17,-0.426512,-0.156648,-0.55388,4
2024-06-14 11:03:59.410,30.17,251.02,6.23,-0.40992,-0.098576,-0.591456,4
2024-06-14 11:03:59.415,31.5,263.62,-4.9,-0.39967199999999997,-0.052704,-0.633424,4
2024-06-14 11:03:59.420,30.38,274.89,-16.38,-0.385032,-0.018056000000000003,-0.672952,4
2024-06-14 11:03:59.424,28.0,285.95,-28.0,-0.37332,0.000488,-0.707112,4
2024-06-14 11:03:59.429,25.83,299.25,-39.2,-0.364048,-0.0068319999999999995,-0.750544,4
2024-06-14 11:03:59.434,23.8,310.66,-49.56,-0.344528,-0.01952,-0.783728,4
2024-06-14 11:03:59.439,22.75,322.7,-58.52,-0.316712,-0.045872,-0.82228,4
2024-06-14 11:03:59.444,22.89,334.04,-66.29,-0.29036,-0.059536,-0.8744959999999999,4
2024-06-14 11:03:59.449,23.87,343.0,-72.66,-0.26108,-0.08295999999999999,-0.9311039999999999,4
2024-06-14 11:03:59.453,25.9,352.24,-77.49,-0.22447999999999999,-0.10052799999999999,-0.9852719999999999,4
2024-06-14 11:03:59.458,27.58,358.47,-80.57,-0.183,-0.11223999999999999,-1.042856,4
2024-06-14 11:03:59.463,29.89,365.05,-81.48,-0.13810399999999998,-0.13468799999999997,-1.0984880000000001,4
2024-06-14 11:03:59.468,29.12,364.0,-79.66,-0.103456,-0.177144,-1.112152,4
2024-06-14 11:03:59.473,37.1,371.21,-76.37,-0.048799999999999996,-0.19178399999999998,-1.208288,4
2024-06-14 11:03:59.478,44.1,373.94,-70.14,-0.005856,-0.197152,-1.267824,4
2024-06-14 11:03:59.482,51.94,375.62,-61.95,0.044896,-0.20105599999999998,-1.3132080000000002,4
2024-06-14 11:03:59.487,59.99,374.36,-52.36,0.09467199999999999,-0.190808,-1.369816,4
2024-06-14 11:03:59.492,68.88,375.27,-41.93,0.154696,-0.157624,-1.436672,4
2024-06-14 11:03:59.497,77.28,373.17,-31.64,0.199592,-0.101016,-1.517192,4
2024-06-14 11:03:59.502,84.7,372.33,-22.33,0.23912,-0.033671999999999994,-1.584048,4
2024-06-14 11:03:59.507,88.83,370.02,-14.77,0.27571999999999997,0.04636,-1.647488,4
2024-06-14 11:03:59.511,90.93,368.06,-9.31,0.298168,0.125904,-1.7094639999999999,4
2024-06-14 11:03:59.516,90.16,365.75,-5.74,0.32452,0.20496,-1.76656,4
2024-06-14 11:03:59.521,86.94,362.25,-4.2,0.35038400000000003,0.26839999999999997,-1.823656,4
2024-06-14 11:03:59.526,82.6,359.73,-4.13,0.35965600000000003,0.309392,-1.8768479999999998,4
2024-06-14 11:03:59.531,78.05,358.05,-5.11,0.370392,0.338672,-1.934432,4
2024-06-14 11:03:59.536,74.13,356.51,-7.14,0.38600799999999996,0.358192,-1.9881119999999999,4
2024-06-14 11:03:59.540,70.91,357.7,-10.15,0.406016,0.364048,-2.044232,4
2024-06-14 11:03:59.545,68.04,360.29,-13.65,0.433344,0.361608,-2.09108,4
2024-06-14 11:03:59.550,65.73,363.02,-17.57,0.459696,0.34745600000000004,-2.1471999999999998,4
2024-06-14 11:03:59.555,63.91,365.33,-21.42,0.493368,0.32500799999999996,-2.210152,4
2024-06-14 11:03:59.560,62.09,367.22,-25.2,0.5377759999999999,0.28938400000000003,-2.2814,4
2024-06-14 11:03:59.564,60.27,367.85,-28.91,0.59292,0.25717599999999996,-2.340448,4
2024-06-14 11:03:59.569,57.61,366.87,-32.97,0.6548959999999999,0.214232,-2.394616,4
2024-06-14 11:03:59.574,53.76,364.98,-36.82,0.7032079999999999,0.154696,-2.45952,4
2024-06-14 11:03:59.579,49.14,362.11,-40.18,0.7637200000000001,0.06978399999999998,-2.5249119999999996,4
2024-06-14 11:03:59.584,45.36,359.17,-42.28,0.833504,-0.028791999999999998,-2.5986,4
2024-06-14 11:03:59.589,43.75,356.86,-42.7,0.9086559999999999,-0.133712,-2.653744,4
2024-06-14 11:03:59.593,44.94,355.67,-41.65,0.9989359999999999,-0.220088,-2.68644,4
2024-06-14 11:03:59.598,48.23,353.64,-39.69,1.10044,-0.29133600000000004,-2.71084,4
2024-06-14 11:03:59.603,52.43,351.54,-37.38,1.2229279999999998,-0.335256,-2.7181599999999997,4
2024-06-14 11:03:59.608,57.26,349.02,-35.63,1.344928,-0.33915999999999996,-2.711816,4
2024-06-14 11:03:59.613,63.14,345.1,-35.35,1.480104,-0.31476,-2.694248,4
2024-06-14 11:03:59.618,70.42,339.57,-37.38,1.628456,-0.251808,-2.653744,4
2024-06-14 11:03:59.622,78.19,331.17,-43.05,1.787056,-0.16494399999999998,-2.630808,4
2024-06-14 11:03:59.627,85.54,320.74,-52.01,1.969568,-0.042455999999999994,-2.5439439999999998,4
2024-06-14 11:03:59.632,94.64,305.62,-64.12,2.124752,0.160552,-2.4429279999999998,4
2024-06-14 11:03:59.637,103.95,289.87,-80.15,2.27408,0.393816,-2.299456,4
2024-06-14 11:03:59.642,110.18,273.07,-100.31,2.4356079999999998,0.644648,-2.143784,4
2024-06-14 11:03:59.647,106.33,252.07,-124.74,2.5634639999999997,0.83692,-1.979816,4
2024-06-14 11:03:59.651,81.9,226.52,-150.36,2.701568,0.8300879999999999,-1.7880319999999998,4
2024-06-14 11:03:59.656,44.03,199.36,-170.1,2.9724079999999997,0.669048,-1.636752,4
2024-06-14 11:03:59.661,11.27,175.42,-178.78,3.2495920000000003,0.4148,-1.4771759999999998,4
2024-06-14 11:03:59.666,-16.45,150.01,-174.51,3.558496,0.040504,-1.15656,4
2024-06-14 11:03:59.671,-27.23,125.16,-155.96,3.9059519999999996,-0.382104,-0.86132,4
2024-06-14 11:03:59.676,-8.82,101.78,-124.53,4.204608,-0.664168,-0.759328,4
2024-06-14 11:03:59.680,29.54,74.83,-86.31,4.428599999999999,-0.691984,-0.756888,4
2024-06-14 11:03:59.685,67.62,42.21,-49.14,4.492528,-0.43188,-0.763232,4
2024-06-14 11:03:59.690,91.35,4.76,-19.88,4.378824,0.010736,-0.80764,4
2024-06-14 11:03:59.695,92.75,-35.91,-1.54,4.129943999999999,0.471408,-0.882792,4
2024-06-14 11:03:59.700,72.03,-73.64,5.74,3.7932239999999995,0.854976,-0.970144,4
2024-06-14 11:03:59.704,35.21,-106.89,3.43,3.443328,1.0692080000000002,-1.062376,4
2024-06-14 11:03:59.709,-9.94,-136.78,-5.46,3.0905039999999997,1.062376,-1.1458240000000002,4
2024-06-14 11:03:59.714,-267.89,-493.99,-23.03,3.53068,-0.046848,-8.746912,0
