time,gyroscope_x,gyroscope_y,gyroscope_z,accelerometer_x,accelerometer_y,accelerometer_z,phase
2024-06-14 08:11:44.585,147.10500000000002,-253.89,8.785,2.986072,0.007564000000000001,-2.410476,1
2024-06-14 08:11:44.590,164.95499999999998,-255.14999999999998,-9.31,-0.40186799999999995,0.53924,0.201788,1
2024-06-14 08:11:44.595,233.485,-236.495,-16.17,0.27523200000000003,0.22033200000000003,-0.8737639999999999,1
2024-06-14 08:11:44.600,270.55,-216.01999999999998,-8.82,-0.6082919999999999,0.128588,-1.4586320000000002,1
2024-06-14 08:11:44.604,205.17000000000002,-222.565,-0.8400000000000001,-0.9020680000000001,0.25742,-1.300764,1
2024-06-14 08:11:44.609,174.93,-223.09,13.93,-0.5119119999999999,0.193492,-1.593076,1
2024-06-14 08:11:44.614,151.27,-234.01,26.775,-0.21301199999999998,0.006099999999999994,-1.877824,1
2024-06-14 08:11:44.619,114.24000000000001,-236.425,37.835,0.225456,-0.15054800000000002,-1.89344,1
2024-06-14 08:11:44.624,80.255,-248.95499999999998,46.095,0.265228,-0.283528,-1.98982,1
2024-06-14 08:11:44.628,43.295,-245.35,50.785,0.18056,-0.383568,-2.006656,1
2024-06-14 08:11:44.633,27.509999999999998,-231.315,47.81,0.085644,-0.518988,-1.98494,1
2024-06-14 08:11:44.638,34.474999999999994,-211.19,32.97,-0.005611999999999999,-0.562908,-2.211372,1
2024-06-14 08:11:44.643,40.985,-178.43,9.24,0.046116000000000004,-0.47092,-2.105232,1
2024-06-14 08:11:44.648,32.900000000000006,-150.71,-9.870000000000001,0.027083999999999997,-0.372588,-2.060092,1
2024-06-14 08:11:44.653,18.935000000000002,-125.16,-18.83,0.055632,-0.242536,-1.93858,1
2024-06-14 08:11:44.657,2.87,-110.14500000000001,-18.725,0.08296,-0.07319999999999999,-1.743136,1
2024-06-14 08:11:44.662,-7.279999999999999,-99.33,-12.075,0.073932,0.05856,-1.622356,1
2024-06-14 08:11:44.667,-11.129999999999999,-91.07,-5.215,0.035868,0.090036,-1.4935239999999999,1
2024-06-14 08:11:44.672,-15.68,-74.025,-2.835,0.01586,0.044163999999999995,-1.52012,1
2024-06-14 08:11:44.677,-9.135,-58.730000000000004,-2.9749999999999996,0.020252,0.115412,-1.403976,1
2024-06-14 08:11:44.681,-4.0600000000000005,-49.91,-1.96,-0.004392,0.154696,-1.2139,2
2024-06-14 08:11:44.686,3.1149999999999998,-44.625,-1.295,0.05734,0.11541199999999999,-1.21268,2
2024-06-14 08:11:44.691,8.05,-39.48,0.63,0.039284,0.13639600000000002,-1.137528,2
2024-06-14 08:11:44.696,13.055,-35.735,2.275,0.014395999999999999,0.107848,-1.096292,2
2024-06-14 08:11:44.701,16.869999999999997,-31.255,3.7800000000000002,0.004147999999999999,0.09345200000000001,-1.071892,2
2024-06-14 08:11:44.706,19.845,-23.03,3.71,0.036844,0.058316,-1.097024,2
2024-06-14 08:11:44.710,22.575,-16.555,3.115,0.024156,0.046604,-1.0918999999999999,2
2024-06-14 08:11:44.715,24.85,-14.629999999999999,2.59,0.037332000000000004,0.01708,-1.1033680000000001,2
2024-06-14 08:11:44.720,25.865000000000002,-12.25,2.45,0.004148,0.026840000000000003,-1.087752,2
2024-06-14 08:11:44.725,27.615000000000002,-11.76,2.17,-0.003172,0.020252,-1.113616,2
2024-06-14 08:11:44.730,28.07,-12.845,1.6099999999999999,-0.018544,0.005123999999999999,-1.125572,2
2024-06-14 08:11:44.734,26.775,-14.524999999999999,1.785,-0.02928,-0.005124,-1.118496,2
2024-06-14 08:11:44.739,25.200000000000003,-16.450000000000003,2.24,-0.04514,-0.004148,-1.1167880000000001,2
2024-06-14 08:11:44.744,24.185000000000002,-18.375,1.645,-0.055632,-0.004636,-1.123132,2
2024-06-14 08:11:44.749,22.33,-21.28,0.56,-0.049776,-0.021228,-1.11508,2
2024-06-14 08:11:44.754,19.634999999999998,-25.83,-0.14,-0.06075599999999999,-0.025376000000000003,-1.117032,2
2024-06-14 08:11:44.759,16.73,-31.325,-0.10500000000000001,-0.081496,-0.019520000000000003,-1.1187399999999998,2
2024-06-14 08:11:44.763,14.49,-37.625,-0.63,-0.09272,-0.018299999999999997,-1.107516,2
2024-06-14 08:11:44.768,12.985,-42.035,-1.645,-0.083936,-0.027327999999999998,-1.108248,2
2024-06-14 08:11:44.773,10.71,-45.43,-2.03,-0.051727999999999996,-0.042455999999999994,-1.117764,2
2024-06-14 08:11:44.778,7.3149999999999995,-47.705,-1.82,-0.030011999999999997,-0.055632,-1.11386,2
2024-06-14 08:11:44.783,3.4650000000000003,-50.120000000000005,-1.12,-0.03318399999999999,-0.052948,-1.106784,2
2024-06-14 08:11:44.787,0.13999999999999996,-50.82,-0.8049999999999999,-0.041236,-0.040504,-1.092388,2
2024-06-14 08:11:44.792,-2.45,-50.54,-0.9450000000000001,-0.039284,-0.027084,-1.0833599999999999,2
2024-06-14 08:11:44.797,-4.13,-50.33,-1.155,-0.030255999999999998,-0.0183,-1.073356,2
2024-06-14 08:11:44.802,-5.5649999999999995,-49.665,-1.05,-0.017568,-0.011467999999999999,-1.0675,2
2024-06-14 08:11:44.807,-6.58,-49.28,-0.8049999999999999,-0.004392,-0.012444,-1.05896,2
2024-06-14 08:11:44.812,-7.5600000000000005,-48.72,-0.49,-0.000976,-0.023912,-1.0470039999999998,2
2024-06-14 08:11:44.816,-8.645,-48.474999999999994,-0.21000000000000002,-0.0024400000000000003,-0.015372,-1.048956,2
2024-06-14 08:11:44.821,-9.1,-48.44,-0.35,0.00048799999999999994,-0.003416,-1.0506639999999998,2
2024-06-14 08:11:44.826,-9.1,-48.125,-0.525,0.004392,0.014884000000000001,-1.05286,2
2024-06-14 08:11:44.831,-8.504999999999999,-48.685,-1.0150000000000001,0.0053679999999999995,0.036844,-1.05774,2
2024-06-14 08:11:44.836,-7.21,-48.79,-1.6099999999999999,0.00488,0.040015999999999996,-1.050176,2
2024-06-14 08:11:44.840,-5.635,-48.3,-2.45,0.0068319999999999995,0.046848,-1.044076,2
2024-06-14 08:11:44.844,-0.24499999999999994,-46.620000000000005,-2.765,0.005856,0.052948,-1.0523719999999999,2
2024-06-14 08:11:44.849,1.54,-46.41,-3.465,0.011956,0.049288,-1.04554,2
2024-06-14 08:11:44.854,1.925,-47.985,-4.2,0.022447999999999996,0.034892,-1.0506639999999998,2
2024-06-14 08:11:44.859,2.9050000000000002,-45.71,-4.550000000000001,0.026108,0.015372,-1.050176,2
2024-06-14 08:11:44.864,2.625,-46.41,-4.34,0.042456,-0.008296,-1.0511519999999999,2
2024-06-14 08:11:44.868,0.28,-45.709999999999994,-4.27,0.053191999999999996,-0.023424,-1.0450519999999999,2
2024-06-14 08:11:44.873,-2.555,-44.730000000000004,-4.0600000000000005,0.050752,-0.027084,-1.048468,2
2024-06-14 08:11:44.878,-5.11,-52.78,-3.745,0.050508,-0.026108,-1.032364,2
2024-06-14 08:11:44.883,-9.555,-45.709999999999994,-3.465,0.054655999999999996,-0.025863999999999998,-1.050908,2
2024-06-14 08:11:44.888,-8.61,-43.644999999999996,-2.52,0.05978,-0.0183,-1.054568,2
2024-06-14 08:11:44.893,-10.5,-43.400000000000006,-2.485,0.056119999999999996,-0.011467999999999999,-1.061156,2
2024-06-14 08:11:44.897,-8.645,-42.105,-2.695,0.064416,0.005856,-1.0616439999999998,2
2024-06-14 08:11:44.902,-8.96,-41.195,-2.73,0.06954,0.013176,-1.0509079999999997,2
2024-06-14 08:11:44.907,-8.715,-50.295,-1.855,0.080764,0.030987999999999995,-1.056276,2
2024-06-14 08:11:44.912,-6.475,-38.045,-2.275,0.079544,0.0305,-1.060912,2
2024-06-14 08:11:44.917,-3.465,-35.49,-2.66,0.075152,0.042943999999999996,-1.052372,2
2024-06-14 08:11:44.922,-1.6099999999999999,-33.705,-2.9400000000000004,0.077592,0.051972000000000004,-1.037732,2
2024-06-14 08:11:44.926,0.56,-32.375,-2.975,0.090768,0.05856,-1.0362679999999997,2
2024-06-14 08:11:44.931,2.905,-28.455,-2.87,0.09759999999999999,0.052704,-1.0299239999999998,2
2024-06-14 08:11:44.936,3.92,-26.6,-3.29,0.09759999999999999,0.042456,-1.0238239999999998,2
2024-06-14 08:11:44.941,3.955,-24.535,-3.745,0.091012,0.031232,-1.0226039999999998,2
2024-06-14 08:11:44.946,4.0600000000000005,-23.380000000000003,-3.78,0.090036,0.029524,-1.0309,2
2024-06-14 08:11:44.951,5.6,-22.54,-3.5700000000000003,0.09028,0.02928,-1.03822,2
2024-06-14 08:11:44.955,7.805,-21.84,-3.64,0.08735199999999999,0.023424,-1.04554,2
2024-06-14 08:11:44.960,8.995000000000001,-21.245,-4.095,0.095648,0.017812,-1.0545680000000002,2
2024-06-14 08:11:44.965,10.64,-20.405,-4.199999999999999,0.09930800000000001,0.002928,-1.056276,2
2024-06-14 08:11:44.970,10.71,-19.53,-3.5700000000000003,0.108092,-0.01342,-1.0543239999999998,2
2024-06-14 08:11:44.975,10.325,-18.34,-2.87,0.11467999999999999,-0.022935999999999998,-1.0543239999999998,2
2024-06-14 08:11:44.980,9.17,-17.395,-2.52,0.11785200000000001,-0.022692,-1.05164,2
2024-06-14 08:11:44.984,7.875,-16.695,-2.205,0.108336,-0.019032,-1.0472479999999997,2
2024-06-14 08:11:44.989,6.86,-17.185000000000002,-2.0300000000000002,0.0915,0.0031719999999999995,-1.058716,2
2024-06-14 08:11:44.994,7.035,-19.005,-2.24,0.086864,0.020252,-1.070428,2
2024-06-14 08:11:44.999,7.98,-21.490000000000002,-2.485,0.086864,0.033671999999999994,-1.0845799999999999,2
2024-06-14 08:11:45.004,9.205,-24.64,-3.15,0.086132,0.046604,-1.0948280000000001,2
2024-06-14 08:11:45.008,10.605,-27.685,-3.8499999999999996,0.09028,0.040748,-1.1106880000000001,2
2024-06-14 08:11:45.013,10.64,-31.43,-4.235,0.09662399999999999,0.014883999999999998,-1.122156,2
2024-06-14 08:11:45.018,10.36,-35.209999999999994,-4.234999999999999,0.09345200000000001,-0.00122,-1.123376,3
2024-06-14 08:11:45.023,9.905000000000001,-38.745,-4.199999999999999,0.09638,-0.00366,-1.141188,3
2024-06-14 08:11:45.028,8.434999999999999,-41.58,-4.06,0.100284,-0.016104,-1.1641240000000002,3
2024-06-14 08:11:45.033,5.95,-44.45,-3.9899999999999998,0.111264,-0.012931999999999999,-1.158268,3
2024-06-14 08:11:45.037,5.04,-44.59,-3.7800000000000002,0.113948,-0.021471999999999998,-1.155096,3
2024-06-14 08:11:45.042,3.465,-45.78,-3.5,0.115656,-0.02318,-1.1604640000000002,3
2024-06-14 08:11:45.047,1.8900000000000001,-48.230000000000004,-3.15,0.119316,-0.032452,-1.163392,3
2024-06-14 08:11:45.052,-0.525,-50.96,-2.415,0.120048,-0.03952800000000001,-1.170224,3
2024-06-14 08:11:45.057,-3.045,-53.865,-1.505,0.128588,-0.038307999999999995,-1.16388,3
2024-06-14 08:11:45.062,-5.5649999999999995,-57.155,-1.155,0.13785999999999998,-0.056364,-1.1870599999999998,3
2024-06-14 08:11:45.066,-9.100000000000001,-57.82,-0.77,0.144936,-0.038796,-1.157048,3
2024-06-14 08:11:45.071,-12.11,-60.55,-0.28,0.14932800000000002,-0.043432,-1.174372,3
2024-06-14 08:11:45.076,-13.51,-62.965,0.385,0.1525,-0.030255999999999998,-1.1834,3
2024-06-14 08:11:45.081,-13.649999999999999,-64.61,0.875,0.15494,-0.018543999999999998,-1.19438,3
2024-06-14 08:11:45.086,-14.035,-66.675,1.12,0.15054800000000002,0.0004879999999999997,-1.2031640000000001,3
2024-06-14 08:11:45.091,-12.844999999999999,-69.58,1.26,0.153232,0.011468,-1.21512,3
2024-06-14 08:11:45.095,-12.11,-73.255,1.26,0.156404,0.028304,-1.21634,3
2024-06-14 08:11:45.100,-11.34,-77.245,0.9099999999999999,0.158112,0.016104,-1.24928,3
2024-06-14 08:11:45.105,-10.85,-81.83,0.7,0.177388,0.032695999999999996,-1.262212,3
2024-06-14 08:11:45.110,-11.2,-87.955,0.105,0.180316,0.040260000000000004,-1.284416,3
2024-06-14 08:11:45.115,-11.690000000000001,-93.38,-0.525,0.158356,0.0305,-1.311012,3
2024-06-14 08:11:45.120,-11.55,-98.49000000000001,-0.665,0.176412,0.010492000000000001,-1.318332,3
2024-06-14 08:11:45.124,-11.620000000000001,-104.965,-0.8049999999999999,0.17079999999999998,0.024888,-1.342488,3
2024-06-14 08:11:45.129,-13.51,-111.125,-1.54,0.180316,0.020496,-1.3466360000000002,3
2024-06-14 08:11:45.134,-15.33,-117.46000000000001,-1.7149999999999999,0.18348799999999998,-0.015615999999999998,-1.36518,3
2024-06-14 08:11:45.139,-16.555,-124.705,-1.4,0.18202400000000002,-0.020252,-1.3878719999999998,3
2024-06-14 08:11:45.144,-17.605,-132.23000000000002,-1.19,0.17812,-0.026596,-1.41886,3
2024-06-14 08:11:45.149,-17.43,-141.015,-0.98,0.178608,0.013663999999999999,-1.4366720000000002,3
2024-06-14 08:11:45.153,-17.955,-149.73000000000002,-1.8900000000000001,0.18348799999999998,0.043432,-1.4654639999999999,3
2024-06-14 08:11:45.158,-17.115,-159.04000000000002,-3.115,0.18056,0.082716,-1.48474,3
2024-06-14 08:11:45.163,-17.395,-169.47,-5.074999999999999,0.184464,0.10614000000000001,-1.508408,3
2024-06-14 08:11:45.168,-17.36,-179.97,-7.279999999999999,0.18202400000000002,0.103456,-1.527196,3
2024-06-14 08:11:45.173,-17.5,-189.945,-9.45,0.176656,0.096136,-1.562576,3
2024-06-14 08:11:45.177,-17.990000000000002,-200.725,-11.305,0.183732,0.071736,-1.581608,3
2024-06-14 08:11:45.182,-18.83,-212.59,-12.775,0.18056,0.066612,-1.6301640000000002,3
2024-06-14 08:11:45.187,-20.86,-225.32999999999998,-14.525,0.17568,0.072224,-1.667252,3
2024-06-14 08:11:45.192,-22.505,-238.10500000000002,-16.450000000000003,0.16128399999999998,0.082716,-1.719956,3
2024-06-14 08:11:45.197,-22.645,-250.775,-18.48,0.181048,0.10369999999999999,-1.770708,3
2024-06-14 08:11:45.202,-23.905,-265.685,-21.174999999999997,0.162748,0.09272,-1.802672,3
2024-06-14 08:11:45.206,-22.96,-279.825,-23.205,0.141764,0.11589999999999999,-1.8163359999999997,3
2024-06-14 08:11:45.211,-25.165,-297.28999999999996,-26.215,0.152256,0.22399200000000002,-1.796572,3
2024-06-14 08:11:45.216,-28.980000000000004,-314.055,-29.68,0.138104,0.19080799999999998,-1.83122,3
2024-06-14 08:11:45.221,-21.560000000000002,-328.055,-31.99,0.12395199999999999,0.12102399999999999,-1.9646879999999998,3
2024-06-14 08:11:45.226,-16.415,-348.075,-33.565,0.146156,0.113704,-2.0835160000000004,3
2024-06-14 08:11:45.231,-12.46,-366.94,-34.405,0.194468,0.09516,-2.153788,3
2024-06-14 08:11:45.235,-10.08,-384.895,-33.39,0.22204000000000002,0.09296399999999999,-2.294332,3
2024-06-14 08:11:45.240,-9.030000000000001,-398.72,-33.004999999999995,0.239608,0.12322,-2.38876,3
2024-06-14 08:11:45.245,-5.845000000000001,-411.32000000000005,-32.165,0.356484,0.20422800000000002,-2.484164,3
2024-06-14 08:11:45.250,-9.205,-421.82,-32.97,0.343796,0.261812,-2.63764,3
2024-06-14 08:11:45.255,-8.504999999999999,-427.98,-34.685,0.44334799999999996,0.276696,-2.689612,3
2024-06-14 08:11:45.260,-6.02,-433.51,-35.245,0.274988,0.402356,-2.7618359999999997,3
2024-06-14 08:11:45.264,-12.495000000000001,-433.615,-42.385,0.19080799999999998,0.5465599999999999,-2.689612,3
2024-06-14 08:11:45.269,-3.5699999999999994,-435.12,-48.72,0.173484,0.608048,-2.6071400000000002,3
2024-06-14 08:11:45.274,-13.370000000000001,-434.84000000000003,-56.349999999999994,-0.08149599999999999,0.6365959999999999,-2.6525239999999997,3
2024-06-14 08:11:45.279,-9.555,-440.265,-69.265,0.13078399999999998,0.711504,-2.4077919999999997,3
2024-06-14 08:11:45.284,8.89,-449.19,-84.28,0.16250399999999998,0.679296,-2.1472,3
2024-06-14 08:11:45.289,33.985,-455.21000000000004,-91.14,0.454816,0.7310239999999999,-2.023736,4
2024-06-14 08:11:45.293,38.605000000000004,-468.475,-94.815,0.218136,0.9386679999999998,-1.9049079999999998,4
2024-06-14 08:11:45.298,13.614999999999998,-468.65,-103.39,0.159088,1.3354119999999998,-1.7758319999999999,4
2024-06-14 08:11:45.303,-35.035000000000004,-462.63,-116.655,-0.06466,1.4813239999999999,-1.916864,4
2024-06-14 08:11:45.308,-102.375,-445.34000000000003,-130.79500000000002,-0.21984399999999998,1.509872,-2.017392,4
2024-06-14 08:11:45.313,-171.36,-421.96,-146.125,-0.338672,1.4605839999999999,-2.008608,4
2024-06-14 08:11:45.317,-220.78,-392.56,-164.465,-0.647332,1.3110119999999998,-1.84586,4
2024-06-14 08:11:45.322,-250.845,-354.025,-186.025,-0.868884,1.1204479999999999,-1.5591599999999999,4
2024-06-14 08:11:45.327,-263.55,-310.765,-206.60500000000002,-0.937692,0.808128,-1.2002359999999999,4
2024-06-14 08:11:45.332,-252.525,-267.78499999999997,-204.32999999999998,-1.7348400000000002,0.46018400000000004,-0.760304,4
2024-06-14 08:11:45.337,-218.29500000000002,-197.82,-180.77499999999998,-0.681004,0.24888000000000002,-0.446032,4
2024-06-14 08:11:45.342,-167.16,-107.13499999999999,-147.98000000000002,-1.079456,-0.310368,-1.2646519999999999,4
2024-06-14 08:11:45.346,-110.46000000000001,-6.51,-101.955,-1.7153199999999997,-0.8003199999999999,-0.86376,4
2024-06-14 08:11:45.351,-38.115,63.21,-43.435,-1.760216,-0.8576599999999999,-0.5124,4
2024-06-14 08:11:45.356,32.655,117.32000000000001,3.815,-1.41764,-0.44774,-0.629032,4
2024-06-14 08:11:45.361,93.38,161.945,33.32,-1.082872,-0.17275200000000002,-0.903044,4
2024-06-14 08:11:45.366,130.795,195.195,52.114999999999995,-0.9913719999999999,0.017080000000000005,-1.0421239999999998,4
2024-06-14 08:11:45.371,142.83499999999998,222.14499999999998,61.459999999999994,-0.975024,0.310612,-1.042124,4
2024-06-14 08:11:45.375,135.87,244.51,60.375,-0.928176,0.598288,-0.99674,4
2024-06-14 08:11:45.380,117.70500000000001,262.28999999999996,51.730000000000004,-0.8471679999999999,0.7424919999999999,-0.9767319999999999,4
2024-06-14 08:11:45.385,93.065,276.115,38.64,-0.7725040000000001,0.783728,-0.9535520000000001,4
2024-06-14 08:11:45.390,65.275,285.95000000000005,22.96,-0.70882,0.772992,-0.94062,4
2024-06-14 08:11:45.395,39.480000000000004,291.69,6.824999999999999,-0.66124,0.720532,-0.89426,4
2024-06-14 08:11:45.400,19.25,293.93,-8.4,-0.597312,0.63074,-0.842776,4
2024-06-14 08:11:45.404,4.655,292.46000000000004,-21.91,-0.52216,0.5350919999999999,-0.8278920000000001,4
2024-06-14 08:11:45.409,-4.55,288.4,-33.495,-0.437492,0.463844,-0.834724,4
2024-06-14 08:11:45.414,-9.765,282.24,-42.875,-0.38039599999999996,0.407724,-0.8413120000000001,4
2024-06-14 08:11:45.419,-12.915,276.045,-49.945,-0.348188,0.340624,-0.825696,4
2024-06-14 08:11:45.424,-14.63,271.705,-54.355,-0.33476799999999995,0.28303999999999996,-0.8115439999999999,4
2024-06-14 08:11:45.429,-14.420000000000002,270.585,-56.14,-0.335012,0.228628,-0.8064199999999999,4
2024-06-14 08:11:45.433,-14.14,273.875,-55.16,-0.363072,0.199592,-0.834724,4
2024-06-14 08:11:45.438,-13.895,281.365,-51.8,-0.366244,0.178852,-0.865956,4
2024-06-14 08:11:45.443,-14.035,292.46000000000004,-45.99,-0.37917599999999996,0.15982,-0.911584,4
2024-06-14 08:11:45.448,-15.05,305.445,-38.43,-0.38600799999999996,0.150304,-0.948672,4
2024-06-14 08:11:45.453,-15.855,319.13,-29.435000000000002,-0.394304,0.13590799999999997,-0.982588,4
2024-06-14 08:11:45.458,-16.66,331.135,-20.369999999999997,-0.372344,0.125416,-1.034316,4
2024-06-14 08:11:45.462,-17.674999999999997,340.62,-11.375,-0.32744799999999996,0.123708,-1.0845799999999999,4
2024-06-14 08:11:45.467,-19.53,346.745,-2.7649999999999997,-0.2745,0.12980799999999998,-1.1277679999999999,4
2024-06-14 08:11:45.472,-22.785,349.755,4.865,-0.21862399999999999,0.133712,-1.163392,4
2024-06-14 08:11:45.477,-27.509999999999998,349.86,11.899999999999999,-0.156404,0.148352,-1.1958440000000001,4
2024-06-14 08:11:45.482,-34.16,347.54999999999995,17.85,-0.105408,0.154208,-1.224148,4
2024-06-14 08:11:45.486,-42.07,343.07,23.134999999999998,-0.052947999999999995,0.15201199999999998,-1.256112,4
2024-06-14 08:11:45.491,-50.54,337.155,27.825,-0.008784000000000002,0.155916,-1.3051560000000002,4
2024-06-14 08:11:45.496,-58.59,329.735,31.674999999999997,0.025619999999999997,0.16372399999999998,-1.360056,4
2024-06-14 08:11:45.501,-66.29,322.315,34.894999999999996,0.04636,0.167872,-1.41764,4
2024-06-14 08:11:45.506,-73.39500000000001,315.525,37.379999999999995,0.058316,0.159576,-1.46644,4
2024-06-14 08:11:45.511,-79.24,310.31,39.97,0.060756,0.13834799999999997,-1.51646,4
2024-06-14 08:11:45.515,-84.45500000000001,306.53,42.245000000000005,0.065148,0.12566,-1.565504,4
2024-06-14 08:11:45.520,-88.025,304.22,44.415,0.07661599999999999,0.102724,-1.614792,4
2024-06-14 08:11:45.525,-90.055,302.995,46.41,0.097356,0.073932,-1.670424,4
2024-06-14 08:11:45.530,-90.3,303.135,49.0,0.12297599999999999,0.040504,-1.7175159999999998,4
2024-06-14 08:11:45.535,-89.6,303.65999999999997,52.36,0.15128,0.017079999999999998,-1.753628,4
2024-06-14 08:11:45.540,-88.06,304.255,56.455,0.188856,-0.002927999999999999,-1.783884,4
2024-06-14 08:11:45.544,-86.52000000000001,304.29,61.355000000000004,0.224968,-0.021716,-1.8273160000000002,4
2024-06-14 08:11:45.549,-85.33,303.73,67.06,0.26327599999999995,-0.031476,-1.8624519999999998,4
2024-06-14 08:11:45.554,-83.89500000000001,302.78499999999997,73.78,0.28426,-0.047336,-1.886852,4
2024-06-14 08:11:45.559,-82.39,302.08500000000004,80.57,0.284992,-0.038307999999999995,-1.904664,4
2024-06-14 08:11:45.564,-80.57,302.225,87.255,0.27693999999999996,-0.015616000000000001,-1.925404,4
2024-06-14 08:11:45.569,-79.31,302.71500000000003,92.89,0.26303199999999993,0.013663999999999999,-1.944436,4
2024-06-14 08:11:45.573,-79.1,303.485,96.775,0.245952,0.051728,-1.9722520000000001,4
2024-06-14 08:11:45.578,-79.66,304.08000000000004,98.735,0.23375200000000002,0.071248,-1.99958,4
2024-06-14 08:11:45.583,-80.08,304.5,99.08500000000001,0.237412,0.08247199999999999,-2.024956,4
2024-06-14 08:11:45.588,-79.13499999999999,304.46500000000003,98.0,0.251808,0.083936,-2.053504,4
2024-06-14 08:11:45.593,-75.95,303.79999999999995,95.58500000000001,0.280356,0.084668,-2.0835160000000004,4
2024-06-14 08:11:45.598,-70.56,302.75,92.505,0.326472,0.09028,-2.107916,4
2024-06-14 08:11:45.602,-64.08500000000001,301.35,89.07499999999999,0.3843,0.101992,-2.124264,4
2024-06-14 08:11:45.607,-58.135000000000005,299.46000000000004,85.015,0.453596,0.14249599999999998,-2.135732,4
2024-06-14 08:11:45.612,-53.69,296.73,80.325,0.5326519999999999,0.188856,-2.148664,4
2024-06-14 08:11:45.617,-51.1,293.615,75.18,0.6068279999999999,0.224968,-2.1569599999999998,4
2024-06-14 08:11:45.622,-49.945,290.71000000000004,70.315,0.6788080000000001,0.261568,-2.159644,4
2024-06-14 08:11:45.626,-49.49,287.90999999999997,65.59,0.731756,0.292068,-2.1591560000000003,4
2024-06-14 08:11:45.631,-49.805,285.28499999999997,61.285,0.790072,0.324764,-2.160864,4
2024-06-14 08:11:45.636,-50.995000000000005,282.65999999999997,57.260000000000005,0.841556,0.35136,-2.1618399999999998,4
2024-06-14 08:11:45.641,-52.989999999999995,279.475,54.144999999999996,0.895968,0.378688,-2.156472,4
2024-06-14 08:11:45.646,-56.315,275.94,51.345,0.942572,0.396988,-2.138904,4
2024-06-14 08:11:45.651,-61.915000000000006,272.615,49.245000000000005,1.014796,0.41089600000000004,-2.13622,4
2024-06-14 08:11:45.655,-69.965,269.255,47.775000000000006,1.101172,0.41748399999999997,-2.114992,4
2024-06-14 08:11:45.660,-79.17,264.95,46.585,1.190232,0.389912,-2.08254,4
2024-06-14 08:11:45.665,-88.06,259.245,46.095,1.291248,0.334036,-2.0586279999999997,4
2024-06-14 08:11:45.670,-95.9,251.57999999999998,46.41,1.417396,0.261568,-2.033252,4
2024-06-14 08:11:45.675,-101.255,241.70999999999998,47.565,1.546228,0.184952,-1.99836,4
2024-06-14 08:11:45.680,-105.175,230.01999999999998,48.72,1.6787199999999998,0.12395199999999999,-1.96298,4
2024-06-14 08:11:45.684,-109.13,217.245,49.175,1.82756,0.08588799999999999,-1.9097879999999998,4
2024-06-14 08:11:45.689,-113.4,203.385,49.07,1.995432,0.042212,-1.851716,4
2024-06-14 08:11:45.694,-118.65,189.35,48.09,2.1886799999999997,-0.014151999999999998,-1.804624,4
2024-06-14 08:11:45.699,-123.83,175.56,46.655,2.431216,-0.12346399999999999,-1.7419159999999998,4
2024-06-14 08:11:45.704,-127.36500000000001,161.56,45.57,2.699372,-0.296704,-1.663836,4
2024-06-14 08:11:45.709,-129.01,146.33499999999998,45.114999999999995,2.9916840000000002,-0.501664,-1.598688,4
2024-06-14 08:11:45.713,-128.38,128.8,45.64,3.27204,-0.728584,-1.570872,4
2024-06-14 08:11:45.718,-122.15,107.38,47.565,3.483588,-0.960628,-1.5435439999999998,4
2024-06-14 08:11:45.723,-106.61000000000001,81.9,51.099999999999994,3.582896,-1.1709559999999999,-1.5093839999999998,4
2024-06-14 08:11:45.728,-81.305,54.74,55.195,3.5477600000000002,-1.273924,-1.46034,4
2024-06-14 08:11:45.733,-48.79,28.28,58.1,3.400628,-1.256112,-1.400072,4
2024-06-14 08:11:45.738,-14.525,4.655,58.485,3.1712679999999995,-1.116544,-1.339072,4
2024-06-14 08:11:45.742,16.205000000000002,-15.645,56.0,2.903356,-0.907192,-1.28222,4
2024-06-14 08:11:45.747,39.585,-32.2,51.415,2.615436,-0.6514800000000001,-1.222196,4
2024-06-14 08:11:45.752,54.53,-44.065,45.955,2.3370319999999998,-0.41968000000000005,-1.174372,4
2024-06-14 08:11:45.757,62.405,-51.8,41.335,2.085468,-0.23838799999999996,-1.128012,4
2024-06-14 08:11:45.762,64.925,-56.595,38.36,1.8605,-0.11589999999999998,-1.093364,4
2024-06-14 08:11:45.767,63.28,-58.730000000000004,37.66,1.663592,-0.047335999999999996,-1.0784799999999999,4
2024-06-14 08:11:45.771,57.925,-60.69,38.815,1.5313439999999998,0.167628,-0.7293160000000001,4
2024-06-14 08:11:45.776,161.35,-241.64000000000001,47.144999999999996,4.3505199999999995,-0.008783999999999986,-3.8193319999999997,4
