time,gyroscope_x,gyroscope_y,gyroscope_z,accelerometer_x,accelerometer_y,accelerometer_z,phase
2024-06-14 10:56:54.480,-128.45,-388.36,-3.2550000000000003,7.078927999999999,1.1587560000000001,-5.202812,1
2024-06-14 10:56:54.485,-183.75,-355.67,-10.29,2.056676,0.01390799999999999,0.6287879999999999,1
2024-06-14 10:56:54.490,-141.785,-326.375,4.9,-0.16933600000000004,-0.09906399999999999,-1.146312,1
2024-06-14 10:56:54.495,-160.09,-322.875,13.649999999999999,0.765916,0.386252,-2.1269479999999996,1
2024-06-14 10:56:54.499,-169.505,-290.04499999999996,6.335,-0.25376,-0.063196,-1.41764,1
2024-06-14 10:56:54.504,-167.37,-299.6,-2.87,-0.338672,-0.065636,-1.5542799999999999,1
2024-06-14 10:56:54.509,-129.115,-302.47,-12.11,-0.36112,-0.004636000000000001,-1.628456,1
2024-06-14 10:56:54.514,-100.66,-304.745,-20.09,-0.008784000000000002,-0.0009759999999999977,-1.6723759999999999,1
2024-06-14 10:56:54.519,-81.095,-291.83000000000004,-27.615,0.22204000000000002,0.04806799999999999,-1.707512,1
2024-06-14 10:56:54.524,-68.215,-278.88,-29.75,0.33306,0.171044,-1.638216,1
2024-06-14 10:56:54.528,-48.230000000000004,-253.925,-27.265,0.402112,0.370148,-1.8897799999999998,1
2024-06-14 10:56:54.533,-42.980000000000004,-239.015,-21.0,0.31476,0.242292,-1.6374840000000002,1
2024-06-14 10:56:54.538,-33.46,-219.24,-15.645,0.204472,0.211792,-1.817556,1
2024-06-14 10:56:54.543,-24.990000000000002,-184.38,-13.23,0.131272,0.14713199999999999,-1.769244,1
2024-06-14 10:56:54.548,-30.415,-166.88,-10.15,0.15372,0.13761600000000002,-1.9461439999999999,1
2024-06-14 10:56:54.553,-29.085,-117.94999999999999,-6.895,0.273768,0.12321999999999998,-1.872944,1
2024-06-14 10:56:54.557,-25.27,-88.79499999999999,-5.215,0.171288,0.04733599999999999,-1.610644,1
2024-06-14 10:56:54.562,-23.66,-74.76,-7.77,0.245952,-0.019764,-1.830488,1
2024-06-14 10:56:54.567,-21.314999999999998,-52.29,-11.9,0.108824,0.024644,-1.5145079999999997,1
2024-06-14 10:56:54.572,-15.715,-50.015,-13.125,0.093696,0.040015999999999996,-1.398852,1
2024-06-14 10:56:54.577,-11.34,-21.735,-11.864999999999998,0.221308,0.214964,-1.476688,1
2024-06-14 10:56:54.582,-7.699999999999999,-12.425,-4.4799999999999995,0.07710399999999999,0.05734,-1.148752,1
2024-06-14 10:56:54.586,-5.915,-16.03,-3.8499999999999996,0.040016,0.138348,-1.156316,1
2024-06-14 10:56:54.591,-9.905000000000001,-15.294999999999998,-1.05,0.055388,0.051728,-1.079212,2
2024-06-14 10:56:54.596,-2.7649999999999997,-13.825,0.10499999999999998,-0.0075639999999999995,0.011224,-1.047248,2
2024-06-14 10:56:54.601,-7.63,-13.23,-0.9450000000000001,-0.021716,0.022935999999999998,-1.05164,2
2024-06-14 10:56:54.606,-7.3500000000000005,-12.18,-1.645,0.012687999999999998,-0.044896,-1.056032,2
2024-06-14 10:56:54.611,-5.075,-13.719999999999999,-1.0150000000000001,-0.0017079999999999994,0.023180000000000003,-1.076528,2
2024-06-14 10:56:54.615,-9.17,-14.525,-0.9099999999999999,0.043432,-0.00854,-1.079212,2
2024-06-14 10:56:54.620,-9.275,-14.84,-2.8,0.05002,0.017568,-1.099952,2
2024-06-14 10:56:54.625,-8.75,-16.8,-1.645,0.014884000000000001,0.04758,-1.090436,2
2024-06-14 10:56:54.630,-8.89,-18.27,-1.295,0.009516,0.036112,-1.078236,2
2024-06-14 10:56:54.635,-5.039999999999999,-20.86,-0.63,-0.011467999999999999,0.041724,-1.0689639999999998,2
2024-06-14 10:56:54.640,-3.3600000000000003,-23.485,-0.10500000000000001,-0.009028,0.040504,-1.059692,2
2024-06-14 10:56:54.644,-0.63,-27.79,-0.10499999999999998,-0.041968,0.09028,-1.066036,2
2024-06-14 10:56:54.649,1.295,-30.275,-0.385,0.042212,-0.079544,-1.025776,2
2024-06-14 10:56:54.654,1.4,-33.53,0.105,-0.006344,0.035136,-1.0384639999999998,2
2024-06-14 10:56:54.659,2.765,-36.75,0.14,-0.008296,0.033671999999999994,-1.02724,2
2024-06-14 10:56:54.664,3.3249999999999997,-38.85,-0.9099999999999999,0.04050399999999999,0.014152000000000012,-1.0072320000000001,2
2024-06-14 10:56:54.669,6.055,-40.915,0.175,-0.0029280000000000005,0.026351999999999997,-1.06018,2
2024-06-14 10:56:54.673,9.135,-42.315,-0.27999999999999997,-0.032696,0.03733199999999999,-1.068232,2
2024-06-14 10:56:54.678,10.885,-43.61,-0.035,0.01708,0.062464,-1.069696,2
2024-06-14 10:56:54.683,13.195,-43.155,-0.45499999999999996,0.066124,-0.07930000000000001,-1.0252879999999998,2
2024-06-14 10:56:54.688,15.75,-43.435,-0.35,-0.024156,0.114192,-1.058228,2
2024-06-14 10:56:54.693,17.08,-44.099999999999994,-0.42000000000000004,-0.003416,0.08637600000000001,-1.063596,2
2024-06-14 10:56:54.698,18.62,-45.115,-0.455,0.009516,0.0854,-1.046516,2
2024-06-14 10:56:54.704,18.619999999999997,-44.345,-0.665,0.060511999999999996,-0.051239999999999994,-1.019676,2
2024-06-14 10:56:54.708,19.32,-44.975,-0.525,0.066368,0.035136,-1.03456,2
2024-06-14 10:56:54.713,19.775,-44.8,-0.42,0.008783999999999998,0.06490399999999999,-1.05408,2
2024-06-14 10:56:54.718,18.97,-44.555,-0.21,0.020739999999999998,0.019764,-1.03456,2
2024-06-14 10:56:54.723,18.06,-45.325,-0.21000000000000002,0.047335999999999996,0.002683999999999999,-1.040416,2
2024-06-14 10:56:54.728,17.045,-46.515,0.035,0.066124,0.0017079999999999994,-1.0218720000000001,2
2024-06-14 10:56:54.732,15.26,-44.834999999999994,0.315,0.0058560000000000036,0.00976,-1.039684,2
2024-06-14 10:56:54.737,12.95,-47.04,0.56,0.04392,0.006344000000000001,-1.028216,2
2024-06-14 10:56:54.742,11.129999999999999,-44.38,0.8049999999999999,0.177632,-0.014884,-0.9415959999999999,2
2024-06-14 10:56:54.747,9.555,-44.1,1.12,0.17177599999999998,-0.009759999999999998,-0.95404,2
2024-06-14 10:56:54.752,7.665,-44.730000000000004,1.12,0.06246399999999999,0.011224,-0.9840519999999999,2
2024-06-14 10:56:54.757,6.335,-43.224999999999994,1.365,0.24424400000000002,-0.013907999999999998,-0.915488,2
2024-06-14 10:56:54.761,5.32,-41.474999999999994,1.5750000000000002,0.23765599999999998,-0.04953199999999999,-0.977708,2
2024-06-14 10:56:54.766,4.34,-41.16,0.8400000000000001,0.04026,0.034404000000000004,-0.9879560000000001,2
2024-06-14 10:56:54.771,5.005,-41.09,1.26,-0.05612,-0.018787999999999992,-1.0784799999999999,2
2024-06-14 10:56:54.776,4.2700000000000005,-27.544999999999998,1.085,-0.08662,0.055632,-1.06262,2
2024-06-14 10:56:54.781,2.66,-41.894999999999996,0.595,0.11346,0.046116,-0.9672159999999999,2
2024-06-14 10:56:54.786,4.9350000000000005,-42.14,0.28,0.107848,0.060024,-0.9013359999999999,2
2024-06-14 10:56:54.790,0.6300000000000001,-43.365,-0.17500000000000004,0.098576,0.013176,-0.9879560000000001,2
2024-06-14 10:56:54.795,3.3600000000000003,-43.715,0.455,0.2989,-0.029523999999999995,-0.9325680000000001,2
2024-06-14 10:56:54.800,2.8000000000000003,-42.875,0.63,0.052704,-0.028304,-1.076284,2
2024-06-14 10:56:54.805,1.33,-42.21,0.385,0.016592,0.021228,-1.025288,2
2024-06-14 10:56:54.810,2.94,-42.245000000000005,0.84,0.018056,-0.030499999999999996,-1.063352,2
2024-06-14 10:56:54.815,-0.385,-41.825,0.63,0.213744,-0.072224,-1.0208959999999998,2
2024-06-14 10:56:54.819,-0.245,-43.81999999999999,0.595,0.01586,0.07222400000000001,-1.0287039999999998,2
2024-06-14 10:56:54.824,-0.665,-41.055,0.245,0.1647,0.008540000000000002,-0.9325679999999998,2
2024-06-14 10:56:54.829,0.595,-40.6,0.56,0.108336,-0.038064,-1.0243120000000001,2
2024-06-14 10:56:54.834,-0.525,-39.025,0.49,0.131516,0.027816,-0.949648,2
2024-06-14 10:56:54.839,-0.8400000000000001,-37.239999999999995,0.875,0.17738800000000002,-0.012688,-1.002596,2
2024-06-14 10:56:54.844,0.35,-35.035,0.805,0.082472,0.038796,-1.0201639999999998,2
2024-06-14 10:56:54.848,-0.14,-33.635,0.56,0.11346,0.0244,-0.990884,2
2024-06-14 10:56:54.853,-1.68,-32.165,0.63,0.14762,-0.033428,-0.9925919999999999,2
2024-06-14 10:56:54.858,-2.065,-32.76,0.98,0.125416,0.024156,-0.993568,2
2024-06-14 10:56:54.863,-2.695,-32.480000000000004,0.91,0.152012,0.005856,-1.000888,2
2024-06-14 10:56:54.868,-3.8499999999999996,-33.144999999999996,1.12,0.14810800000000002,0.0012200000000000002,-1.0313880000000002,2
2024-06-14 10:56:54.872,0.28,-33.004999999999995,0.98,0.13712799999999997,0.010979999999999998,-1.04188,2
2024-06-14 10:56:54.877,3.36,-34.09,0.98,0.15176800000000001,0.006588,-1.0043039999999999,2
2024-06-14 10:56:54.882,-0.034999999999999976,-33.67,0.945,0.154452,-0.0026839999999999998,-1.016016,2
2024-06-14 10:56:54.887,-1.365,-34.510000000000005,0.875,0.15738000000000002,0.0061,-1.017968,2
2024-06-14 10:56:54.892,0.31500000000000006,-34.265,1.19,0.157868,-0.006344000000000001,-1.052372,2
2024-06-14 10:56:54.897,4.655,-34.755,1.75,0.14395999999999998,0.0046359999999999995,-1.037244,2
2024-06-14 10:56:54.901,3.08,-36.575,1.6099999999999999,0.160552,-0.006588,-1.045052,2
2024-06-14 10:56:54.906,3.885,-37.59,1.8900000000000001,0.162748,0.001464,-1.05286,2
2024-06-14 10:56:54.911,3.255,-38.745000000000005,1.96,0.164456,0.0017079999999999997,-1.0787240000000002,3
2024-06-14 10:56:54.916,-0.24500000000000002,-40.004999999999995,1.9249999999999998,0.169092,-0.009271999999999999,-1.0518839999999998,3
2024-06-14 10:56:54.921,-2.0300000000000002,-40.915000000000006,1.9249999999999998,0.18031599999999998,0.0009759999999999994,-1.0423680000000002,3
2024-06-14 10:56:54.926,-2.24,-40.74,2.065,0.202764,-0.009515999999999997,-1.0340719999999999,3
2024-06-14 10:56:54.930,-3.08,-41.58,2.205,0.14957199999999998,0.004391999999999999,-0.963068,3
2024-06-14 10:56:54.935,-2.6950000000000003,-41.405,2.415,0.174948,-0.014151999999999998,-0.965996,3
2024-06-14 10:56:54.940,-2.52,-41.125,2.31,0.18544,0.034892,-1.00772,3
2024-06-14 10:56:54.945,-1.8900000000000001,-40.739999999999995,1.995,0.211792,0.006100000000000001,-1.02846,3
2024-06-14 10:56:54.950,-0.91,-38.85,1.68,0.215696,0.005611999999999999,-1.0735999999999999,3
2024-06-14 10:56:54.955,0.91,-38.989999999999995,1.8900000000000001,0.23936400000000002,0.032452,-1.1304519999999998,3
2024-06-14 10:56:54.959,-0.28,-40.425,1.68,0.212036,0.0007319999999999983,-1.060912,3
2024-06-14 10:56:54.964,3.29,-46.480000000000004,1.4700000000000002,0.17446,0.008539999999999999,-1.150704,3
2024-06-14 10:56:54.969,5.984999999999999,-50.575,1.26,0.18397599999999997,0.057095999999999994,-1.141432,3
2024-06-14 10:56:54.974,10.71,-53.864999999999995,1.085,0.229848,-0.012932,-1.2492800000000002,3
2024-06-14 10:56:54.979,12.46,-56.21,0.385,0.21472,0.020984,-1.2002359999999999,3
2024-06-14 10:56:54.984,16.66,-58.730000000000004,-0.10499999999999998,0.186172,0.045871999999999996,-1.22244,3
2024-06-14 10:56:54.988,22.085,-65.38,-0.98,0.199348,0.061244,-1.296128,3
2024-06-14 10:56:54.993,25.725,-67.55000000000001,-1.4700000000000002,0.23399599999999998,0.065392,-1.2078000000000002,3
2024-06-14 10:56:54.998,30.205,-73.95500000000001,-3.325,0.19812799999999997,0.06368399999999999,-1.232444,3
2024-06-14 10:56:55.003,35.175,-79.625,-4.76,0.232044,0.0732,-1.251232,3
2024-06-14 10:56:55.008,40.32,-85.505,-6.09,0.227896,0.074176,-1.2866119999999999,3
2024-06-14 10:56:55.013,43.4,-92.75,-6.369999999999999,0.23887599999999998,0.09662400000000002,-1.29076,3
2024-06-14 10:56:55.017,47.739999999999995,-91.805,-6.895,0.255468,0.054656,-1.3566399999999998,3
2024-06-14 10:56:55.022,52.290000000000006,-93.345,-7.805,0.229848,0.041479999999999996,-1.3664,3
2024-06-14 10:56:55.027,50.96,-106.08500000000001,-8.120000000000001,0.221796,-0.012444,-1.428864,3
2024-06-14 10:56:55.032,49.875,-117.04,-7.91,0.217648,-0.0244,-1.46522,3
2024-06-14 10:56:55.037,48.195,-126.385,-7.35,0.21545199999999998,-0.051484,-1.4788839999999999,3
2024-06-14 10:56:55.041,47.915,-138.985,-6.825,0.205204,-0.081252,-1.5816080000000001,3
2024-06-14 10:56:55.046,44.519999999999996,-151.445,-5.5649999999999995,0.204716,-0.087352,-1.568676,3
2024-06-14 10:56:55.051,42.385000000000005,-166.005,-4.305,0.19324799999999998,-0.080764,-1.610156,3
2024-06-14 10:56:55.056,39.760000000000005,-182.07,-2.275,0.191784,-0.13029600000000002,-1.605032,3
2024-06-14 10:56:55.061,39.795,-194.45999999999998,0.315,0.193736,-0.17177599999999998,-1.643584,3
2024-06-14 10:56:55.066,37.065,-208.985,3.15,0.17177599999999998,-0.175924,-1.735572,3
2024-06-14 10:56:55.070,34.230000000000004,-225.29500000000002,6.335,0.17324,-0.219356,-1.8334160000000002,3
2024-06-14 10:56:55.075,32.06,-243.14499999999998,10.465,0.158356,-0.266204,-1.9222320000000002,3
2024-06-14 10:56:55.080,29.4,-260.015,15.82,0.16421199999999997,-0.29401999999999995,-2.0437440000000002,3
2024-06-14 10:56:55.085,26.95,-279.79,21.77,0.194224,-0.34794400000000003,-2.070096,3
2024-06-14 10:56:55.090,27.299999999999997,-298.83000000000004,29.855,0.134688,-0.410164,-2.146712,3
2024-06-14 10:56:55.095,28.21,-321.72,38.15,0.105652,-0.422852,-2.1335360000000003,3
2024-06-14 10:56:55.099,28.0,-344.29499999999996,46.620000000000005,0.071004,-0.49214800000000003,-2.271884,3
2024-06-14 10:56:55.104,28.525,-370.65,55.370000000000005,0.097356,-0.532896,-2.3577719999999998,3
2024-06-14 10:56:55.109,28.315,-398.055,61.985,0.18031599999999998,-0.49946799999999997,-2.4931919999999996,3
2024-06-14 10:56:55.114,26.985,-426.65,66.22,0.24522,-0.479704,-2.8606559999999996,3
2024-06-14 10:56:55.119,19.915,-452.48,71.715,0.239852,-0.448716,-3.102704,3
2024-06-14 10:56:55.124,8.33,-479.115,73.675,0.266936,-0.395524,-3.26472,3
2024-06-14 10:56:55.128,5.705,-501.27,71.19,0.35916800000000004,-0.432124,-3.417464,3
2024-06-14 10:56:55.133,18.55,-512.925,70.73500000000001,0.367708,-0.5253319999999999,-3.46724,3
2024-06-14 10:56:55.138,32.865,-518.49,75.81,0.468236,-0.512644,-3.277408,4
2024-06-14 10:56:55.143,46.864999999999995,-518.07,81.025,0.382104,-0.388692,-3.111732,4
2024-06-14 10:56:55.148,52.43,-513.625,82.25,0.38966799999999996,-0.25839599999999996,-3.188836,4
2024-06-14 10:56:55.153,49.980000000000004,-505.89,79.415,0.216184,-0.28548000000000007,-3.041216,4
2024-06-14 10:56:55.157,46.864999999999995,-492.345,85.33000000000001,0.024156,-0.52094,-3.063176,4
2024-06-14 10:56:55.162,28.314999999999998,-483.595,92.12,-0.032208,-0.585356,-3.1778560000000002,4
2024-06-14 10:56:55.167,9.1,-484.645,99.12,-0.23643599999999998,-0.5909679999999999,-3.1073399999999998,4
2024-06-14 10:56:55.172,-7.875,-482.23,105.525,-0.5648599999999999,-0.593164,-2.621292,4
2024-06-14 10:56:55.177,-20.509999999999998,-468.44000000000005,109.62,-1.06872,-0.602924,-2.001776,4
2024-06-14 10:56:55.181,-26.564999999999998,-429.17,116.34,-1.434232,-0.883524,-1.260504,4
2024-06-14 10:56:55.186,-35.105000000000004,-368.40999999999997,131.14499999999998,-1.6226,-1.2112159999999998,-1.271484,4
2024-06-14 10:56:55.191,-21.91,-304.115,152.45999999999998,-1.525488,-1.266604,-1.417152,4
2024-06-14 10:56:55.196,-3.2199999999999998,-259.315,169.89,-1.2465959999999998,-1.134112,-1.539152,4
2024-06-14 10:56:55.201,23.38,-214.62,180.215,-1.162172,-0.8005639999999999,-1.5591599999999999,4
2024-06-14 10:56:55.206,49.945,-177.20499999999998,181.755,-0.9196359999999999,-0.548512,-1.400804,4
2024-06-14 10:56:55.210,46.655,-141.855,161.83999999999997,-1.108248,-0.40235600000000005,-1.0596919999999999,4
2024-06-14 10:56:55.215,38.254999999999995,-66.78,135.485,-1.737524,-0.448716,-1.041392,4
2024-06-14 10:56:55.220,22.295,2.9400000000000013,115.885,-1.9398,-0.33989199999999997,-0.811056,4
2024-06-14 10:56:55.225,-13.684999999999999,55.545,94.08000000000001,-1.86904,-0.013176,-1.052616,4
2024-06-14 10:56:55.230,-41.79,109.025,76.055,-1.5169479999999997,-0.0019520000000000006,-0.712236,4
2024-06-14 10:56:55.235,-67.025,118.78999999999999,58.905,-1.262944,-0.101016,-0.930128,4
2024-06-14 10:56:55.239,-86.87,131.91500000000002,42.980000000000004,-1.17486,-0.21911199999999997,-0.701012,4
2024-06-14 10:56:55.244,-97.02,139.195,29.085,-1.1772999999999998,-0.30109600000000003,-0.6500159999999999,4
2024-06-14 10:56:55.249,-98.14,147.63,17.64,-1.158024,-0.35014,-0.571448,4
2024-06-14 10:56:55.254,-90.30000000000001,155.85500000000002,8.855,-1.120448,-0.42309599999999997,-0.495564,4
2024-06-14 10:56:55.259,-75.25,163.02999999999997,2.625,-1.058472,-0.49898,-0.429928,4
2024-06-14 10:56:55.264,-55.37,170.41500000000002,-2.03,-1.01748,-0.547292,-0.401136,4
2024-06-14 10:56:55.268,-31.955,180.18,-6.300000000000001,-0.9840519999999999,-0.553392,-0.39137599999999995,4
2024-06-14 10:56:55.273,-7.35,192.08,-10.780000000000001,-0.95892,-0.5199640000000001,-0.399916,4
2024-06-14 10:56:55.278,16.450000000000003,205.03,-15.540000000000001,-0.912072,-0.46433199999999997,-0.409432,4
2024-06-14 10:56:55.283,37.555,218.505,-21.314999999999998,-0.861076,-0.39406,-0.438712,4
2024-06-14 10:56:55.288,53.445,232.75,-28.175,-0.8108119999999999,-0.311832,-0.483608,4
2024-06-14 10:56:55.293,63.595,246.22500000000002,-36.33,-0.76128,-0.223016,-0.53558,4
2024-06-14 10:56:55.297,68.81,259.805,-45.815,-0.712968,-0.13761600000000002,-0.580964,4
2024-06-14 10:56:55.302,69.58,272.545,-55.72,-0.6585559999999999,-0.071248,-0.6353759999999999,4
2024-06-14 10:56:55.307,67.23500000000001,284.725,-65.94,-0.605852,-0.016836,-0.68198,4
2024-06-14 10:56:55.312,62.370000000000005,297.01,-75.74000000000001,-0.548024,0.02196,-0.72956,4
2024-06-14 10:56:55.317,56.28,308.7,-84.91,-0.5063,0.04514,-0.766648,4
2024-06-14 10:56:55.322,49.28,320.18,-92.75,-0.462868,0.05612,-0.81374,4
2024-06-14 10:56:55.326,42.385000000000005,331.415,-99.225,-0.42065600000000003,0.057828,-0.8564399999999999,4
2024-06-14 10:56:55.331,36.19,341.70500000000004,-103.95,-0.369416,0.050996,-0.9057280000000001,4
2024-06-14 10:56:55.336,30.765,350.595,-107.275,-0.312076,0.03294,-0.9550160000000001,4
2024-06-14 10:56:55.341,26.005,357.665,-109.16499999999999,-0.25961599999999996,-0.00024400000000000116,-1.013576,4
2024-06-14 10:56:55.346,23.1,363.37,-109.19999999999999,-0.209108,-0.038064,-1.0645719999999999,4
2024-06-14 10:56:55.350,22.33,368.16499999999996,-107.31,-0.162748,-0.06466,-1.1163,4
2024-06-14 10:56:55.355,23.450000000000003,371.49,-103.25,-0.116632,-0.086864,-1.1746159999999999,4
2024-06-14 10:56:55.360,25.865000000000002,374.22,-97.755,-0.076128,-0.102236,-1.2260999999999997,4
2024-06-14 10:56:55.365,29.295,376.53,-91.07,-0.039772,-0.103456,-1.288076,4
2024-06-14 10:56:55.370,33.145,379.435,-83.755,-0.006832,-0.097356,-1.347124,4
2024-06-14 10:56:55.375,36.715,382.235,-76.125,0.02806,-0.083204,-1.4108079999999998,4
2024-06-14 10:56:55.379,39.865,385.105,-68.46,0.058072,-0.064904,-1.4823,4
2024-06-14 10:56:55.384,43.015,388.04499999999996,-61.215,0.088816,-0.034892,-1.557696,4
2024-06-14 10:56:55.389,45.745000000000005,391.02,-54.565,0.118096,0.0024400000000000003,-1.630896,4
2024-06-14 10:56:55.394,47.53,393.365,-48.79,0.143472,0.040748,-1.702144,4
2024-06-14 10:56:55.399,48.09,395.53499999999997,-44.379999999999995,0.165676,0.083204,-1.768024,4
2024-06-14 10:56:55.404,47.635000000000005,396.48,-41.195,0.195932,0.121268,-1.83854,4
2024-06-14 10:56:55.408,46.2,397.39,-39.480000000000004,0.229116,0.14884,-1.92028,4
2024-06-14 10:56:55.413,43.82,396.865,-38.99,0.27157200000000004,0.16226000000000002,-1.999336,4
2024-06-14 10:56:55.418,41.16,395.67499999999995,-39.83,0.315004,0.172264,-2.08376,4
2024-06-14 10:56:55.423,38.64,393.75,-41.615,0.369904,0.17153200000000002,-2.1720879999999996,4
2024-06-14 10:56:55.428,36.365,391.265,-44.45,0.424316,0.17348400000000003,-2.2521199999999997,4
2024-06-14 10:56:55.433,33.599999999999994,388.15,-48.44,0.47653199999999996,0.165188,-2.333616,4
2024-06-14 10:56:55.437,31.045,385.0,-53.2,0.523624,0.14639999999999997,-2.41438,4
2024-06-14 10:56:55.442,28.735,383.11,-58.625,0.56364,0.116144,-2.5022199999999994,4
2024-06-14 10:56:55.447,26.11,382.27,-64.47,0.601216,0.089792,-2.571028,4
2024-06-14 10:56:55.452,22.47,382.97,-70.21000000000001,0.639768,0.05245999999999999,-2.6474,4
2024-06-14 10:56:55.457,17.78,384.65,-75.11,0.674416,0.0009759999999999994,-2.7191359999999998,4
2024-06-14 10:56:55.462,13.16,386.925,-78.53999999999999,0.7278519999999999,-0.06709999999999999,-2.794288,4
2024-06-14 10:56:55.466,8.82,390.005,-79.555,0.81496,-0.14151999999999998,-2.873344,4
2024-06-14 10:56:55.471,5.6,393.155,-78.19,0.937936,-0.233508,-2.937516,4
2024-06-14 10:56:55.476,4.375,395.78,-74.235,1.096536,-0.33062,-2.9785079999999997,4
2024-06-14 10:56:55.481,6.23,397.67,-68.14500000000001,1.2605039999999998,-0.390888,-2.948496,4
2024-06-14 10:56:55.486,9.765,396.83000000000004,-60.585,1.396656,-0.446032,-2.9526440000000003,4
2024-06-14 10:56:55.490,12.285,395.22,-51.205,1.5786799999999999,-0.541924,-2.924584,4
2024-06-14 10:56:55.495,15.89,392.455,-39.515,1.79584,-0.5946279999999999,-2.884812,4
2024-06-14 10:56:55.500,20.055,386.05,-26.355,2.00568,-0.61854,-2.8067320000000002,4
2024-06-14 10:56:55.505,25.655,375.27,-13.334999999999999,2.2030760000000003,-0.630252,-2.705228,4
2024-06-14 10:56:55.510,31.080000000000002,360.67499999999995,-2.59,2.43756,-0.621224,-2.5668800000000003,4
2024-06-14 10:56:55.515,36.26,342.125,4.83,2.696688,-0.6021920000000001,-2.418284,4
2024-06-14 10:56:55.519,44.31,319.865,9.065000000000001,2.94752,-0.538508,-2.2435799999999997,4
2024-06-14 10:56:55.524,54.599999999999994,294.595,10.395,3.1744399999999997,-0.434076,-2.0461840000000002,4
2024-06-14 10:56:55.529,65.03,268.135,8.715,3.408924,-0.313296,-1.81048,4
2024-06-14 10:56:55.534,75.88,241.01,4.34,3.6590239999999996,-0.168604,-1.579412,4
2024-06-14 10:56:55.539,84.455,214.305,-2.695,3.92108,-0.006831999999999998,-1.3817719999999998,4
2024-06-14 10:56:55.544,85.82,186.025,-10.36,4.20656,0.17812,-1.2234159999999998,4
2024-06-14 10:56:55.548,80.00999999999999,155.61,-20.79,4.51278,0.360876,-1.087996,4
2024-06-14 10:56:55.553,67.025,120.155,-32.83,4.744824,0.5060560000000001,-1.00772,4
2024-06-14 10:56:55.558,51.31,81.515,-45.150000000000006,4.867068,0.5912120000000001,-0.976976,4
2024-06-14 10:56:55.563,35.175,38.605000000000004,-54.565,4.862919999999999,0.593408,-0.986248,4
2024-06-14 10:56:55.568,-61.809999999999995,-116.13,-62.510000000000005,5.682516,0.20691200000000004,-3.2879,4
