time,gyroscope_x,gyroscope_y,gyroscope_z,accelerometer_x,accelerometer_y,accelerometer_z,phase
2024-06-14 10:56:55.573,-135.975,-274.26,-83.37,6.941556,1.21756,-2.2813999999999997,1
2024-06-14 10:56:55.577,-211.365,-353.395,-81.235,5.026156,-0.12224399999999999,0.9567239999999999,1
2024-06-14 10:56:55.582,-189.91,-399.49,-52.5,3.237392,-0.12126800000000003,-0.737856,1
2024-06-14 10:56:55.587,-193.27,-365.575,-37.415,0.341112,0.15494,-0.9201239999999999,1
2024-06-14 10:56:55.592,-224.595,-347.55,-36.89,0.607072,0.5277719999999999,-1.9573679999999998,1
2024-06-14 10:56:55.597,-215.635,-333.445,-30.38,-0.328912,0.395524,-1.9707879999999998,1
2024-06-14 10:56:55.602,-171.78,-327.6,-21.805,-0.5267959999999999,0.512888,-2.012268,1
2024-06-14 10:56:55.606,-165.79500000000002,-342.055,-16.485,-0.17519200000000001,0.18153599999999998,-1.9644439999999999,1
2024-06-14 10:56:55.611,-154.84,-332.255,-18.725,0.180804,0.128344,-2.028372,1
2024-06-14 10:56:55.616,-124.10999999999999,-302.995,-21.384999999999998,0.478484,0.489708,-2.393396,1
2024-06-14 10:56:55.621,-104.055,-282.065,-13.16,0.6424519999999999,0.58316,-1.9961639999999998,1
2024-06-14 10:56:55.626,-78.155,-254.45,2.45,0.530456,0.6283000000000001,-2.281888,1
2024-06-14 10:56:55.631,-47.46,-228.69,8.155000000000001,0.296216,0.241072,-1.890024,1
2024-06-14 10:56:55.635,-41.265,-206.5,0.56,0.09662399999999999,-0.04636,-2.13012,1
2024-06-14 10:56:55.640,-23.380000000000003,-162.19,-6.51,0.214964,0.199348,-2.081076,1
2024-06-14 10:56:55.645,-26.18,-123.515,-3.465,0.21960000000000002,0.13176,-1.974448,1
2024-06-14 10:56:55.650,-20.93,-107.17,-4.27,0.22277199999999997,-0.022692000000000004,-1.632604,1
2024-06-14 10:56:55.655,-20.72,-82.46000000000001,-9.309999999999999,0.21228,-0.004148000000000002,-1.5962480000000001,1
2024-06-14 10:56:55.659,-15.68,-73.535,-12.075,0.08296,0.110776,-1.442772,1
2024-06-14 10:56:55.664,-9.065,-65.69500000000001,-15.295,0.07564,0.04172399999999998,-1.291736,1
2024-06-14 10:56:55.669,-7.56,-34.72,-11.305,0.13054,0.301584,-1.210728,2
2024-06-14 10:56:55.674,-7.805,-25.9,-2.8,0.047824,0.0065880000000000105,-0.99308,2
2024-06-14 10:56:55.679,-12.67,-24.185,-1.75,0.145424,0.115168,-0.9579439999999999,2
2024-06-14 10:56:55.684,-15.645,-18.375,1.155,0.11467999999999999,-0.005368000000000005,-0.937692,2
2024-06-14 10:56:55.688,-15.015,-15.995000000000001,2.1,0.049044000000000004,0.044408,-0.9855160000000001,2
2024-06-14 10:56:55.693,-16.905,-12.425,0.595,0.033916,0.03294,-1.0579839999999998,2
2024-06-14 10:56:55.698,-17.08,-10.885000000000002,-1.5399999999999998,0.021228,-0.0036599999999999996,-1.123132,2
2024-06-14 10:56:55.703,-17.675,-12.04,-1.855,0.082472,-0.010735999999999997,-1.147288,2
2024-06-14 10:56:55.708,-18.655,-13.125,-2.3449999999999998,0.09174399999999999,0.028547999999999997,-1.161928,2
2024-06-14 10:56:55.713,-15.75,-12.285,-3.185,0.08418,0.07808,-1.1409440000000002,2
2024-06-14 10:56:55.717,-11.025,-12.915,-2.52,0.04026,0.102724,-1.120936,2
2024-06-14 10:56:55.722,-6.404999999999999,-13.055,-1.82,0.015616,0.10247999999999999,-1.086776,2
2024-06-14 10:56:55.727,-1.365,-13.58,-1.19,0.010491999999999998,0.094672,-1.066524,2
2024-06-14 10:56:55.732,1.435,-13.545,-0.98,0.020252,0.07783599999999999,-1.05164,2
2024-06-14 10:56:55.737,3.29,-13.545,-1.12,0.026108,0.061975999999999996,-1.0548119999999999,2
2024-06-14 10:56:55.742,4.34,-14.594999999999999,-1.47,0.0068319999999999995,0.11468,-1.0614,2
2024-06-14 10:56:55.746,4.725,-16.8,-1.085,0.007808000000000001,0.054656,-1.060912,2
2024-06-14 10:56:55.751,5.705,-20.895000000000003,-0.7,-0.00122,0.07027199999999999,-1.0492,2
2024-06-14 10:56:55.756,6.895,-25.549999999999997,-0.455,0.0026839999999999998,0.073688,-1.0496880000000002,2
2024-06-14 10:56:55.761,7.77,-30.345,-1.085,0.034404,0.10418799999999999,-1.054812,2
2024-06-14 10:56:55.766,9.870000000000001,-30.975,-0.385,-0.02562,0.09174399999999999,-1.037,2
2024-06-14 10:56:55.771,10.115,-34.44,-1.26,0.0732,-0.047823999999999985,-0.9986919999999999,2
2024-06-14 10:56:55.775,11.27,-35.14,-0.385,0.021715999999999996,0.105652,-1.0340719999999999,2
2024-06-14 10:56:55.780,11.690000000000001,-35.0,-0.84,0.0009759999999999977,-0.050019999999999995,-1.023824,2
2024-06-14 10:56:55.785,13.51,-34.58,-0.7,0.027816,0.099064,-1.0352919999999999,2
2024-06-14 10:56:55.790,14.77,-34.545,-1.085,-0.043188000000000004,0.022448,-1.022116,2
2024-06-14 10:56:55.795,16.1,-33.425,-0.91,0.096868,0.104432,-1.0221159999999998,2
2024-06-14 10:56:55.800,17.045,-34.3,-0.98,0.026352,0.079788,-1.033584,2
2024-06-14 10:56:55.804,17.64,-33.81,-0.77,0.032696,0.11223999999999999,-0.99796,2
2024-06-14 10:56:55.809,17.045,-37.730000000000004,-1.0150000000000001,0.05977999999999999,0.04636,-1.04066,2
2024-06-14 10:56:55.814,16.38,-38.43,-0.735,0.011955999999999998,0.056852,-1.035292,2
2024-06-14 10:56:55.819,16.625,-40.004999999999995,-0.42000000000000004,0.21691599999999997,0.07905599999999999,-0.9694119999999999,2
2024-06-14 10:56:55.824,16.03,-42.315,-0.77,0.029768000000000003,0.057096,-1.053592,2
2024-06-14 10:56:55.828,16.38,-43.995000000000005,-0.455,-0.20837599999999998,0.008295999999999998,-1.1199599999999998,2
2024-06-14 10:56:55.833,15.469999999999999,-45.885,-0.9450000000000001,0.055875999999999995,0.0427,-1.061644,2
2024-06-14 10:56:55.838,15.05,-44.275,-0.42000000000000004,0.34940799999999994,0.041968,-0.904996,2
2024-06-14 10:56:55.843,12.915,-46.655,0.175,0.32330000000000003,0.0002439999999999977,-0.9940559999999998,2
2024-06-14 10:56:55.848,11.795,-51.03,-0.63,0.0026840000000000024,0.039284,-0.970388,2
2024-06-14 10:56:55.853,9.870000000000001,-48.894999999999996,0.45499999999999996,0.313296,0.010492000000000001,-0.898164,2
2024-06-14 10:56:55.857,7.665,-46.095,0.56,0.15030400000000002,0.074176,-0.9489160000000001,2
2024-06-14 10:56:55.862,7.56,-33.775000000000006,0.49,-0.066612,0.044896000000000005,-1.009672,2
2024-06-14 10:56:55.867,5.145,-43.82,0.8049999999999999,0.116144,0.05246000000000001,-0.9720960000000001,2
2024-06-14 10:56:55.872,3.955,-42.385000000000005,1.5750000000000002,0.257176,-0.003415999999999999,-0.9811239999999999,2
2024-06-14 10:56:55.877,1.645,-49.105000000000004,0.8049999999999999,0.05319199999999999,0.037088,-0.958432,2
2024-06-14 10:56:55.882,3.9899999999999998,-45.605,1.015,-0.09906400000000001,0.113948,-1.02358,2
2024-06-14 10:56:55.886,1.05,-38.01,1.19,0.17787599999999998,0.08247199999999999,-0.9333,2
2024-06-14 10:56:55.891,3.92,-41.72,1.155,0.111996,0.0427,-0.9877119999999999,2
2024-06-14 10:56:55.896,3.8850000000000002,-38.29,1.9249999999999998,-0.018543999999999998,0.009759999999999998,-1.055056,2
2024-06-14 10:56:55.901,3.01,-41.754999999999995,0.77,0.10467599999999999,0.018788,-1.002352,2
2024-06-14 10:56:55.906,3.395,-41.055,1.015,-0.056608000000000006,0.071492,-1.037488,2
2024-06-14 10:56:55.911,1.26,-38.08,0.77,0.100772,0.07344400000000001,-0.9647760000000001,2
2024-06-14 10:56:55.915,1.68,-41.055,1.0150000000000001,0.127124,0.047580000000000004,-0.9877119999999999,2
2024-06-14 10:56:55.920,2.9050000000000002,-38.36,1.68,0.23667999999999997,-0.009759999999999998,-1.02724,2
2024-06-14 10:56:55.925,2.1350000000000002,-39.900000000000006,0.805,0.124196,0.044896000000000005,-1.0021079999999998,2
2024-06-14 10:56:55.930,3.99,-38.465,1.015,0.17592399999999997,-0.015615999999999998,-1.0474919999999999,2
2024-06-14 10:56:55.935,2.975,-40.04,0.385,0.082472,0.060023999999999994,-1.029436,2
2024-06-14 10:56:55.940,2.835,-39.620000000000005,0.49,0.228872,0.056364,-0.94672,2
2024-06-14 10:56:55.944,1.855,-39.375,0.7350000000000001,0.238876,-0.016347999999999998,-1.009916,2
2024-06-14 10:56:55.949,1.085,-41.16,1.0150000000000001,0.12078,0.036844,-1.055544,2
2024-06-14 10:56:55.954,-0.875,-42.595,1.085,0.12346399999999999,0.021228,-0.9989359999999999,2
2024-06-14 10:56:55.959,-1.12,-43.155,1.12,0.140788,0.06709999999999999,-1.0592039999999998,2
2024-06-14 10:56:55.964,-1.365,-43.575,1.05,0.172752,0.0029280000000000018,-1.01992,2
2024-06-14 10:56:55.968,-3.71,-42.980000000000004,1.085,0.144936,0.040504,-1.011624,2
2024-06-14 10:56:55.973,-3.64,-42.805,1.575,0.13663999999999998,0.07002799999999999,-1.0262639999999998,2
2024-06-14 10:56:55.978,-4.9350000000000005,-44.485,1.4,0.18788,0.0366,-1.016748,2
2024-06-14 10:56:55.983,-3.7800000000000002,-43.75,0.8049999999999999,0.173728,0.059536,-1.012356,2
2024-06-14 10:56:55.988,0.03500000000000003,-45.465,0.49,0.17324,0.06124399999999999,-1.0189439999999998,2
2024-06-14 10:56:55.993,1.12,-45.08,0.35,0.1708,0.058072,-1.033096,2
2024-06-14 10:56:55.997,4.550000000000001,-45.185,0.0,0.18202400000000002,0.056852,-1.01504,2
2024-06-14 10:56:56.002,8.33,-44.31,0.49,0.17958400000000002,0.031964,-1.013576,2
2024-06-14 10:56:56.007,6.195,-43.47,0.315,0.19763999999999998,0.047336,-1.0067439999999999,2
2024-06-14 10:56:56.012,8.120000000000001,-43.504999999999995,0.385,0.18788,0.04026,-1.0579839999999998,2
2024-06-14 10:56:56.017,10.815,-44.31,0.595,0.164456,0.060512,-1.025288,2
2024-06-14 10:56:56.022,10.255,-44.87,-0.21,0.213744,0.034648,-1.056764,2
2024-06-14 10:56:56.026,13.265,-47.25,0.06999999999999999,0.137372,0.06466,-1.077748,2
2024-06-14 10:56:56.031,15.085,-50.47,-0.385,0.22887199999999996,0.033184,-1.1485079999999999,2
2024-06-14 10:56:56.036,18.27,-53.62,-0.42000000000000004,0.200568,0.013419999999999994,-1.200236,3
2024-06-14 10:56:56.041,20.509999999999998,-58.31,-0.385,0.18617199999999998,0.047335999999999996,-1.219024,3
2024-06-14 10:56:56.046,22.259999999999998,-62.72,-0.9099999999999999,0.18495199999999998,0.06831999999999999,-1.197552,3
2024-06-14 10:56:56.051,23.52,-64.54,-1.26,0.264984,0.026840000000000003,-1.2844159999999998,3
2024-06-14 10:56:56.055,24.395,-60.655,-1.7149999999999999,0.19641999999999998,0.121756,-1.2226839999999999,3
2024-06-14 10:56:56.060,28.805,-68.075,-2.31,0.167628,0.09906400000000001,-1.2263439999999999,3
2024-06-14 10:56:56.065,31.955,-75.005,-3.045,0.225456,0.103212,-1.316624,3
2024-06-14 10:56:56.070,35.769999999999996,-76.72,-3.4299999999999997,0.216672,0.08710799999999999,-1.299544,3
2024-06-14 10:56:56.075,38.57,-85.715,-5.285,0.24668400000000001,0.083692,-1.2587959999999998,3
2024-06-14 10:56:56.080,40.425,-93.8,-7.3149999999999995,0.226676,0.07588400000000001,-1.299056,3
2024-06-14 10:56:56.084,46.095,-100.83500000000001,-8.19,0.213256,0.066612,-1.323944,3
2024-06-14 10:56:56.089,50.715,-107.38,-8.96,0.243512,0.078324,-1.3973879999999999,3
2024-06-14 10:56:56.094,49.805,-112.595,-8.855,0.22813999999999998,0.056852,-1.512312,3
2024-06-14 10:56:56.099,55.09,-118.055,-9.379999999999999,0.229116,0.011224,-1.410564,3
2024-06-14 10:56:56.104,55.545,-129.115,-9.485,0.21960000000000002,-0.004392,-1.53354,3
2024-06-14 10:56:56.109,52.325,-141.26,-9.24,0.216184,-0.028303999999999996,-1.526708,3
2024-06-14 10:56:56.113,51.03,-154.07,-8.82,0.203496,-0.02684,-1.60918,3
2024-06-14 10:56:56.118,48.335,-166.91500000000002,-8.120000000000001,0.20691199999999998,-0.042212,-1.64456,3
2024-06-14 10:56:56.123,49.21,-181.51,-7.035,0.20178799999999997,-0.072224,-1.641388,3
2024-06-14 10:56:56.128,48.335,-195.44,-5.005,0.190076,-0.112484,-1.633824,3
2024-06-14 10:56:56.133,43.260000000000005,-212.83499999999998,-1.89,0.173484,-0.13761600000000002,-1.7333759999999998,3
2024-06-14 10:56:56.137,48.125,-223.195,1.0150000000000001,0.158844,-0.17641199999999999,-1.692384,3
2024-06-14 10:56:56.142,39.935,-245.91,3.815,0.156648,-0.20300800000000002,-1.948096,3
2024-06-14 10:56:56.147,42.56,-262.57,8.469999999999999,0.168116,-0.267424,-1.945656,3
2024-06-14 10:56:56.152,39.83,-281.71500000000003,13.719999999999999,0.171532,-0.2788919999999999,-2.1459799999999998,3
2024-06-14 10:56:56.157,41.685,-305.235,20.3,0.144936,-0.375516,-2.279692,3
2024-06-14 10:56:56.162,44.31,-330.855,28.035,0.077348,-0.41992399999999996,-2.317024,3
2024-06-14 10:56:56.166,51.065,-361.76,37.415,0.049775999999999994,-0.5460719999999999,-2.335324,3
2024-06-14 10:56:56.171,54.88,-391.86,48.58,0.059292,-0.663436,-2.649108,3
2024-06-14 10:56:56.176,62.019999999999996,-422.87,59.815,0.21032800000000001,-0.6446479999999999,-2.887984,3
2024-06-14 10:56:56.181,67.76,-449.645,67.2,0.30109600000000003,-0.432612,-3.217384,3
2024-06-14 10:56:56.186,66.39500000000001,-475.02,71.25999999999999,0.23863199999999998,-0.299388,-3.38916,3
2024-06-14 10:56:56.191,55.685,-501.79499999999996,70.35,0.197396,-0.16909200000000002,-3.451136,3
2024-06-14 10:56:56.195,51.45,-521.465,64.92500000000001,0.16958,-0.113948,-3.551908,3
2024-06-14 10:56:56.200,58.695,-529.41,62.58,0.23253200000000002,-0.099552,-3.335724,3
2024-06-14 10:56:56.205,68.67,-533.47,63.42,0.178364,-0.054655999999999996,-3.3481680000000003,3
2024-06-14 10:56:56.210,64.19,-529.2,63.525,0.160308,0.0046359999999999995,-3.013644,3
2024-06-14 10:56:56.215,53.865,-520.03,61.285,0.20495999999999998,0.0017080000000000012,-3.044632,3
2024-06-14 10:56:56.220,45.605000000000004,-513.31,62.265,0.108336,-0.20008,-3.1402799999999997,3
2024-06-14 10:56:56.224,27.895,-514.36,72.44999999999999,0.041236,-0.45530400000000004,-3.151504,3
2024-06-14 10:56:56.229,-6.6850000000000005,-526.05,76.50999999999999,-0.124684,-0.53314,-3.169072,4
2024-06-14 10:56:56.234,-24.605,-530.81,78.92500000000001,-0.50264,-0.582184,-2.796728,4
2024-06-14 10:56:56.239,-26.355,-519.33,83.93,-0.924028,-0.647088,-2.1977079999999996,4
2024-06-14 10:56:56.244,-20.195,-485.31,88.655,-1.249524,-0.8313079999999999,-1.6057639999999997,4
2024-06-14 10:56:56.249,-11.375,-440.93,96.565,-1.6228439999999997,-1.19194,-1.46888,4
2024-06-14 10:56:56.253,23.38,-378.03499999999997,120.435,-1.9307720000000002,-1.466196,-1.51402,4
2024-06-14 10:56:56.258,48.405,-310.065,148.505,-1.7680239999999998,-1.351272,-1.4015360000000001,4
2024-06-14 10:56:56.263,76.22999999999999,-249.2,167.54500000000002,-1.6177199999999998,-0.9882,-1.4661959999999998,4
2024-06-14 10:56:56.268,101.11500000000001,-189.735,180.775,-1.6933599999999998,-0.679052,-1.304424,4
2024-06-14 10:56:56.273,115.325,-141.96,184.38,-1.350296,-0.395768,-1.43716,4
2024-06-14 10:56:56.277,103.39,-89.285,160.79000000000002,-1.2038959999999999,-0.125172,-1.1199599999999998,4
2024-06-14 10:56:56.282,82.18,-24.815,125.16,-1.68726,-0.179828,-1.1812040000000001,4
2024-06-14 10:56:56.287,47.39,51.765,96.03999999999999,-1.9976280000000002,-0.19690799999999997,-0.9603839999999999,4
2024-06-14 10:56:56.292,-9.485,107.20500000000001,65.555,-2.04106,0.219844,-0.8693719999999999,4
2024-06-14 10:56:56.297,-49.769999999999996,158.235,51.765,-1.769244,0.38869200000000004,-1.070672,4
2024-06-14 10:56:56.302,-87.28999999999999,179.305,39.025,-1.3966560000000001,0.132004,-0.951112,4
2024-06-14 10:56:56.306,-122.045,195.79000000000002,28.805,-1.166076,-0.150548,-0.8940159999999999,4
2024-06-14 10:56:56.311,-144.655,205.17000000000002,13.72,-1.156072,-0.25351599999999996,-0.8866959999999999,4
2024-06-14 10:56:56.316,-154.245,215.11,5.845000000000001,-1.176568,-0.29645999999999995,-0.695888,4
2024-06-14 10:56:56.321,-150.07999999999998,224.385,4.27,-1.1419199999999998,-0.381372,-0.644648,4
2024-06-14 10:56:56.326,-135.765,231.98000000000002,7.14,-0.963312,-0.7476160000000001,-0.5934079999999999,4
2024-06-14 10:56:56.331,-113.4,240.02999999999997,4.97,-0.9506239999999999,-0.632204,-0.535092,4
2024-06-14 10:56:56.335,-87.535,246.995,8.785,-0.8813279999999999,-0.6746599999999999,-0.561688,4
2024-06-14 10:56:56.340,-55.685,257.74,13.23,-0.842288,-0.6744159999999999,-0.5285039999999999,4
2024-06-14 10:56:56.345,-23.275,269.15,17.675,-0.8051999999999999,-0.643428,-0.538752,4
2024-06-14 10:56:56.350,6.404999999999999,280.90999999999997,21.105,-0.750788,-0.565592,-0.569984,4
2024-06-14 10:56:56.355,31.5,292.145,22.96,-0.68198,-0.464576,-0.617076,4
2024-06-14 10:56:56.360,51.17,302.47,22.4,-0.625616,-0.34672400000000003,-0.678808,4
2024-06-14 10:56:56.364,64.75,312.13,19.11,-0.575108,-0.226676,-0.73444,4
2024-06-14 10:56:56.369,72.765,322.63,12.879999999999999,-0.534848,-0.11541200000000001,-0.788608,4
2024-06-14 10:56:56.374,75.005,332.85,4.165,-0.501908,-0.019032,-0.8381399999999999,4
2024-06-14 10:56:56.379,71.68,342.755,-6.44,-0.46384400000000003,0.05612,-0.88694,4
2024-06-14 10:56:56.384,64.715,352.20500000000004,-17.92,-0.431392,0.108336,-0.9384239999999999,4
2024-06-14 10:56:56.389,55.615,361.58500000000004,-29.400000000000002,-0.394792,0.13322399999999998,-0.991616,4
2024-06-14 10:56:56.393,45.78,369.88,-40.11,-0.35965600000000003,0.132736,-1.053836,4
2024-06-14 10:56:56.398,36.47,377.51,-49.735,-0.331596,0.105652,-1.103612,4
2024-06-14 10:56:56.403,29.015,384.405,-57.785,-0.295972,0.056608000000000006,-1.14924,4
2024-06-14 10:56:56.408,23.94,389.76,-63.595,-0.26766799999999996,-0.0019520000000000006,-1.199992,4
2024-06-14 10:56:56.413,22.19,394.695,-67.375,-0.235948,-0.06466,-1.253184,4
2024-06-14 10:56:56.418,24.115,398.93,-68.775,-0.199592,-0.11809599999999999,-1.308328,4
2024-06-14 10:56:56.422,29.225,402.325,-67.97,-0.16128399999999998,-0.17275200000000002,-1.37006,4
2024-06-14 10:56:56.427,37.239999999999995,404.985,-65.45,-0.12736799999999998,-0.215696,-1.43106,4
2024-06-14 10:56:56.432,47.53,407.82,-61.53,-0.093452,-0.24522,-1.5067,4
2024-06-14 10:56:56.437,59.045,411.03999999999996,-56.875,-0.054412,-0.25229599999999996,-1.5847799999999999,4
2024-06-14 10:56:56.442,70.07,414.78499999999997,-51.66,-0.015127999999999999,-0.22448,-1.675792,4
2024-06-14 10:56:56.446,79.555,418.6,-46.760000000000005,0.03172,-0.171532,-1.7697319999999999,4
2024-06-14 10:56:56.451,85.96000000000001,422.135,-42.7,0.089792,-0.102968,-1.8748960000000001,4
2024-06-14 10:56:56.456,88.86500000000001,424.935,-39.97,0.140056,-0.041724000000000004,-1.968348,4
2024-06-14 10:56:56.461,88.13,426.195,-38.99,0.18641599999999997,0.025376,-2.060092,4
2024-06-14 10:56:56.466,84.875,425.565,-39.655,0.237656,0.069052,-2.1501279999999996,4
2024-06-14 10:56:56.471,80.99000000000001,424.44500000000005,-41.545,0.290848,0.09174399999999999,-2.232844,4
2024-06-14 10:56:56.475,77.385,421.505,-44.099999999999994,0.351848,0.111508,-2.297748,4
2024-06-14 10:56:56.480,74.86500000000001,418.46,-47.11,0.398696,0.119316,-2.3704600000000005,4
2024-06-14 10:56:56.485,73.43,415.135,-50.085,0.454816,0.11638799999999999,-2.432436,4
2024-06-14 10:56:56.490,73.36000000000001,411.075,-52.78,0.508008,0.106872,-2.493436,4
2024-06-14 10:56:56.495,73.955,407.68,-55.055,0.562908,0.097356,-2.556632,4
2024-06-14 10:56:56.500,74.9,404.25,-56.945,0.628544,0.095404,-2.6205600000000002,4
2024-06-14 10:56:56.504,74.445,400.71500000000003,-58.66,0.700524,0.08832799999999999,-2.673508,4
2024-06-14 10:56:56.509,72.52000000000001,396.69,-59.92,0.767136,0.07930000000000001,-2.742316,4
2024-06-14 10:56:56.514,69.16,393.295,-61.004999999999995,0.8515599999999999,0.061,-2.806,4
2024-06-14 10:56:56.519,63.94499999999999,389.935,-61.53,0.937936,0.035379999999999995,-2.867488,4
2024-06-14 10:56:56.524,56.875,387.485,-61.075,1.0252879999999998,-0.0048800000000000015,-2.9162879999999998,4
2024-06-14 10:56:56.529,48.265,385.66499999999996,-59.325,1.1277679999999999,-0.063196,-2.966552,4
2024-06-14 10:56:56.533,40.11,384.44,-55.370000000000005,1.244644,-0.138592,-3.009252,4
2024-06-14 10:56:56.538,33.67,383.28499999999997,-49.42,1.3888479999999999,-0.221552,-3.0195,4
2024-06-14 10:56:56.543,30.135,381.64,-41.79,1.53842,-0.25986,-2.9760679999999997,4
2024-06-14 10:56:56.548,28.735,376.21500000000003,-34.16,1.7104399999999997,-0.31964000000000004,-2.989732,4
2024-06-14 10:56:56.553,27.09,369.03999999999996,-26.775,1.95078,-0.36844,-2.928,4
2024-06-14 10:56:56.558,27.79,357.56,-20.09,2.210884,-0.36844,-2.8579719999999997,4
2024-06-14 10:56:56.562,28.035,340.935,-15.504999999999999,2.469524,-0.361852,-2.699128,4
2024-06-14 10:56:56.567,29.89,320.565,-12.495,2.7103520000000003,-0.340136,-2.49734,4
2024-06-14 10:56:56.572,33.31999999999999,296.59000000000003,-11.55,2.897012,-0.27815999999999996,-2.281644,4
2024-06-14 10:56:56.577,37.625,269.605,-12.425,3.064396,-0.22082000000000002,-2.05936,4
2024-06-14 10:56:56.582,42.94499999999999,240.555,-14.14,3.277896,-0.17421599999999998,-1.863184,4
2024-06-14 10:56:56.586,51.975,214.62,-15.96,3.5294600000000003,-0.11589999999999999,-1.680672,4
2024-06-14 10:56:56.591,60.305,190.61,-17.85,3.7961519999999997,-0.026840000000000003,-1.505968,4
2024-06-14 10:56:56.596,63.21,166.705,-19.495,4.059428,0.066368,-1.3041800000000001,4
2024-06-14 10:56:56.601,62.65,143.01,-21.035,4.318068,0.159576,-1.152412,4
2024-06-14 10:56:56.606,60.9,116.095,-23.695,4.512779999999999,0.24839199999999997,-1.065792,4
2024-06-14 10:56:56.611,56.56,84.21000000000001,-26.845,4.643808,0.346724,-1.035292,4
2024-06-14 10:56:56.615,48.055,46.445,-31.080000000000002,4.656008,0.446276,-1.05408,4
2024-06-14 10:56:56.620,34.019999999999996,4.025,-35.980000000000004,4.547184000000001,0.521428,-1.080188,4
2024-06-14 10:56:56.625,15.89,-39.515,-42.63,4.3346599999999995,0.554368,-1.118496,4
2024-06-14 10:56:56.630,-3.57,-80.11500000000001,-50.19,4.048448,0.5133759999999999,-1.167784,4
2024-06-14 10:56:56.635,-20.23,-114.24000000000001,-57.364999999999995,3.743204,0.403576,-1.252696,4
2024-06-14 10:56:56.640,-32.095,-140.035,-63.245000000000005,3.44162,0.24546400000000002,-1.322724,4
2024-06-14 10:56:56.644,-37.275,-158.095,-66.43,3.1529679999999995,0.077348,-1.3778679999999999,4
2024-06-14 10:56:56.649,-196.49,-419.29999999999995,-85.92500000000001,2.106208,0.553148,-6.351564,4
