time,gyroscope_x,gyroscope_y,gyroscope_z,accelerometer_x,accelerometer_y,accelerometer_z,phase
2024-06-14 10:56:58.284,114.83500000000001,-497.35,-12.95,4.835591999999999,0.11565600000000001,-7.938784,1
2024-06-14 10:56:58.289,127.295,-314.86,-41.265,-2.836012,0.05977999999999983,3.1354,1
2024-06-14 10:56:58.293,177.97500000000002,-376.74,-11.620000000000001,0.34404,1.185108,-4.023804,1
2024-06-14 10:56:58.298,229.32,-329.385,9.345,-0.23277599999999998,0.2501,-1.6042999999999998,1
2024-06-14 10:56:58.303,192.885,-329.28,32.760000000000005,-0.468236,0.15006,-1.6250399999999998,1
2024-06-14 10:56:58.308,152.18,-322.56,58.275,0.038551999999999996,0.017324000000000003,-1.694092,1
2024-06-14 10:56:58.313,125.37,-314.825,76.195,0.1647,-0.045384,-1.696288,1
2024-06-14 10:56:58.318,80.605,-289.31,87.39500000000001,0.3233,-0.527528,-2.022272,1
2024-06-14 10:56:58.322,38.955,-265.475,90.195,0.513864,-0.41260399999999997,-1.748016,1
2024-06-14 10:56:58.327,-3.2200000000000006,-243.04000000000002,86.905,0.449448,-0.650504,-2.098644,1
2024-06-14 10:56:58.332,-25.479999999999997,-217.20999999999998,76.125,0.564616,-0.61122,-1.7575319999999999,1
2024-06-14 10:56:58.337,-15.82,-213.99,47.11,0.315004,-0.7754319999999999,-2.0025079999999997,1
2024-06-14 10:56:58.342,-17.465,-173.35500000000002,13.754999999999999,0.385032,-0.704672,-2.174528,1
2024-06-14 10:56:58.347,-5.075,-139.3,-6.79,0.19764,0.07588399999999995,-1.8573279999999999,1
2024-06-14 10:56:58.351,-0.3849999999999998,-122.78,-9.66,0.217648,0.26205599999999996,-1.675792,1
2024-06-14 10:56:58.356,-0.14000000000000012,-99.92500000000001,-5.775,0.117852,-0.021471999999999936,-2.02154,1
2024-06-14 10:56:58.361,-0.4199999999999997,-82.425,-1.7850000000000001,-0.010491999999999974,-0.190564,-1.725568,1
2024-06-14 10:56:58.366,2.59,-73.535,9.135000000000002,0.44456799999999996,0.509716,-1.457412,1
2024-06-14 10:56:58.371,1.995,-44.17,12.915,0.187392,-0.10491999999999999,-1.386164,1
2024-06-14 10:56:58.376,8.015,-34.019999999999996,11.375,0.264984,0.33354799999999996,-1.2261000000000002,1
2024-06-14 10:56:58.380,15.015,-28.945,7.455,0.138348,-0.030500000000000027,-1.2590400000000002,1
2024-06-14 10:56:58.385,20.23,-24.43,5.705,0.10613999999999997,0.19642,-0.992836,1
2024-06-14 10:56:58.390,17.64,-19.6,-1.68,0.033672,-0.165188,-1.0567639999999998,1
2024-06-14 10:56:58.395,17.535,-15.015,2.31,0.09491600000000001,0.156648,-0.93452,1
2024-06-14 10:56:58.400,15.190000000000001,-10.395,2.555,0.02659600000000001,-0.264984,-1.1040999999999999,1
2024-06-14 10:56:58.405,18.935000000000002,-7.56,4.62,0.11907200000000001,-0.12346399999999999,-1.075064,1
2024-06-14 10:56:58.409,19.32,-6.824999999999999,2.4850000000000003,0.04513999999999999,-0.05148399999999999,-1.0755519999999998,2
2024-06-14 10:56:58.414,23.1,-7.07,1.68,0.068808,-0.046848,-1.0494439999999998,2
2024-06-14 10:56:58.419,24.57,-5.25,2.2750000000000004,0.128344,0.138592,-1.0262639999999998,2
2024-06-14 10:56:58.424,20.055,-6.4399999999999995,-0.385,0.01098,-0.166652,-1.096292,2
2024-06-14 10:56:58.429,12.46,-7.875,-0.77,0.016836,-0.11712,-1.067988,2
2024-06-14 10:56:58.433,4.9,-10.850000000000001,-0.595,0.010735999999999999,-0.083204,-1.0748199999999999,2
2024-06-14 10:56:58.438,0.455,-14.42,-0.5599999999999999,0.020007999999999998,-0.07417599999999999,-1.092144,2
2024-06-14 10:56:58.443,-3.01,-17.43,-0.8400000000000001,0.01586,-0.080764,-1.079456,2
2024-06-14 10:56:58.448,-6.16,-20.509999999999998,-1.155,0.007319999999999999,-0.132248,-1.0701839999999998,2
2024-06-14 10:56:58.453,-8.925,-22.994999999999997,-0.7,0.041236,0.066856,-1.037976,2
2024-06-14 10:56:58.458,-11.27,-27.475,-0.77,-0.010492,-0.21106000000000003,-1.079212,2
2024-06-14 10:56:58.462,-14.49,-30.765,-1.1199999999999999,0.0029280000000000018,-0.060511999999999996,-1.0494439999999998,2
2024-06-14 10:56:58.467,-15.995000000000001,-32.76,-0.45499999999999996,0.024399999999999998,-0.122,-1.03944,2
2024-06-14 10:56:58.472,-18.305,-33.215,-0.63,-0.005856000000000001,-0.017568000000000014,-1.070916,2
2024-06-14 10:56:58.477,-19.95,-34.93,-0.665,0.015615999999999998,-0.050508,-1.0638400000000001,2
2024-06-14 10:56:58.482,-21.105,-38.709999999999994,-0.42,0.032452,-0.160796,-1.049688,2
2024-06-14 10:56:58.487,-22.225,-40.144999999999996,-0.45499999999999996,0.040504,0.00366,-1.0492,2
2024-06-14 10:56:58.491,-24.009999999999998,-43.505,0.06999999999999995,0.04392,-0.008295999999999998,-1.04676,2
2024-06-14 10:56:58.496,-25.025,-45.43,0.2450000000000001,0.039772,-0.039772,-1.036268,2
2024-06-14 10:56:58.501,-26.53,-45.395,-0.45500000000000007,0.042212,-0.095892,-1.019432,2
2024-06-14 10:56:58.506,-27.545,-45.36,-0.595,0.064416,-0.06856399999999999,-1.017236,2
2024-06-14 10:56:58.511,-27.755,-45.08,-0.105,0.058316,-0.063684,-1.024312,2
2024-06-14 10:56:58.516,-27.265,-41.894999999999996,0.17499999999999993,0.034892,-0.046116000000000004,-1.023336,2
2024-06-14 10:56:58.520,-27.02,-43.96,-0.385,0.051483999999999995,-0.034648,-1.0177239999999999,2
2024-06-14 10:56:58.525,-24.884999999999998,-45.150000000000006,-0.9099999999999999,-0.0017080000000000012,-0.039284,-1.0238239999999998,2
2024-06-14 10:56:58.530,-22.4,-44.94,-0.525,0.090524,-0.039771999999999995,-1.0045479999999998,2
2024-06-14 10:56:58.535,-20.545,-44.695,-0.42,0.14151999999999998,-0.023668,-0.9943,2
2024-06-14 10:56:58.540,-18.060000000000002,-46.095,-0.3500000000000001,0.029768,-0.023424,-0.987468,2
2024-06-14 10:56:58.545,-15.4,-44.94,-1.295,-0.008540000000000002,0.0029280000000000018,-1.014552,2
2024-06-14 10:56:58.549,-11.934999999999999,-44.275000000000006,-1.365,0.08418,-0.00366,-0.968436,2
2024-06-14 10:56:58.554,-8.785,-40.81,-1.8199999999999998,0.203984,0.0039039999999999995,-0.9245159999999999,2
2024-06-14 10:56:58.559,-5.145,-40.635,-1.645,0.079544,-0.009028,-0.958188,2
2024-06-14 10:56:58.564,-1.715,-36.96,-2.73,-0.122,-0.026840000000000003,-0.9999120000000001,2
2024-06-14 10:56:58.569,-0.14,-37.345,-2.52,0.121268,0.005123999999999999,-0.94672,2
2024-06-14 10:56:58.573,1.995,-34.615,-2.66,0.10125999999999999,-0.019276,-0.9447679999999999,2
2024-06-14 10:56:58.578,4.13,-32.025,-3.5,-0.135908,-0.00805199999999999,-1.037732,2
2024-06-14 10:56:58.583,6.965,-31.045,-2.87,0.133468,0.010248,-0.95404,2
2024-06-14 10:56:58.588,7.35,-28.630000000000003,-3.29,0.114192,-0.034404000000000004,-0.953064,2
2024-06-14 10:56:58.593,6.965,-27.79,-3.2199999999999998,0.11077599999999999,-0.040504,-0.960872,2
2024-06-14 10:56:58.598,5.705,-27.09,-3.01,0.119804,-0.046604,-0.9701439999999999,2
2024-06-14 10:56:58.602,4.27,-25.83,-2.66,0.11834,-0.05246000000000001,-0.9811239999999999,2
2024-06-14 10:56:58.607,2.87,-25.585,-2.625,0.12614799999999998,-0.045628,-0.985028,2
2024-06-14 10:56:58.612,1.6099999999999999,-25.655,-2.52,0.124196,-0.045628,-0.992104,2
2024-06-14 10:56:58.617,0.42,-26.845,-2.52,0.122488,-0.038552,-0.999912,2
2024-06-14 10:56:58.622,-0.035,-28.174999999999997,-2.38,0.121268,-0.032696,-1.0084520000000001,2
2024-06-14 10:56:58.627,-0.245,-29.82,-2.485,0.122488,-0.02928,-1.0084520000000001,2
2024-06-14 10:56:58.631,0.45499999999999996,-31.814999999999998,-2.625,0.12736799999999998,-0.025132,-1.009672,2
2024-06-14 10:56:58.636,0.245,-32.585,-3.57,0.016591999999999996,0.090036,-1.049932,2
2024-06-14 10:56:58.641,1.68,-31.08,-3.01,0.10760399999999999,-0.125172,-0.9962519999999999,2
2024-06-14 10:56:58.645,1.47,-34.44,-3.08,0.15250000000000002,-0.0427,-0.993812,2
2024-06-14 10:56:58.650,1.295,-33.845,-3.045,0.142496,-0.03318399999999999,-1.0091839999999999,2
2024-06-14 10:56:58.655,1.365,-34.51,-3.01,0.145424,-0.031476,-1.003816,3
2024-06-14 10:56:58.659,3.1500000000000004,-35.455,-2.66,0.149084,-0.036112,-1.014064,3
2024-06-14 10:56:58.664,5.8100000000000005,-33.95,-2.415,0.147376,-0.025132,-1.0187,3
2024-06-14 10:56:58.669,10.605,-17.5,-3.99,0.14395999999999998,-0.026352,-1.047492,3
2024-06-14 10:56:58.674,8.715,-32.585,-1.995,0.148596,-0.036356,-1.030412,3
2024-06-14 10:56:58.679,8.855,-36.120000000000005,-1.54,0.15176800000000001,-0.040748000000000006,-1.0438319999999999,3
2024-06-14 10:56:58.684,3.955,-38.99,-3.115,0.159332,-0.055875999999999995,-1.02724,3
2024-06-14 10:56:58.688,5.074999999999999,-40.25,-3.8499999999999996,0.1586,-0.025375999999999996,-1.058228,3
2024-06-14 10:56:58.693,2.275,-42.42,-3.325,0.10394400000000001,-0.015860000000000003,-1.088484,3
2024-06-14 10:56:58.698,1.75,-44.975,-1.8900000000000001,0.136884,-0.101992,-1.085556,3
2024-06-14 10:56:58.703,1.785,-49.84,-1.8900000000000001,0.17470400000000003,-0.044164,-1.0797,3
2024-06-14 10:56:58.708,1.19,-51.485,-2.31,0.17177599999999998,-0.037087999999999996,-1.1043439999999998,3
2024-06-14 10:56:58.713,5.845,-52.675,-1.68,0.17055599999999999,-0.048556,-1.098488,3
2024-06-14 10:56:58.717,7.279999999999999,-54.355000000000004,-0.595,0.22692,-0.053192,-1.080432,3
2024-06-14 10:56:58.722,-2.0300000000000002,-46.305,0.14,0.15884399999999999,-0.06344,-1.074332,3
2024-06-14 10:56:58.727,-1.8199999999999998,-46.375,0.24499999999999994,0.20496,-0.059536,-1.150704,3
2024-06-14 10:56:58.732,0.595,-42.665,1.5050000000000001,0.177388,-0.1159,-1.190232,3
2024-06-14 10:56:58.737,-4.585,-55.72,3.465,0.2257,-0.084424,-1.212192,3
2024-06-14 10:56:58.742,-1.19,-65.765,5.145,0.22960399999999997,-0.0793,-1.251964,3
2024-06-14 10:56:58.746,1.26,-71.785,6.125,0.159576,-0.05807199999999999,-1.246352,3
2024-06-14 10:56:58.751,-2.9049999999999994,-65.83500000000001,6.859999999999999,0.237168,0.004636,-1.47742,3
2024-06-14 10:56:58.756,-13.79,-75.03999999999999,6.895,0.217404,-0.10369999999999999,-1.1990159999999999,3
2024-06-14 10:56:58.761,-32.935,-88.34,8.225,0.193004,-0.08515600000000001,-1.2800239999999998,3
2024-06-14 10:56:58.766,-40.599999999999994,-92.12,9.100000000000001,0.212036,-0.105652,-1.3512719999999998,3
2024-06-14 10:56:58.771,-44.24,-94.78,10.255,0.22326,-0.116632,-1.3432199999999999,3
2024-06-14 10:56:58.776,-47.565,-98.455,11.48,0.231068,-0.11589999999999999,-1.3310199999999999,3
2024-06-14 10:56:58.780,-49.35,-104.58,12.67,0.226432,-0.10150400000000001,-1.33224,3
2024-06-14 10:56:58.785,-49.385000000000005,-111.16,13.79,0.203496,-0.07808,-1.3583479999999999,3
2024-06-14 10:56:58.790,-48.51,-116.06,14.7,0.25376,-0.071248,-1.3673760000000001,3
2024-06-14 10:56:58.795,-48.965,-121.80000000000001,15.015,0.227652,-0.051239999999999994,-1.346148,3
2024-06-14 10:56:58.800,-45.955,-131.88,14.7,0.22277200000000003,-0.006588,-1.3656679999999999,3
2024-06-14 10:56:58.805,-42.7,-141.54,14.594999999999999,0.23399599999999998,-0.018056,-1.4256919999999997,3
2024-06-14 10:56:58.809,-40.88,-151.69,14.280000000000001,0.235948,0.036112,-1.4488720000000002,3
2024-06-14 10:56:58.814,-39.06,-163.555,12.879999999999999,0.224236,0.040015999999999996,-1.46034,3
2024-06-14 10:56:58.819,-41.754999999999995,-173.70499999999998,11.305,0.22716399999999998,0.035624,-1.46644,3
2024-06-14 10:56:58.824,-39.55,-185.64,9.835,0.226676,0.065392,-1.47376,3
2024-06-14 10:56:58.829,-38.29,-197.32999999999998,7.945,0.21350000000000002,0.07417599999999999,-1.4947439999999999,3
2024-06-14 10:56:58.834,-38.255,-211.89,5.95,0.21472000000000002,0.072224,-1.5337839999999998,3
2024-06-14 10:56:58.838,-40.565,-224.63,3.465,0.221796,0.069784,-1.620892,3
2024-06-14 10:56:58.843,-39.445,-239.225,0.8400000000000001,0.228872,0.101992,-1.762168,3
2024-06-14 10:56:58.848,-40.285,-253.015,-2.205,0.227408,0.09759999999999999,-1.85806,3
2024-06-14 10:56:58.853,-42.28,-272.72,-5.285,0.270352,0.100528,-2.038376,3
2024-06-14 10:56:58.858,-41.93,-289.695,-9.03,0.24522,0.13663999999999998,-2.194536,3
2024-06-14 10:56:58.863,-42.07,-311.605,-12.25,0.21716000000000002,0.11419199999999999,-2.173064,3
2024-06-14 10:56:58.867,-45.115,-334.88,-14.665,0.14761999999999997,0.106628,-2.2240599999999997,3
2024-06-14 10:56:58.872,-45.22,-361.97,-17.045,0.157624,0.119316,-2.227964,3
2024-06-14 10:56:58.877,-45.709999999999994,-389.06,-19.494999999999997,0.17177599999999998,0.19154,-2.49856,3
2024-06-14 10:56:58.882,-52.815,-419.02,-21.805,0.202764,0.22643200000000002,-2.652768,3
2024-06-14 10:56:58.887,-56.769999999999996,-449.47,-24.5,0.227896,0.243512,-2.944836,3
2024-06-14 10:56:58.892,-52.29,-478.065,-26.215,0.30988,0.175924,-3.062932,3
2024-06-14 10:56:58.896,-49.735,-509.66999999999996,-25.305,0.27279200000000003,0.124196,-3.344264,3
2024-06-14 10:56:58.901,-53.235,-526.4,-24.745,0.410164,0.108824,-3.193472,3
2024-06-14 10:56:58.906,-59.92,-538.23,-19.810000000000002,0.49092800000000003,0.010980000000000002,-3.3794,3
2024-06-14 10:56:58.911,-70.84,-542.01,-15.225,0.5192319999999999,-0.074664,-3.2469080000000003,3
2024-06-14 10:56:58.916,-77.595,-539.315,-18.235,0.487512,-0.06539199999999999,-2.8618759999999996,3
2024-06-14 10:56:58.921,-66.465,-539.84,-19.985,0.44432400000000005,-0.23058,-2.883348,3
2024-06-14 10:56:58.925,-51.625,-534.8,-13.510000000000002,0.26108,-0.325252,-3.0692760000000003,3
2024-06-14 10:56:58.930,-54.32,-521.675,-15.75,0.210084,-0.030743999999999987,-3.117832,3
2024-06-14 10:56:58.935,-41.86,-523.3900000000001,-23.415,0.25717599999999996,0.207644,-3.126372,3
2024-06-14 10:56:58.940,-22.365000000000002,-523.355,-28.595,0.030988000000000005,0.294752,-3.07684,3
2024-06-14 10:56:58.945,-8.155,-515.8299999999999,-36.225,-0.37429599999999996,0.43798000000000004,-2.303604,3
2024-06-14 10:56:58.950,5.495,-490.84000000000003,-45.394999999999996,-1.013576,0.564372,-1.3293119999999998,3
2024-06-14 10:56:58.954,19.634999999999998,-441.66499999999996,-46.269999999999996,-1.529392,0.831796,-0.951356,3
2024-06-14 10:56:58.959,-5.04,-370.51,-55.894999999999996,-2.080832,1.223172,-1.272216,3
2024-06-14 10:56:58.964,-54.075,-290.57,-87.15,-1.859524,1.464488,-1.2587959999999998,3
2024-06-14 10:56:58.969,-85.645,-214.27,-121.66,-1.6826240000000001,1.20414,-1.456436,4
2024-06-14 10:56:58.974,-123.865,-126.7,-151.97,-2.079856,0.653432,-1.5464719999999998,4
2024-06-14 10:56:58.979,-136.64,-52.675,-172.13,-1.3929960000000001,0.266448,-1.198284,4
2024-06-14 10:56:58.984,-112.49000000000001,-12.67,-164.64,-1.0279719999999999,-0.054655999999999996,-1.044808,4
2024-06-14 10:56:58.988,-80.115,69.79,-147.945,-1.5389080000000002,-0.18812399999999999,-1.325164,4
2024-06-14 10:56:58.993,-33.075,135.485,-130.76,-1.95078,-0.29157999999999995,-1.251964,4
2024-06-14 10:56:58.998,16.1,179.79500000000002,-114.905,-1.862696,-0.411872,-1.173152,4
2024-06-14 10:56:59.003,58.975,206.745,-102.025,-1.48474,-0.409188,-1.095804,4
2024-06-14 10:56:59.008,96.18,215.775,-93.52,-1.164368,-0.266692,-1.048956,4
2024-06-14 10:56:59.013,126.45500000000001,214.445,-88.83,-1.04188,-0.080764,-1.0126,4
2024-06-14 10:56:59.017,145.565,212.625,-85.29499999999999,-1.0470039999999998,0.079056,-0.92354,4
2024-06-14 10:56:59.022,149.51999999999998,213.04500000000002,-81.75999999999999,-1.071892,0.22472399999999998,-0.7771399999999999,4
2024-06-14 10:56:59.027,140.175,214.9,-79.13499999999999,-1.056276,0.36258399999999996,-0.662704,4
2024-06-14 10:56:59.032,120.05,217.735,-78.295,-1.0065,0.475068,-0.609512,4
2024-06-14 10:56:59.037,90.825,222.11,-79.485,-0.9440359999999999,0.5475359999999999,-0.596824,4
2024-06-14 10:56:59.042,55.440000000000005,229.25,-81.9,-0.903288,0.564372,-0.5782800000000001,4
2024-06-14 10:56:59.046,18.165,240.17000000000002,-83.61500000000001,-0.8903559999999999,0.520208,-0.562908,4
2024-06-14 10:56:59.051,-16.38,253.82,-83.02000000000001,-0.8781559999999999,0.436272,-0.5624199999999999,4
2024-06-14 10:56:59.056,-45.36,269.115,-79.59,-0.8418000000000001,0.30743999999999994,-0.5860879999999999,4
2024-06-14 10:56:59.061,-67.16499999999999,284.655,-73.15,-0.7966599999999999,0.156648,-0.63806,4
2024-06-14 10:56:59.066,-80.955,299.005,-63.769999999999996,-0.740052,0.0019520000000000023,-0.697596,4
2024-06-14 10:56:59.071,-86.03,311.885,-51.8,-0.68198,-0.125904,-0.7503,4
2024-06-14 10:56:59.075,-83.86,322.49,-37.834999999999994,-0.624152,-0.232288,-0.793732,4
2024-06-14 10:56:59.080,-77.035,331.275,-23.134999999999998,-0.564128,-0.29621600000000003,-0.8361879999999999,4
2024-06-14 10:56:59.085,-68.215,338.38,-8.19,-0.501908,-0.32744799999999996,-0.879132,4
2024-06-14 10:56:59.090,-59.045,343.7,5.775,-0.447496,-0.32452,-0.9176839999999999,4
2024-06-14 10:56:59.095,-51.03,347.16499999999996,18.13,-0.403088,-0.301584,-0.9550159999999999,4
2024-06-14 10:56:59.100,-45.394999999999996,349.405,28.525,-0.36770800000000003,-0.260592,-0.99186,4
2024-06-14 10:56:59.104,-42.7,351.155,36.785,-0.347456,-0.215208,-1.029924,4
2024-06-14 10:56:59.109,-42.769999999999996,353.01,42.455,-0.33574399999999993,-0.168116,-1.071648,4
2024-06-14 10:56:59.114,-45.010000000000005,355.67,45.989999999999995,-0.324276,-0.13176,-1.1211799999999998,4
2024-06-14 10:56:59.119,-48.894999999999996,359.31,47.285,-0.31646799999999997,-0.098576,-1.176324,4
2024-06-14 10:56:59.124,-54.425,364.55999999999995,46.480000000000004,-0.303048,-0.074664,-1.247816,4
2024-06-14 10:56:59.129,-60.935,370.405,43.61,-0.289628,-0.062464,-1.330776,4
2024-06-14 10:56:59.133,-67.235,376.775,39.129999999999995,-0.26937599999999995,-0.060511999999999996,-1.41764,4
2024-06-14 10:56:59.138,-73.255,383.6,33.39,-0.235704,-0.076616,-1.4945,4
2024-06-14 10:56:59.143,-78.68,390.25,27.055,-0.195932,-0.105164,-1.587952,4
2024-06-14 10:56:59.148,-82.285,396.725,20.545,-0.144936,-0.13395599999999996,-1.67628,4
2024-06-14 10:56:59.153,-83.965,402.745,14.07,-0.089548,-0.164456,-1.7602159999999998,4
2024-06-14 10:56:59.158,-84.455,408.31,8.12,-0.022936,-0.201544,-1.8426879999999999,4
2024-06-14 10:56:59.162,-83.86,412.86,3.045,0.047091999999999995,-0.238388,-1.92882,4
2024-06-14 10:56:59.167,-81.34,415.975,-0.56,0.11882799999999999,-0.288652,-2.010072,4
2024-06-14 10:56:59.172,-77.7,417.34000000000003,-1.9249999999999998,0.190808,-0.33476799999999995,-2.098644,4
2024-06-14 10:56:59.177,-72.275,416.99,-0.63,0.25864,-0.396988,-2.1813599999999997,4
2024-06-14 10:56:59.182,-64.53999999999999,415.275,3.8499999999999996,0.33086400000000005,-0.45066799999999996,-2.268224,4
2024-06-14 10:56:59.187,-55.125,412.265,11.725000000000001,0.39161999999999997,-0.491172,-2.3546,4
2024-06-14 10:56:59.193,-44.239999999999995,408.38,22.645000000000003,0.438224,-0.49214800000000003,-2.4431719999999997,4
2024-06-14 10:56:59.197,-32.83,404.39,35.56,0.488,-0.46189199999999997,-2.523692,4
2024-06-14 10:56:59.202,-22.505000000000003,400.53999999999996,49.07,0.539972,-0.406504,-2.59372,4
2024-06-14 10:56:59.207,-13.895,397.355,62.19499999999999,0.5873079999999999,-0.32330000000000003,-2.66814,4
2024-06-14 10:56:59.212,-7.5600000000000005,394.38,74.27,0.646844,-0.220576,-2.7459759999999998,4
2024-06-14 10:56:59.217,-3.36,392.35,84.69999999999999,0.720532,-0.11004399999999999,-2.8140519999999998,4
2024-06-14 10:56:59.221,-1.645,390.70500000000004,93.31,0.8088599999999999,0.0031719999999999995,-2.87188,4
2024-06-14 10:56:59.226,-1.855,389.095,99.785,0.9154880000000001,0.12126800000000001,-2.90116,4
2024-06-14 10:56:59.231,-4.515,387.24,103.705,1.01626,0.23643599999999998,-2.932392,4
2024-06-14 10:56:59.236,-11.83,385.42,104.33500000000001,1.126304,0.34696799999999994,-2.988024,4
2024-06-14 10:56:59.241,-19.634999999999998,384.02,101.43,1.2700200000000001,0.442372,-3.023892,4
2024-06-14 10:56:59.246,-22.119999999999997,382.235,95.9,1.446432,0.519476,-3.041216,4
2024-06-14 10:56:59.250,-17.71,379.575,89.005,1.646512,0.570472,-3.022672,4
2024-06-14 10:56:59.255,-8.015,374.745,81.795,1.861964,0.630496,-2.957036,4
2024-06-14 10:56:59.260,2.835,367.18499999999995,74.935,2.0732679999999997,0.693936,-2.8408919999999998,4
2024-06-14 10:56:59.265,10.36,356.09000000000003,68.66999999999999,2.270908,0.7681119999999999,-2.677412,4
2024-06-14 10:56:59.270,10.29,341.775,62.790000000000006,2.4583,0.84302,-2.49612,4
2024-06-14 10:56:59.275,0.07000000000000006,323.61,57.295,2.626904,0.90524,-2.295552,4
2024-06-14 10:56:59.279,-20.16,300.15999999999997,49.84,2.7679359999999997,0.925248,-2.06058,4
2024-06-14 10:56:59.284,-45.605000000000004,270.48,42.21,2.920924,0.9799039999999999,-1.828048,4
2024-06-14 10:56:59.289,-79.905,243.565,31.5,3.255692,1.0445639999999998,-1.5999079999999999,4
2024-06-14 10:56:59.294,-120.4,221.02499999999998,20.755,3.60632,1.098976,-1.419104,4
2024-06-14 10:56:59.299,-156.24,196.945,-1.5400000000000005,4.01624,0.831796,-1.271728,4
2024-06-14 10:56:59.304,-183.08499999999998,171.64,-24.08,4.273904,0.560224,-1.136552,4
2024-06-14 10:56:59.308,-197.85500000000002,145.495,-40.25,4.494724,0.153964,-1.0055239999999999,4
2024-06-14 10:56:59.313,-198.38,116.27000000000001,-53.41,4.591836,-0.23546,-0.94306,4
2024-06-14 10:56:59.318,-181.825,81.725,-60.2,4.569876000000001,-0.610732,-0.9420839999999999,4
2024-06-14 10:56:59.323,-147.665,40.915,-61.985,4.443728,-0.9272,-0.9530639999999999,4
2024-06-14 10:56:59.328,-96.25,-4.654999999999999,-59.675,4.176792,-1.101904,-0.95892,4
2024-06-14 10:56:59.333,-33.845,-49.875,-54.46,3.814452,-1.132404,-0.9767319999999999,4
2024-06-14 10:56:59.337,29.89,-88.97,-47.6,3.420636,-0.98576,-0.9842959999999998,4
2024-06-14 10:56:59.342,85.19,-120.54,-41.019999999999996,3.050732,-0.671244,-1.050664,4
2024-06-14 10:56:59.347,129.64,-154.875,-37.519999999999996,2.96216,-0.04416399999999998,-0.549488,0
