time,gyroscope_x,gyroscope_y,gyroscope_z,accelerometer_x,accelerometer_y,accelerometer_z,phase
2024-06-14 12:23:32.287,118.16,-462.42,-120.19,4.430064000000001,-0.760792,-5.844288,1
2024-06-14 12:23:32.291,193.69,-56.49,-122.92,-3.535072,1.803648,2.97924,1
2024-06-14 12:23:32.296,310.31,-253.47,-124.67,-0.052216,-0.26156799999999997,-1.4161759999999999,1
2024-06-14 12:23:32.301,361.41,-281.61,-121.66,-2.114016,0.218136,-1.252208,1
2024-06-14 12:23:32.306,393.26,-311.01,-98.7,-0.40211199999999997,0.5192319999999999,-1.709952,1
2024-06-14 12:23:32.311,358.47,-334.53,-67.76,0.25668799999999997,0.5246000000000001,-2.331176,1
2024-06-14 12:23:32.316,268.1,-338.52,-24.99,0.537288,0.198616,-2.682048,1
2024-06-14 12:23:32.320,151.27,-331.66,17.64,0.574864,-0.14688800000000002,-2.689856,1
2024-06-14 12:23:32.325,61.88,-316.82,53.97,0.448472,0.010248,-2.294088,2
2024-06-14 12:23:32.330,6.37,-301.7,73.01,0.26108,-0.24156,-2.4082799999999995,2
2024-06-14 12:23:32.335,-9.24,-267.33,61.25,0.186904,-0.7461519999999999,-2.2330879999999995,2
2024-06-14 12:23:32.340,0.56,-233.52,24.57,0.154208,-0.820816,-2.2701759999999997,2
2024-06-14 12:23:32.344,9.31,-214.48,-11.48,0.08247199999999999,-0.5533919999999999,-1.9437039999999999,2
2024-06-14 12:23:32.349,7.91,-190.26,-33.25,0.062952,-0.23277599999999998,-1.81292,2
2024-06-14 12:23:32.354,-2.17,-170.45,-36.05,0.088328,0.117608,-1.5533039999999998,2
2024-06-14 12:23:32.359,-7.84,-154.7,-19.74,0.095648,0.38600799999999996,-1.538176,2
2024-06-14 12:23:32.364,-12.81,-139.93,3.78,0.054168,0.386984,-1.404952,2
2024-06-14 12:23:32.369,-3.5,-118.37,22.89,0.06588,0.235216,-1.401048,2
2024-06-14 12:23:32.373,4.13,-101.5,27.72,0.033184,0.047335999999999996,-1.253184,2
2024-06-14 12:23:32.378,8.19,-85.12,22.05,0.05368,-0.08637600000000001,-1.249768,2
2024-06-14 12:23:32.383,8.68,-69.51,13.51,0.07808,-0.10492,-1.254648,2
2024-06-14 12:23:32.388,7.7,-52.36,6.02,0.069296,0.0068319999999999995,-1.20292,2
2024-06-14 12:23:32.393,8.4,-37.59,5.88,0.111264,0.10492,-1.1848640000000001,2
2024-06-14 12:23:32.398,11.27,-31.36,9.1,0.122976,0.12688,-1.16876,2
2024-06-14 12:23:32.402,13.44,-25.97,11.9,0.08491199999999999,0.06344,-1.153144,2
2024-06-14 12:23:32.407,15.12,-22.12,10.29,0.02684,-0.012688,-1.109712,2
2024-06-14 12:23:32.412,14.28,-18.41,5.18,0.031232,-0.01952,-1.094096,2
2024-06-14 12:23:32.417,12.67,-16.03,0.56,0.038064,-0.022448,-1.104344,2
2024-06-14 12:23:32.422,10.01,-14.14,-1.05,0.030256,0.017567999999999997,-1.093608,2
2024-06-14 12:23:32.426,7.91,-13.3,-0.28,0.00732,0.035135999999999994,-1.077016,2
2024-06-14 12:23:32.431,7.14,-11.97,0.14,-0.016592,0.033184,-1.0574959999999998,2
2024-06-14 12:23:32.436,7.35,-11.69,-1.19,-0.032208,0.023424,-1.0560319999999999,2
2024-06-14 12:23:32.441,7.07,-12.25,-2.45,-0.028791999999999998,0.009272,-1.068232,2
2024-06-14 12:23:32.446,5.67,-13.16,-2.59,-0.026352,0.014152,-1.070184,2
2024-06-14 12:23:32.451,3.92,-14.56,-2.8,-0.032208,0.020007999999999998,-1.063352,2
2024-06-14 12:23:32.455,2.94,-16.87,-3.08,-0.048799999999999996,0.014152,-1.0579839999999998,2
2024-06-14 12:23:32.460,2.17,-18.83,-3.15,-0.023912,0.025864,-1.047248,2
2024-06-14 12:23:32.465,1.61,-20.72,-4.13,-0.038552,0.009272,-1.0555439999999998,2
2024-06-14 12:23:32.470,0.42,-22.4,-3.15,0.008296,0.027327999999999998,-1.039928,2
2024-06-14 12:23:32.475,-0.84,-23.73,-3.99,-0.050752,-0.0034159999999999998,-1.055056,2
2024-06-14 12:23:32.480,-2.38,-24.99,-3.71,-0.028791999999999998,0.016592,-1.0438319999999999,2
2024-06-14 12:23:32.484,-2.66,-26.53,-3.29,-0.0068319999999999995,0.005368,-1.031632,2
2024-06-14 12:23:32.489,-4.13,-27.72,-3.92,-0.07173600000000001,0.006344,-1.062864,2
2024-06-14 12:23:32.494,-4.62,-29.75,-3.71,-0.020984,0.02684,-1.0365119999999999,2
2024-06-14 12:23:32.499,-4.13,-31.99,-3.15,0.072712,0.038552,-1.003816,2
2024-06-14 12:23:32.504,-3.85,-34.65,-3.85,-0.043432000000000005,-0.008296,-1.057008,2
2024-06-14 12:23:32.508,-3.92,-37.03,-3.85,-0.110776,-0.00732,-1.080432,2
2024-06-14 12:23:32.513,-4.48,-36.33,-4.27,-0.11663199999999999,0.006344,-1.0735999999999999,2
2024-06-14 12:23:32.518,-3.57,-41.37,-4.34,-0.125904,0.008296,-1.074088,2
2024-06-14 12:23:32.523,-3.43,-42.77,-4.34,-0.102968,-0.007808,-1.072624,2
2024-06-14 12:23:32.528,-10.57,-31.71,-4.48,-0.020496,-0.003904,-1.042368,2
2024-06-14 12:23:32.533,-3.43,-46.97,-2.87,0.048799999999999996,0.022936,-1.0262639999999998,2
2024-06-14 12:23:32.537,-1.33,1.89,-5.46,0.081496,0.032695999999999996,-0.97844,2
2024-06-14 12:23:32.542,-8.82,-59.78,-4.06,0.07027199999999999,0.06783199999999999,-0.9911279999999999,2
2024-06-14 12:23:32.547,5.18,-72.73,-6.93,-0.025864,0.07466400000000001,-1.0140639999999999,2
2024-06-14 12:23:32.552,-2.38,-79.31,-10.15,-0.084424,0.03904,-1.048712,2
2024-06-14 12:23:32.557,4.27,-75.53,-7.35,-0.03172,0.016592,-1.045296,2
2024-06-14 12:23:32.562,1.96,-68.6,-4.62,0.048312,0.012688,-1.020408,2
2024-06-14 12:23:32.566,3.15,-62.86,-5.46,0.094184,0.026352,-0.9964959999999999,2
2024-06-14 12:23:32.571,4.13,-57.05,-7.42,0.07808,0.040504,-0.9901519999999999,2
2024-06-14 12:23:32.576,2.87,-52.78,-6.93,0.043432000000000005,0.044896,-0.999424,2
2024-06-14 12:23:32.581,4.97,-47.95,-4.9,0.017567999999999997,0.044408,-1.013576,2
2024-06-14 12:23:32.586,3.43,-44.73,-5.25,0.011224,0.038552,-1.021872,2
2024-06-14 12:23:32.590,5.95,-40.81,-6.79,0.024399999999999998,0.038552,-1.0238239999999998,2
2024-06-14 12:23:32.595,4.41,-38.15,-7.21,0.030256,0.0366,-1.0238239999999998,2
2024-06-14 12:23:32.600,5.39,-36.61,-5.74,0.039528,0.028304,-1.0238239999999998,2
2024-06-14 12:23:32.605,4.62,-35.0,-5.53,0.059048,0.027816,-1.016992,2
2024-06-14 12:23:32.610,5.32,-33.95,-6.72,0.07076,0.022448,-1.0140639999999999,2
2024-06-14 12:23:32.615,5.74,-33.53,-7.7,0.057095999999999994,0.025864,-1.025288,2
2024-06-14 12:23:32.619,6.09,-33.95,-7.14,0.05856,0.031232,-1.0238239999999998,2
2024-06-14 12:23:32.624,6.79,-34.16,-6.86,0.060512,0.023424,-1.032608,2
2024-06-14 12:23:32.629,7.0,-35.21,-7.56,0.06588,0.018544,-1.0238239999999998,2
2024-06-14 12:23:32.634,6.79,-36.47,-8.47,0.07564,0.021472,-1.031632,2
2024-06-14 12:23:32.639,6.16,-37.52,-8.33,0.076616,0.015128,-1.0379759999999998,2
2024-06-14 12:23:32.644,6.09,-39.06,-8.05,0.08539999999999999,0.011712,-1.04432,2
2024-06-14 12:23:32.648,5.39,-42.49,-8.19,0.075152,0.028791999999999998,-1.0589600000000001,2
2024-06-14 12:23:32.653,7.07,-45.71,-8.82,0.076128,0.030256,-1.082872,2
2024-06-14 12:23:32.658,11.83,-49.14,-8.68,0.08247199999999999,0.01952,-1.082384,2
2024-06-14 12:23:32.663,12.95,-56.14,-8.47,0.068808,0.039528,-1.101904,2
2024-06-14 12:23:32.668,14.42,-59.64,-8.54,0.081496,0.028304,-1.098,2
2024-06-14 12:23:32.672,13.58,-63.7,-9.52,0.091256,0.02684,-1.134112,2
2024-06-14 12:23:32.677,16.59,-66.36,-8.96,0.09516,0.023912,-1.1619279999999998,2
2024-06-14 12:23:32.682,12.88,-70.84,-8.82,0.111264,0.013663999999999999,-1.141432,2
2024-06-14 12:23:32.687,-1.54,-77.28,-10.36,0.106872,0.036112000000000005,-1.273192,2
2024-06-14 12:23:32.692,-7.14,-84.14,-11.13,0.105896,0.0034159999999999998,-1.217072,2
2024-06-14 12:23:32.697,-8.19,-88.83,-11.06,0.118096,0.033184,-1.187792,2
2024-06-14 12:23:32.701,-10.08,-94.43,-10.43,0.10931199999999999,0.01464,-1.2444,2
2024-06-14 12:23:32.706,-16.1,-102.76,-11.2,0.13663999999999998,-0.022448,-1.269288,2
2024-06-14 12:23:32.711,-19.25,-110.74,-12.32,0.133712,0.050263999999999996,-1.23464,2
2024-06-14 12:23:32.716,-20.72,-117.67,-11.97,0.1464,0.011224,-1.326872,2
2024-06-14 12:23:32.721,-18.97,-107.73,-11.13,0.14152,0.049775999999999994,-1.354688,2
2024-06-14 12:23:32.726,-23.94,-119.7,-11.48,0.13810399999999998,0.00488,-1.316136,2
2024-06-14 12:23:32.730,-26.32,-125.3,-11.48,0.13712799999999997,0.040504,-1.347856,2
2024-06-14 12:23:32.735,-30.38,-132.93,-12.53,0.136152,0.00732,-1.386896,2
2024-06-14 12:23:32.740,-32.27,-140.14,-12.88,0.12980799999999998,0.040992,-1.4278879999999998,2
2024-06-14 12:23:32.745,-35.35,-147.56,-13.58,0.142984,0.022448,-1.4352079999999998,2
2024-06-14 12:23:32.750,-34.3,-156.31,-13.44,0.149816,0.015128,-1.430816,2
2024-06-14 12:23:32.754,-32.34,-167.86,-13.3,0.13956799999999997,0.020496,-1.51036,2
2024-06-14 12:23:32.759,-34.02,-181.16,-14.77,0.157624,0.071248,-1.5142639999999998,2
2024-06-14 12:23:32.764,-35.49,-194.6,-16.03,0.14688800000000002,0.022448,-1.489864,2
2024-06-14 12:23:32.769,-36.19,-206.5,-16.87,0.14591200000000001,0.0366,-1.5176800000000001,3
2024-06-14 12:23:32.774,-34.3,-218.61,-17.99,0.147864,0.051728,-1.531344,3
2024-06-14 12:23:32.779,-32.55,-232.33,-19.32,0.142984,0.057095999999999994,-1.546472,3
2024-06-14 12:23:32.783,-30.1,-247.94,-20.58,0.126392,0.098088,-1.6030799999999998,3
2024-06-14 12:23:32.788,-30.03,-266.28,-22.4,0.127856,0.081984,-1.648464,3
2024-06-14 12:23:32.793,-31.36,-285.6,-24.78,0.11419199999999999,0.12688,-1.7587519999999999,3
2024-06-14 12:23:32.798,-29.47,-306.53,-27.86,0.122976,0.16006399999999998,-1.880264,3
2024-06-14 12:23:32.803,-25.62,-326.13,-30.87,0.130296,0.209352,-1.92272,3
2024-06-14 12:23:32.808,-27.93,-344.54,-34.65,0.08295999999999999,0.290848,-2.011048,3
2024-06-14 12:23:32.812,-32.48,-373.8,-41.16,0.08247199999999999,0.26156799999999997,-2.02764,3
2024-06-14 12:23:32.817,-38.15,-409.36,-47.6,0.07564,0.335744,-2.186728,3
2024-06-14 12:23:32.822,-37.87,-435.82,-53.55,0.199592,0.19178399999999998,-2.455128,3
2024-06-14 12:23:32.827,-38.01,-465.99,-54.53,0.17616800000000002,0.14054399999999997,-2.78892,3
2024-06-14 12:23:32.832,-32.27,-495.88,-53.55,0.162016,0.208376,-2.994856,3
2024-06-14 12:23:32.836,-33.11,-515.48,-51.31,0.33476799999999995,0.267424,-3.2666720000000002,3
2024-06-14 12:23:32.841,-34.51,-521.01,-47.25,0.559248,0.274744,-3.741984,3
2024-06-14 12:23:32.846,-26.18,-532.35,-47.53,0.508496,0.053192,-3.6087599999999997,3
2024-06-14 12:23:32.851,-36.47,-540.68,-42.7,0.195688,0.36112,-3.826408,3
2024-06-14 12:23:32.856,-49.91,-550.34,-45.36,0.131272,0.39332799999999996,-3.836656,3
2024-06-14 12:23:32.861,-48.65,-556.29,-51.66,0.238144,0.046848,-3.737104,3
2024-06-14 12:23:32.865,-1.12,-560.84,-49.91,0.17860800000000002,-0.150792,-3.768824,3
2024-06-14 12:23:32.870,17.29,-582.26,-44.03,0.005368,0.316224,-3.678544,3
2024-06-14 12:23:32.875,16.73,-590.24,-43.12,-0.255224,0.707112,-3.436496,3
2024-06-14 12:23:32.880,4.13,-589.33,-50.75,-0.406992,0.759816,-3.2803359999999997,3
2024-06-14 12:23:32.885,3.15,-578.69,-56.56,-0.6822239999999999,0.764208,-3.0480479999999996,3
2024-06-14 12:23:32.890,-14.21,-564.97,-69.44,-0.73444,0.61244,-2.345328,3
2024-06-14 12:23:32.894,-19.32,-526.54,-77.63,-1.715808,1.273192,-1.578192,3
2024-06-14 12:23:32.899,-20.93,-470.47,-89.46,-1.6108879999999999,1.045296,-1.6718879999999998,3
2024-06-14 12:23:32.904,-16.1,-450.73,-104.51,-1.536224,1.348344,-2.4653759999999996,3
2024-06-14 12:23:32.909,-49.35,-434.28,-126.56,-1.641144,1.2409839999999999,-2.6083600000000002,3
2024-06-14 12:23:32.914,-94.85,-394.94,-153.02,-0.8266720000000001,1.113616,-2.02764,3
2024-06-14 12:23:32.918,-110.46,-405.79,-157.78,-0.5626639999999999,1.121424,-1.475712,3
2024-06-14 12:23:32.923,-97.72,-319.06,-146.51,-1.616256,0.5875520000000001,-1.495232,3
2024-06-14 12:23:32.928,-102.34,-188.02,-120.82,-2.4238959999999996,0.212768,-1.3566399999999998,3
2024-06-14 12:23:32.933,-67.13,-71.47,-78.96,-1.972008,-0.031232,-1.012112,4
2024-06-14 12:23:32.938,-13.16,18.83,-31.92,-1.6577359999999999,-0.20007999999999998,-1.276608,4
2024-06-14 12:23:32.943,27.3,98.7,11.62,-1.733376,-0.262544,-1.356152,4
2024-06-14 12:23:32.947,62.65,163.03,49.77,-1.637728,-0.17860800000000002,-1.1794959999999999,4
2024-06-14 12:23:32.952,98.14,207.41,76.16,-1.426912,-0.052704,-1.146312,4
2024-06-14 12:23:32.957,121.94,239.54,90.16,-1.335656,0.041968,-1.138504,4
2024-06-14 12:23:32.962,130.83,264.74,96.32,-1.279048,0.162016,-1.0657919999999999,4
2024-06-14 12:23:32.967,129.57,285.18,96.04,-1.18828,0.279624,-0.994544,4
2024-06-14 12:23:32.972,121.38,302.12,89.39,-1.090192,0.365512,-0.98088,4
2024-06-14 12:23:32.976,107.73,316.68,78.12,-1.0262639999999998,0.41968,-0.960872,4
2024-06-14 12:23:32.981,89.32,329.7,63.91,-0.967216,0.430904,-0.936472,4
2024-06-14 12:23:32.986,70.21,340.62,48.79,-0.8940159999999999,0.418704,-0.9184159999999999,4
2024-06-14 12:23:32.991,52.01,349.51,32.69,-0.824232,0.39088799999999996,-0.910608,4
2024-06-14 12:23:32.996,35.63,356.65,16.45,-0.762744,0.326472,-0.908168,4
2024-06-14 12:23:33.000,23.1,362.46,1.4,-0.7080879999999999,0.255224,-0.901336,4
2024-06-14 12:23:33.005,14.98,367.43,-11.69,-0.643184,0.180072,-0.930128,4
2024-06-14 12:23:33.010,10.22,372.26,-22.82,-0.5826720000000001,0.09711199999999999,-0.974536,4
2024-06-14 12:23:33.015,8.96,377.93,-31.71,-0.549,0.031232,-1.005768,4
2024-06-14 12:23:33.020,11.2,384.65,-38.36,-0.5289919999999999,-0.022936,-1.0492000000000001,4
2024-06-14 12:23:33.025,15.89,393.26,-42.63,-0.511424,-0.061975999999999996,-1.086288,4
2024-06-14 12:23:33.029,22.05,402.92,-44.45,-0.501176,-0.093696,-1.140944,4
2024-06-14 12:23:33.034,28.91,413.14,-44.73,-0.488976,-0.09711199999999999,-1.2043840000000001,4
2024-06-14 12:23:33.039,35.84,423.57,-44.03,-0.472384,-0.076128,-1.265384,4
2024-06-14 12:23:33.044,42.84,433.44,-42.28,-0.446032,-0.040015999999999996,-1.328336,4
2024-06-14 12:23:33.049,48.58,442.68,-40.04,-0.415288,0.006344,-1.387872,4
2024-06-14 12:23:33.054,52.08,451.01,-37.66,-0.37868799999999997,0.07027199999999999,-1.44692,4
2024-06-14 12:23:33.058,51.94,457.94,-35.77,-0.33720799999999995,0.142984,-1.50548,4
2024-06-14 12:23:33.063,48.16,463.05,-34.3,-0.290848,0.215208,-1.558184,4
2024-06-14 12:23:33.068,41.58,467.25,-32.97,-0.24790399999999999,0.269864,-1.599176,4
2024-06-14 12:23:33.073,32.76,470.54,-31.57,-0.20251999999999998,0.315248,-1.638216,4
2024-06-14 12:23:33.078,22.82,472.78,-30.1,-0.154696,0.355264,-1.680672,4
2024-06-14 12:23:33.082,12.88,473.34,-28.21,-0.10492,0.381616,-1.737768,4
2024-06-14 12:23:33.087,3.08,472.15,-25.9,-0.042455999999999994,0.40894400000000003,-1.81292,4
2024-06-14 12:23:33.092,-6.09,468.79,-23.17,0.022448,0.432368,-1.890024,4
2024-06-14 12:23:33.097,-14.35,464.59,-19.39,0.071248,0.443592,-1.930528,4
2024-06-14 12:23:33.102,-20.58,460.25,-14.0,0.10736,0.437736,-1.989576,4
2024-06-14 12:23:33.107,-26.46,456.61,-7.28,0.11516799999999999,0.465064,-2.006656,4
2024-06-14 12:23:33.111,-32.27,453.18,0.28,0.13224799999999998,0.49824799999999997,-2.062776,4
2024-06-14 12:23:33.116,-39.41,449.4,8.33,0.147864,0.541192,-2.1315839999999997,4
2024-06-14 12:23:33.121,-47.88,445.9,16.38,0.156648,0.5856,-2.203808,4
2024-06-14 12:23:33.126,-57.68,442.33,24.22,0.15372,0.6344,-2.2823759999999997,4
2024-06-14 12:23:33.131,-68.74,438.97,31.5,0.154696,0.6783199999999999,-2.387784,4
2024-06-14 12:23:33.136,-79.94,436.59,38.71,0.19178399999999998,0.707112,-2.514176,4
2024-06-14 12:23:33.140,-90.23,434.84,45.99,0.27913599999999994,0.72712,-2.641056,4
2024-06-14 12:23:33.145,-98.98,434.28,53.97,0.40992,0.74664,-2.767936,4
2024-06-14 12:23:33.150,-105.28,434.7,62.09,0.5690080000000001,0.77836,-2.887984,4
2024-06-14 12:23:33.155,-109.06,435.61,70.35,0.73932,0.818376,-2.9953440000000002,4
2024-06-14 12:23:33.160,-110.32,436.1,78.54,0.914512,0.8793759999999999,-3.0870879999999996,4
2024-06-14 12:23:33.164,-111.65,435.26,86.52,1.0950719999999998,0.94428,-3.079768,4
2024-06-14 12:23:33.169,-115.71,433.23,92.26,1.162416,0.94184,-2.980704,4
2024-06-14 12:23:33.174,-162.54,426.16,92.82,1.120936,0.894992,-3.1256399999999998,4
2024-06-14 12:23:33.179,-225.12,422.24,90.72,1.412272,0.7080879999999999,-3.25252,4
2024-06-14 12:23:33.184,-271.11,413.42,91.07,1.6699359999999999,0.481168,-3.357928,4
2024-06-14 12:23:33.189,-289.59,403.62,93.87,1.9510239999999999,0.18104800000000001,-3.410144,4
2024-06-14 12:23:33.193,-282.38,395.64,100.24,2.250168,-0.095648,-3.397944,4
2024-06-14 12:23:33.198,-251.72,385.84,116.2,2.2408959999999998,0.299632,-3.3179119999999998,4
2024-06-14 12:23:33.203,-203.7,370.09,126.28,2.9646,-0.92964,-3.0870879999999996,4
2024-06-14 12:23:33.208,-158.41,356.58,132.51,3.2300720000000003,-0.531432,-2.905552,4
2024-06-14 12:23:33.213,-121.8,335.65,139.51,3.624864,-0.470432,-2.673752,4
2024-06-14 12:23:33.218,-97.3,307.79,139.93,4.003064,-0.301584,-2.452688,4
2024-06-14 12:23:33.222,-84.91,274.47,127.82,4.325632,-0.028791999999999998,-2.220888,4
2024-06-14 12:23:33.227,-85.68,239.75,100.8,4.673576,0.186904,-2.1149919999999995,4
2024-06-14 12:23:33.232,-100.03,204.82,63.7,4.9639359999999995,0.26644799999999996,-2.1994160000000003,4
2024-06-14 12:23:33.237,-115.64,167.23,21.63,5.323104,0.032208,-2.03984,4
2024-06-14 12:23:33.242,-115.5,127.4,-19.46,5.408504,-0.374296,-1.911984,4
2024-06-14 12:23:33.245,-99.12,90.86,-52.57,5.466088,-0.840336,-1.811944,4
2024-06-14 12:23:33.249,-67.76,52.78,-73.22,5.4553519999999995,-1.24196,-1.831952,4
2024-06-14 12:23:33.254,-25.97,12.04,-80.57,5.291872000000001,-1.538664,-1.8187760000000002,4
2024-06-14 12:23:33.259,19.11,-26.04,-76.79,5.044943999999999,-1.627968,-1.767536,4
2024-06-14 12:23:33.264,63.77,-60.48,-65.8,4.743848,-1.521096,-1.76412,4
2024-06-14 12:23:33.269,129.99,-145.6,-60.13,6.158072,0.00976,-4.129943999999999,4
