time,gyroscope_x,gyroscope_y,gyroscope_z,accelerometer_x,accelerometer_y,accelerometer_z,phase
2024-06-14 08:36:47.130,-274.53999999999996,-252.21,-5.915,3.9254719999999996,-0.10125999999999999,-3.4909079999999997,1
2024-06-14 08:36:47.135,-316.575,-216.93,-5.7749999999999995,-0.265716,-0.36892800000000003,0.127124,1
2024-06-14 08:36:47.139,-318.185,-262.99,-4.9350000000000005,0.435052,0.06563599999999999,-1.96176,1
2024-06-14 08:36:47.144,-236.565,-263.725,-19.075,-1.16266,0.056608000000000006,-1.6299199999999998,1
2024-06-14 08:36:47.149,-160.685,-239.4,-36.61,-1.0809199999999999,-0.357216,-1.5523280000000002,1
2024-06-14 08:36:47.154,-121.1,-244.825,-60.375,-0.609512,-0.244,-1.516216,2
2024-06-14 08:36:47.159,-103.53,-262.08,-74.51499999999999,-0.03611199999999999,0.053680000000000005,-2.0000679999999997,2
2024-06-14 08:36:47.163,-74.97,-275.835,-81.86500000000001,0.33086399999999994,0.24058400000000002,-2.001532,2
2024-06-14 08:36:47.168,-46.515,-282.83500000000004,-86.975,0.31354,0.42456,-1.96054,2
2024-06-14 08:36:47.173,-24.08,-269.08000000000004,-85.19,0.12102399999999999,0.6768559999999999,-2.208444,2
2024-06-14 08:36:47.178,-16.310000000000002,-224.28,-65.905,0.07441999999999999,0.862784,-2.386076,2
2024-06-14 08:36:47.183,-24.29,-171.64,-32.515,0.082716,0.7259,-2.4558599999999995,2
2024-06-14 08:36:47.187,-23.869999999999997,-128.38,-1.1549999999999998,0.10467599999999999,0.427732,-2.18258,2
2024-06-14 08:36:47.192,-15.715,-92.365,13.09,0.099796,0.166652,-2.07888,2
2024-06-14 08:36:47.197,-5.635,-76.58,10.045,0.13785999999999998,-0.034892,-1.7416719999999999,2
2024-06-14 08:36:47.202,-4.865,-50.33,-4.0249999999999995,0.166408,-0.142984,-1.92638,2
2024-06-14 08:36:47.207,-3.395,-32.865,-17.605,0.197884,-0.359656,-1.5750199999999999,2
2024-06-14 08:36:47.212,-12.46,-40.425,-20.58,0.142496,-0.164456,-1.50792,2
2024-06-14 08:36:47.216,-18.795,-42.629999999999995,-17.815,0.086864,0.006100000000000001,-1.350784,2
2024-06-14 08:36:47.221,-17.814999999999998,-47.46,-13.510000000000002,-0.029523999999999998,0.10736,-1.158756,2
2024-06-14 08:36:47.226,-17.57,-46.34,-8.82,-0.084424,0.070272,-1.0445639999999998,2
2024-06-14 08:36:47.231,-17.08,-44.905,-7.734999999999999,-0.066856,0.005856,-1.003816,2
2024-06-14 08:36:47.236,-18.200000000000003,-38.22,-7.699999999999999,-0.020007999999999998,-0.041968,-0.998692,2
2024-06-14 08:36:47.240,-19.985,-35.56,-8.05,-0.019032,-0.033428,-1.0079639999999999,2
2024-06-14 08:36:47.245,-21.384999999999998,-32.2,-7.14,-0.014395999999999999,-0.008296000000000001,-1.02358,2
2024-06-14 08:36:47.250,-21.735,-31.255,-5.495,-0.030744,0.010492,-1.037732,2
2024-06-14 08:36:47.255,-21.14,-33.004999999999995,-4.095000000000001,-0.048799999999999996,0.011712,-1.059448,2
2024-06-14 08:36:47.260,-20.02,-37.31,-3.535,-0.05782799999999999,0.0034159999999999998,-1.086776,2
2024-06-14 08:36:47.264,-18.375,-42.980000000000004,-2.485,-0.07564000000000001,0.003416,-1.1175199999999998,2
2024-06-14 08:36:47.269,-16.450000000000003,-48.72,-1.0150000000000001,-0.07661599999999999,0.024888,-1.137284,2
2024-06-14 08:36:47.274,-13.3,-53.55,0.24500000000000002,-0.06661199999999999,0.051239999999999994,-1.121424,2
2024-06-14 08:36:47.279,-9.204999999999998,-55.614999999999995,1.33,-0.055875999999999995,0.073444,-1.102636,2
2024-06-14 08:36:47.284,-4.76,-55.72,1.82,-0.037576,0.077348,-1.084092,2
2024-06-14 08:36:47.287,-0.35,-54.565,1.785,-0.024399999999999998,0.072956,-1.079212,2
2024-06-14 08:36:47.291,4.0600000000000005,-53.795,1.47,-0.0305,0.06124399999999999,-1.0857999999999999,2
2024-06-14 08:36:47.296,7.665000000000001,-54.18,1.54,-0.039527999999999994,0.046116000000000004,-1.101416,2
2024-06-14 08:36:47.301,11.585,-58.695,1.6800000000000002,-0.044164,0.048799999999999996,-1.1021480000000001,2
2024-06-14 08:36:47.306,14.594999999999999,-58.415,1.89,-0.041479999999999996,0.050508,-1.100684,2
2024-06-14 08:36:47.311,17.57,-60.480000000000004,1.96,-0.026352,0.04392,-1.100196,2
2024-06-14 08:36:47.315,20.23,-62.37,1.9249999999999998,-0.021228,0.0305,-1.098732,2
2024-06-14 08:36:47.320,21.805,-64.19,1.785,-0.030987999999999995,0.01342,-1.0906799999999999,2
2024-06-14 08:36:47.325,23.450000000000003,-66.255,1.6099999999999999,-0.025863999999999998,0.016592000000000003,-1.09068,2
2024-06-14 08:36:47.330,24.674999999999997,-68.6,1.505,-0.026351999999999997,0.020984,-1.090924,2
2024-06-14 08:36:47.335,25.375,-70.35,1.5750000000000002,-0.02562,0.005856,-1.098976,2
2024-06-14 08:36:47.340,25.55,-20.79,2.275,-0.022692,-0.005612,-1.1028799999999999,2
2024-06-14 08:36:47.344,23.415,-77.07,1.96,-0.013663999999999999,-0.035868,-1.120692,2
2024-06-14 08:36:47.349,15.995000000000001,-75.775,1.7149999999999999,0.0004879999999999997,-0.04758,-1.0787239999999998,2
2024-06-14 08:36:47.354,10.184999999999999,-77.28,2.6950000000000003,0.019764000000000004,-0.049044,-1.070672,2
2024-06-14 08:36:47.359,11.620000000000001,-79.695,2.9050000000000002,0.031232,-0.044408,-1.06384,2
2024-06-14 08:36:47.364,5.25,-81.27,2.7649999999999997,0.042943999999999996,-0.040260000000000004,-1.0548119999999999,2
2024-06-14 08:36:47.369,3.64,-84.035,2.38,0.04392,-0.01586,-1.056276,2
2024-06-14 08:36:47.373,4.795,-86.065,1.715,0.056608,-0.003904,-1.0509080000000002,2
2024-06-14 08:36:47.378,2.7649999999999997,-85.36500000000001,1.0150000000000001,0.063196,0.0012200000000000002,-1.05652,2
2024-06-14 08:36:47.383,1.575,-82.95,-0.24500000000000002,0.066856,-0.035624,-1.130208,2
2024-06-14 08:36:47.388,-9.975,-85.61000000000001,-1.925,0.061731999999999995,-0.027572,-1.090192,2
2024-06-14 08:36:47.393,-9.31,-85.575,-3.045,0.070516,-0.012444,-1.110932,2
2024-06-14 08:36:47.398,-5.39,-84.35,-4.234999999999999,0.060267999999999995,0.021716,-1.1882799999999998,2
2024-06-14 08:36:47.402,10.36,-80.91999999999999,-1.4,0.081984,0.016836,-1.125328,2
2024-06-14 08:36:47.407,10.57,-79.94,-2.45,0.090036,0.068564,-1.124596,2
2024-06-14 08:36:47.412,14.56,-79.905,-3.29,0.092476,0.048556,-1.120936,2
2024-06-14 08:36:47.417,17.29,-78.54,-3.885,0.09711199999999999,0.042212,-1.118496,2
2024-06-14 08:36:47.422,21.595,-77.7,-4.164999999999999,0.108824,0.030744,-1.0882399999999999,3
2024-06-14 08:36:47.427,24.255,-78.33,-4.48,0.114436,0.015372,-1.075308,3
2024-06-14 08:36:47.431,26.18,-78.36500000000001,-4.6899999999999995,0.12688,0.004148000000000001,-1.075308,3
2024-06-14 08:36:47.436,27.299999999999997,-77.735,-4.515000000000001,0.13151599999999997,-0.008784,-1.05896,3
2024-06-14 08:36:47.441,27.72,-77.245,-4.234999999999999,0.13541999999999998,-0.033428,-1.051396,3
2024-06-14 08:36:47.446,28.7,-76.825,-3.8499999999999996,0.140544,-0.02318,-1.0299239999999998,3
2024-06-14 08:36:47.451,31.884999999999998,-76.195,-3.115,0.15738,-0.028547999999999997,-1.020652,3
2024-06-14 08:36:47.455,30.064999999999998,-74.83,-2.94,0.165432,-0.030012,-1.024312,3
2024-06-14 08:36:47.460,27.475,-72.94,-2.9400000000000004,0.176168,-0.022204,-1.02236,3
2024-06-14 08:36:47.465,24.009999999999998,-69.78999999999999,-3.395,0.178852,-0.027816,-1.020896,3
2024-06-14 08:36:47.470,22.365000000000002,-65.765,-3.3600000000000003,0.18592799999999998,-0.034404,-0.9974719999999999,3
2024-06-14 08:36:47.475,21.384999999999998,-63.14,-3.465,0.198372,-0.026596,-0.994788,3
2024-06-14 08:36:47.480,19.845,-59.815,-3.78,0.20007999999999998,-0.024399999999999998,-0.9928359999999999,3
2024-06-14 08:36:47.484,18.83,-56.805,-3.955,0.20910800000000002,-0.033672,-1.0072320000000001,3
2024-06-14 08:36:47.489,18.549999999999997,-52.36,-3.955,0.214964,-0.043188,-0.98454,3
2024-06-14 08:36:47.494,17.325000000000003,-49.595,-3.8499999999999996,0.22082,-0.05124,-0.95892,3
2024-06-14 08:36:47.499,15.26,-49.0,-3.71,0.222528,-0.054412,-0.9823439999999999,3
2024-06-14 08:36:47.504,14.280000000000001,-46.025,-3.535,0.220576,-0.055388,-0.973804,3
2024-06-14 08:36:47.509,12.95,-43.75,-3.395,0.221552,-0.057096,-0.975268,3
2024-06-14 08:36:47.513,11.969999999999999,-42.07,-3.08,0.218136,-0.06612399999999999,-0.9720959999999998,3
2024-06-14 08:36:47.518,10.605,-41.055,-2.66,0.21716000000000002,-0.07588400000000001,-0.98698,3
2024-06-14 08:36:47.523,8.925,-40.355000000000004,-2.065,0.220088,-0.08662,-1.000644,3
2024-06-14 08:36:47.528,7.21,-40.144999999999996,-1.54,0.22813999999999998,-0.09028,-1.004548,3
2024-06-14 08:36:47.533,5.775,-39.83,-0.8400000000000001,0.23082399999999997,-0.08393600000000001,-1.008208,3
2024-06-14 08:36:47.538,4.515000000000001,-39.97,-0.28,0.236924,-0.078812,-1.016504,3
2024-06-14 08:36:47.542,3.955,-40.25,0.17500000000000002,0.240096,-0.07198,-1.01626,3
2024-06-14 08:36:47.547,4.0600000000000005,-40.635000000000005,0.595,0.244732,-0.061,-1.026996,3
2024-06-14 08:36:47.552,4.375,-41.16,0.9450000000000001,0.24570799999999998,-0.058803999999999995,-1.0423679999999997,3
2024-06-14 08:36:47.557,5.145,-41.894999999999996,1.19,0.250588,-0.056364,-1.053348,3
2024-06-14 08:36:47.562,6.125,-42.805,1.4,0.250344,-0.052947999999999995,-1.064816,3
2024-06-14 08:36:47.567,7.035,-44.135000000000005,1.5750000000000002,0.25254,-0.045872,-1.0833599999999999,3
2024-06-14 08:36:47.571,8.295,-45.08,1.54,0.25498,-0.038796,-1.097756,3
2024-06-14 08:36:47.576,9.345,-47.04,1.5750000000000002,0.256932,-0.041968,-1.098976,3
2024-06-14 08:36:47.581,11.094999999999999,-48.754999999999995,1.68,0.26083599999999996,-0.036844,-1.10776,3
2024-06-14 08:36:47.586,12.39,-50.47,1.4,0.262788,-0.025863999999999998,-1.118252,3
2024-06-14 08:36:47.591,13.475,-52.5,1.12,0.26327599999999995,-0.030744,-1.1282560000000001,3
2024-06-14 08:36:47.596,14.84,-54.599999999999994,1.12,0.266692,-0.036356,-1.1346,3
2024-06-14 08:36:47.600,15.399999999999999,-57.260000000000005,0.875,0.266204,-0.045628,-1.156316,3
2024-06-14 08:36:47.605,15.54,-60.269999999999996,1.05,0.27205999999999997,-0.063196,-1.163392,3
2024-06-14 08:36:47.610,14.735,-63.875,1.4,0.27181599999999995,-0.085156,-1.1772999999999998,3
2024-06-14 08:36:47.615,13.65,-67.55,2.065,0.27425599999999994,-0.101748,-1.191696,3
2024-06-14 08:36:47.620,12.004999999999999,-71.89,3.08,0.277672,-0.12151200000000001,-1.200968,3
2024-06-14 08:36:47.624,10.36,-76.265,4.305,0.276208,-0.12956399999999998,-1.214632,3
2024-06-14 08:36:47.629,8.469999999999999,-81.06,5.705,0.276452,-0.131272,-1.2341520000000001,3
2024-06-14 08:36:47.634,6.16,-86.38,6.965,0.279624,-0.13151599999999997,-1.23952,3
2024-06-14 08:36:47.639,3.885,-91.735,8.19,0.28157600000000005,-0.13395599999999996,-1.243668,3
2024-06-14 08:36:47.644,1.6099999999999999,-97.86,9.309999999999999,0.28767600000000004,-0.12566,-1.2712400000000001,3
2024-06-14 08:36:47.649,0.03499999999999999,-104.685,10.254999999999999,0.289384,-0.124928,-1.284904,3
2024-06-14 08:36:47.653,-0.42,-111.265,11.41,0.29011600000000004,-0.114192,-1.308328,3
2024-06-14 08:36:47.658,-0.595,-118.965,12.425,0.291092,-0.11102000000000001,-1.342976,3
2024-06-14 08:36:47.663,-0.595,-126.45500000000001,13.195,0.28792000000000006,-0.091988,-1.369572,3
2024-06-14 08:36:47.668,-0.35,-135.135,13.825,0.296704,-0.08052,-1.391044,3
2024-06-14 08:36:47.673,0.8049999999999999,-144.235,14.245000000000001,0.296704,-0.08174,-1.428376,3
2024-06-14 08:36:47.678,2.8,-153.755,14.91,0.299632,-0.065148,-1.452044,3
2024-06-14 08:36:47.682,4.725,-163.87,15.05,0.30353600000000003,-0.054167999999999994,-1.4823,3
2024-06-14 08:36:47.687,6.859999999999999,-174.57999999999998,15.33,0.310856,-0.061244,-1.51646,3
2024-06-14 08:36:47.692,8.89,-185.64,15.855,0.29646000000000006,-0.068076,-1.550376,3
2024-06-14 08:36:47.697,10.43,-197.85500000000002,16.275,0.294752,-0.08832799999999999,-1.555988,3
2024-06-14 08:36:47.702,12.95,-210.42000000000002,17.71,0.29377600000000004,-0.123708,-1.616256,3
2024-06-14 08:36:47.707,14.735,-223.825,19.04,0.28694400000000003,-0.11516799999999999,-1.636508,3
2024-06-14 08:36:47.711,15.645,-238.0,20.299999999999997,0.29499600000000004,-0.141764,-1.659688,3
2024-06-14 08:36:47.716,17.22,-253.05,22.189999999999998,0.291824,-0.16226,-1.6772559999999999,3
2024-06-14 08:36:47.721,19.075,-268.16999999999996,24.22,0.30012,-0.142252,-1.7324,3
2024-06-14 08:36:47.726,20.055,-283.08000000000004,25.48,0.321104,-0.1159,-1.797304,3
2024-06-14 08:36:47.731,20.195,-299.18,26.145,0.34037999999999996,-0.124196,-1.830488,3
2024-06-14 08:36:47.736,21.315,-314.125,26.53,0.367464,-0.129076,-1.888072,3
2024-06-14 08:36:47.740,23.275,-328.58000000000004,27.09,0.37088,-0.16958,-1.92516,3
2024-06-14 08:36:47.745,25.2,-344.05,28.595,0.410652,-0.203008,-1.9807919999999999,3
2024-06-14 08:36:47.750,24.57,-358.78499999999997,30.17,0.436272,-0.213988,-2.05936,3
2024-06-14 08:36:47.755,22.75,-371.84,31.465,0.5045919999999999,-0.271816,-2.1550079999999996,3
2024-06-14 08:36:47.760,25.235,-385.63,34.09,0.51118,-0.34599199999999997,-2.207224,3
2024-06-14 08:36:47.764,24.325,-396.025,38.045,0.5917,-0.39479200000000003,-2.329224,3
2024-06-14 08:36:47.769,24.535,-403.40999999999997,41.51,0.620004,-0.550952,-2.504416,3
2024-06-14 08:36:47.774,28.42,-410.27,49.91,0.606096,-0.687592,-2.459764,3
2024-06-14 08:36:47.779,29.855,-415.835,59.185,0.588284,-0.673684,-2.5785919999999996,3
2024-06-14 08:36:47.784,25.935,-418.6,64.225,0.564372,-0.776408,-2.7313359999999998,3
2024-06-14 08:36:47.789,29.82,-419.685,73.465,0.494344,-0.860344,-2.779892,3
2024-06-14 08:36:47.793,27.3,-423.255,85.225,0.48629199999999995,-0.876692,-2.621292,3
2024-06-14 08:36:47.798,18.13,-421.89,99.33,0.46482,-0.9189039999999999,-2.584936,3
2024-06-14 08:36:47.803,6.23,-417.62,111.195,0.48507199999999995,-1.021384,-2.3343480000000003,3
2024-06-14 08:36:47.808,14.035,-414.505,120.47,0.49288,-1.152412,-2.219912,3
2024-06-14 08:36:47.813,33.355,-413.94500000000005,129.325,0.37429599999999996,-1.3961679999999999,-2.0378879999999997,3
2024-06-14 08:36:47.818,75.145,-414.67999999999995,141.225,-0.0039039999999999995,-1.60552,-1.9925039999999998,3
2024-06-14 08:36:47.822,130.165,-407.61,161.49,-0.23912,-1.698972,-1.89832,3
2024-06-14 08:36:47.827,168.315,-394.905,181.23000000000002,-0.50874,-1.489132,-1.877824,3
2024-06-14 08:36:47.832,192.465,-371.49,204.225,-0.8198400000000001,-1.235372,-1.890512,3
2024-06-14 08:36:47.835,200.165,-340.795,227.60500000000002,-1.0348039999999998,-0.989664,-1.709952,3
2024-06-14 08:36:47.840,191.555,-305.515,248.85,-1.03334,-0.73566,-1.521096,4
2024-06-14 08:36:47.845,171.22,-275.06500000000005,260.155,-0.6426959999999999,-0.528748,-1.3054000000000001,4
2024-06-14 08:36:47.849,147.875,-257.46000000000004,246.68,-0.30158399999999996,-0.643184,-0.8918200000000001,4
2024-06-14 08:36:47.854,109.025,-178.71,212.66,-0.943792,-0.04514,-1.289296,4
2024-06-14 08:36:47.859,86.205,-72.345,164.255,-1.650172,0.48751199999999995,-0.776408,4
2024-06-14 08:36:47.864,55.370000000000005,12.6,106.96000000000001,-1.66652,0.5331400000000001,-0.418948,4
2024-06-14 08:36:47.869,10.78,88.47999999999999,49.63,-1.3185759999999997,0.357216,-0.685152,4
2024-06-14 08:36:47.874,-38.045,155.75,-2.415,-1.081896,0.29133600000000004,-0.826916,4
2024-06-14 08:36:47.879,-75.705,208.25,-44.730000000000004,-1.041636,0.19641999999999998,-0.866444,4
2024-06-14 08:36:47.883,-99.995,248.255,-73.815,-0.98698,-0.043432000000000005,-0.90524,4
2024-06-14 08:36:47.888,-114.345,277.725,-91.245,-0.863272,-0.25229599999999996,-0.9394,4
2024-06-14 08:36:47.893,-118.125,297.92,-99.92500000000001,-0.74664,-0.389668,-0.984784,4
2024-06-14 08:36:47.898,-109.83000000000001,311.04499999999996,-101.255,-0.672952,-0.5033719999999999,-1.0206520000000001,4
2024-06-14 08:36:47.903,-92.225,317.73,-95.97,-0.5948720000000001,-0.592676,-1.001132,4
2024-06-14 08:36:47.908,-70.97999999999999,318.53499999999997,-86.52,-0.512644,-0.6197600000000001,-0.963068,4
2024-06-14 08:36:47.912,-49.07,314.405,-74.47999999999999,-0.442616,-0.59414,-0.9269559999999999,4
2024-06-14 08:36:47.917,-29.26,306.70500000000004,-61.845,-0.389424,-0.534604,-0.880352,4
2024-06-14 08:36:47.922,-14.629999999999999,295.96000000000004,-49.28,-0.338916,-0.465796,-0.84058,4
2024-06-14 08:36:47.927,-4.654999999999999,283.605,-36.68,-0.28913999999999995,-0.382104,-0.819596,4
2024-06-14 08:36:47.932,1.7149999999999999,271.21500000000003,-24.78,-0.258152,-0.300852,-0.795928,4
2024-06-14 08:36:47.937,4.375,260.575,-14.350000000000001,-0.253272,-0.218136,-0.7607919999999999,4
2024-06-14 08:36:47.942,3.255,253.39999999999998,-5.67,-0.26596,-0.160064,-0.739564,4
2024-06-14 08:36:47.946,0.245,251.37,1.575,-0.280356,-0.121512,-0.7503,4
2024-06-14 08:36:47.951,-3.4299999999999997,254.31,7.42,-0.304756,-0.09808800000000001,-0.777628,4
2024-06-14 08:36:47.956,-6.51,262.115,11.655000000000001,-0.337696,-0.079544,-0.817644,4
2024-06-14 08:36:47.961,-8.82,274.04999999999995,14.315,-0.36648800000000004,-0.066612,-0.849364,4
2024-06-14 08:36:47.966,-10.745,287.805,15.75,-0.384544,-0.051239999999999994,-0.881572,4
2024-06-14 08:36:47.971,-13.16,301.595,16.17,-0.3843,-0.041479999999999996,-0.92964,4
2024-06-14 08:36:47.975,-16.38,313.74,15.785,-0.37429599999999996,-0.026840000000000003,-0.9864919999999999,4
2024-06-14 08:36:47.980,-19.215,323.995,15.085,-0.348188,-0.0053679999999999995,-1.0145520000000001,4
2024-06-14 08:36:47.985,-21.14,332.22,14.0,-0.32378799999999996,-0.019032,-1.048224,4
2024-06-14 08:36:47.990,-20.965,338.59000000000003,13.055,-0.29743600000000003,-0.04367599999999999,-1.084824,4
2024-06-14 08:36:47.995,-18.2,343.66499999999996,12.11,-0.267424,-0.063928,-1.114348,4
2024-06-14 08:36:48.000,-14.035,347.58500000000004,11.059999999999999,-0.24009599999999998,-0.07686,-1.150704,4
2024-06-14 08:36:48.005,-8.925,350.525,9.555,-0.208864,-0.08125199999999999,-1.1887679999999998,4
2024-06-14 08:36:48.009,-3.3949999999999996,352.87,7.5249999999999995,-0.180316,-0.07930000000000001,-1.233908,4
2024-06-14 08:36:48.014,2.415,353.815,4.9350000000000005,-0.152256,-0.079788,-1.270996,4
2024-06-14 08:36:48.019,8.120000000000001,353.91999999999996,1.68,-0.113216,-0.076372,-1.315648,4
2024-06-14 08:36:48.024,14.315000000000001,352.52,-1.61,-0.066368,-0.07564,-1.3576159999999997,4
2024-06-14 08:36:48.029,21.245,349.965,-5.145,-0.014884000000000001,-0.081984,-1.403732,4
2024-06-14 08:36:48.034,28.490000000000002,346.15,-9.030000000000001,0.028304000000000003,-0.081496,-1.447408,4
2024-06-14 08:36:48.038,35.91,341.635,-13.02,0.07564,-0.066856,-1.4923039999999999,4
2024-06-14 08:36:48.043,42.455,336.595,-17.814999999999998,0.113948,-0.049776,-1.5313439999999998,4
2024-06-14 08:36:48.048,47.879999999999995,331.765,-23.064999999999998,0.135908,-0.031964000000000006,-1.575752,4
2024-06-14 08:36:48.053,51.975,327.775,-29.259999999999998,0.15372,-0.007319999999999999,-1.622356,4
2024-06-14 08:36:48.058,54.215,325.32500000000005,-36.05,0.16543199999999997,0.013663999999999999,-1.6714,4
2024-06-14 08:36:48.063,55.474999999999994,324.69500000000005,-43.155,0.16104,0.024399999999999998,-1.734108,4
2024-06-14 08:36:48.068,56.105000000000004,325.28999999999996,-49.805,0.16128399999999998,0.022204,-1.7812,4
2024-06-14 08:36:48.072,56.21,327.28499999999997,-55.754999999999995,0.177144,0.012688,-1.823412,4
2024-06-14 08:36:48.077,56.595,329.7,-61.215,0.18836799999999998,0.0068319999999999995,-1.8780679999999998,4
2024-06-14 08:36:48.082,56.77,331.52,-65.94,0.215208,0.0034159999999999993,-1.921012,4
2024-06-14 08:36:48.087,55.65,332.395,-70.035,0.25717599999999996,-0.012444,-1.9781079999999998,4
2024-06-14 08:36:48.092,53.445,331.79999999999995,-73.605,0.286212,-0.037576,-2.0313,4
2024-06-14 08:36:48.097,50.715,330.33,-76.50999999999999,0.327692,-0.061975999999999996,-2.0801,4
2024-06-14 08:36:48.101,47.915,327.88,-79.205,0.36722,-0.097112,-2.127436,4
2024-06-14 08:36:48.106,45.115,325.115,-81.58500000000001,0.409432,-0.146644,-2.177212,4
2024-06-14 08:36:48.111,42.980000000000004,322.21000000000004,-83.965,0.45798799999999995,-0.193248,-2.215764,4
2024-06-14 08:36:48.116,42.0,319.34000000000003,-86.345,0.49995599999999996,-0.250588,-2.244556,4
2024-06-14 08:36:48.121,42.7,316.4,-88.97,0.5577840000000001,-0.315492,-2.249924,4
2024-06-14 08:36:48.126,47.739999999999995,312.865,-90.33500000000001,0.598532,-0.402112,-2.257244,4
2024-06-14 08:36:48.131,60.724999999999994,308.945,-88.69,0.650504,-0.46652799999999994,-2.28506,4
2024-06-14 08:36:48.135,76.78999999999999,304.67499999999995,-84.56,0.7498119999999999,-0.480192,-2.3233680000000003,4
2024-06-14 08:36:48.140,89.91499999999999,299.32,-80.605,0.864004,-0.438224,-2.358504,4
2024-06-14 08:36:48.145,97.055,292.18,-78.19,0.9657519999999999,-0.37576,-2.382416,4
2024-06-14 08:36:48.150,98.91,284.76,-77.69999999999999,1.066768,-0.3111,-2.391932,4
2024-06-14 08:36:48.155,98.035,277.27,-78.89,1.155584,-0.262788,-2.398764,4
2024-06-14 08:36:48.160,96.705,270.095,-81.58500000000001,1.231956,-0.23424,-2.39242,4
2024-06-14 08:36:48.164,97.125,264.46000000000004,-85.01499999999999,1.296616,-0.206668,-2.385344,4
2024-06-14 08:36:48.169,99.505,260.295,-89.18,1.3583479999999999,-0.15738,-2.350696,4
2024-06-14 08:36:48.174,102.13,256.375,-94.5,1.426424,-0.1037,-2.312144,4
2024-06-14 08:36:48.179,103.38999999999999,253.015,-100.73,1.514996,-0.032452,-2.261148,4
2024-06-14 08:36:48.184,102.34,249.445,-106.995,1.6094240000000002,0.016592,-2.168672,4
2024-06-14 08:36:48.189,99.155,243.845,-111.895,1.7053159999999998,0.01952,-2.050332,4
2024-06-14 08:36:48.194,96.53,236.39,-113.225,1.8463479999999999,-0.037576,-1.959808,4
2024-06-14 08:36:48.198,98.0,228.935,-109.34,2.082052,-0.09394,-1.9341879999999998,4
2024-06-14 08:36:48.203,99.505,220.36,-101.15,2.323368,-0.12566,-1.8683079999999999,4
2024-06-14 08:36:48.208,98.38499999999999,209.615,-89.18,2.5622439999999997,-0.16348000000000001,-1.749236,4
2024-06-14 08:36:48.213,96.985,196.945,-72.765,2.8257639999999995,-0.191296,-1.635532,4
2024-06-14 08:36:48.218,98.315,181.40499999999997,-52.114999999999995,3.114904,-0.195932,-1.5328080000000002,4
2024-06-14 08:36:48.223,103.565,162.85500000000002,-28.49,3.4147800000000004,-0.11760800000000002,-1.43228,4
2024-06-14 08:36:48.227,111.78999999999999,142.065,-3.8500000000000005,3.671468,0.090524,-1.34078,4
2024-06-14 08:36:48.232,117.775,118.475,18.060000000000002,3.88814,0.44700799999999996,-1.294908,4
2024-06-14 08:36:48.237,114.48500000000001,92.33000000000001,33.95,4.003552,0.862052,-1.2712400000000001,4
2024-06-14 08:36:48.242,96.03999999999999,63.14,42.14,4.0016,1.257088,-1.262212,4
2024-06-14 08:36:48.247,63.105000000000004,33.88,43.644999999999996,3.8764279999999998,1.511092,-1.2514759999999998,4
2024-06-14 08:36:48.252,20.125,6.265000000000001,40.81,3.669028,1.551352,-1.231956,4
2024-06-14 08:36:48.257,-23.764999999999997,-18.41,36.785,3.4155119999999997,1.3878720000000002,-1.225368,4
2024-06-14 08:36:48.261,-60.27,-39.445,33.739999999999995,3.172732,1.076284,-1.2361039999999999,4
2024-06-14 08:36:48.266,-85.08500000000001,-57.120000000000005,32.2,2.9331240000000003,0.72346,-1.23708,4
2024-06-14 08:36:48.271,-98.175,-70.98,31.71,2.712548,0.423828,-1.248548,4
2024-06-14 08:36:48.276,-101.71,-81.725,30.905,2.514664,0.2013,-1.287588,4
2024-06-14 08:36:48.281,-195.01999999999998,-181.58,25.130000000000003,3.2144559999999998,0.415288,-2.934588,4
