time,gyroscope_x,gyroscope_y,gyroscope_z,accelerometer_x,accelerometer_y,accelerometer_z,phase
2024-06-14 08:36:45.969,-264.39,-217.315,-5.075,1.690432,0.311588,-1.7489919999999999,1
2024-06-14 08:36:45.974,-298.375,-213.395,-1.4,-0.506544,-0.36624399999999996,0.132492,1
2024-06-14 08:36:45.979,-263.305,-255.885,-0.875,-0.41236,0.17568,-1.245864,1
2024-06-14 08:36:45.984,-185.57,-237.72000000000003,-12.915,-1.608936,-0.351604,-1.3986079999999999,1
2024-06-14 08:36:45.988,-139.475,-241.465,-35.595,-0.9389119999999999,-0.349164,-1.5003559999999998,1
2024-06-14 08:36:45.993,-117.39,-259.455,-57.785,-0.38259199999999993,-0.22350399999999998,-1.6467559999999999,1
2024-06-14 08:36:45.998,-92.75,-279.44,-70.66499999999999,0.21154799999999999,0.12444,-1.967616,1
2024-06-14 08:36:46.003,-57.47,-292.88,-78.575,0.410408,0.333304,-2.0108040000000003,1
2024-06-14 08:36:46.008,-24.395000000000003,-293.93,-83.78999999999999,0.329156,0.432856,-2.0025079999999997,1
2024-06-14 08:36:46.013,-3.7800000000000002,-272.92999999999995,-80.43,0.115412,0.682956,-2.279936,1
2024-06-14 08:36:46.017,-13.055,-230.93,-57.644999999999996,0.03782,0.8010520000000001,-2.350696,1
2024-06-14 08:36:46.022,-28.105,-189.035,-23.38,-0.014152,0.5978,-2.342156,1
2024-06-14 08:36:46.027,-25.865000000000002,-147.91,1.505,0.012444,0.347944,-2.1459799999999998,1
2024-06-14 08:36:46.032,-11.27,-114.1,11.165,0.051972000000000004,0.173972,-2.06668,1
2024-06-14 08:36:46.037,-4.0600000000000005,-93.975,6.09,0.15372000000000002,-0.10247999999999999,-1.714832,1
2024-06-14 08:36:46.042,2.9400000000000004,-78.82,-5.6,0.15933199999999997,-0.10418799999999999,-1.718492,1
2024-06-14 08:36:46.047,4.13,-61.46,-14.875,0.079788,-0.16250399999999998,-1.7016559999999998,1
2024-06-14 08:36:46.051,-4.55,-43.295,-18.060000000000002,0.058559999999999994,-0.12932,-1.486448,1
2024-06-14 08:36:46.056,-12.495000000000001,-46.34,-15.82,0.026840000000000003,-0.162748,-1.35176,1
2024-06-14 08:36:46.061,-19.6,-43.75,-12.04,0.033672,-0.054412,-1.215852,1
2024-06-14 08:36:46.066,-21.63,-39.445,-11.024999999999999,0.0068319999999999995,0.01342,-1.097512,2
2024-06-14 08:36:46.071,-21.805,-36.995,-10.745000000000001,-0.040260000000000004,-0.01342,-0.9864919999999999,2
2024-06-14 08:36:46.076,-25.060000000000002,-30.73,-9.975000000000001,-0.033428,-0.019032,-1.0116239999999999,2
2024-06-14 08:36:46.080,-29.365000000000002,-24.849999999999998,-7.944999999999999,-0.010248,-0.03172,-1.024556,2
2024-06-14 08:36:46.085,-31.395,-21.805,-6.755000000000001,-0.010735999999999999,-0.008539999999999999,-1.0445639999999998,2
2024-06-14 08:36:46.090,-31.465,-21.525,-6.405,-0.020007999999999998,0.0026839999999999998,-1.0492000000000001,2
2024-06-14 08:36:46.095,-31.325,-23.66,-6.475,-0.039772,-0.004148,-1.061156,2
2024-06-14 08:36:46.100,-30.59,-25.479999999999997,-6.300000000000001,-0.04148,0.00366,-1.086776,2
2024-06-14 08:36:46.105,-29.259999999999998,-30.205,-5.355,-0.056364,0.019276,-1.111664,2
2024-06-14 08:36:46.110,-27.125,-33.32,-3.8150000000000004,-0.075152,0.022936,-1.118496,2
2024-06-14 08:36:46.114,-24.814999999999998,-36.995000000000005,-1.855,-0.07563999999999999,0.034648,-1.121424,2
2024-06-14 08:36:46.119,-21.805,-41.86,-0.42,-0.066124,0.041724,-1.098244,2
2024-06-14 08:36:46.124,-18.62,-44.065,0.385,-0.047580000000000004,0.059292,-1.0801880000000001,2
2024-06-14 08:36:46.129,-14.42,-45.815,0.525,-0.042212,0.072956,-1.073356,2
2024-06-14 08:36:46.134,-10.045,-46.2,0.8049999999999999,-0.033428,0.085644,-1.0845799999999999,2
2024-06-14 08:36:46.139,-5.495,-46.095,1.0150000000000001,-0.041724,0.079544,-1.0960479999999997,2
2024-06-14 08:36:46.143,-1.225,-45.99,1.435,-0.050996,0.070028,-1.0992199999999999,2
2024-06-14 08:36:46.148,2.415,-46.305,1.8900000000000001,-0.04953199999999999,0.057828000000000004,-1.1065399999999999,2
2024-06-14 08:36:46.153,6.195,-48.09,2.135,-0.0549,0.06709999999999999,-1.1053199999999999,2
2024-06-14 08:36:46.158,10.184999999999999,-49.735,2.45,-0.05978,0.06539199999999999,-1.09922,2
2024-06-14 08:36:46.163,13.895,-51.66,2.9050000000000002,-0.04636,0.061487999999999994,-1.0945839999999998,2
2024-06-14 08:36:46.168,16.975,-54.25,3.08,-0.040748,0.050996,-1.090192,2
2024-06-14 08:36:46.173,19.6,-56.665,3.2199999999999998,-0.040016,0.04514,-1.0801880000000001,2
2024-06-14 08:36:46.177,22.049999999999997,-59.22,2.9749999999999996,-0.035135999999999994,0.047824,-1.079212,2
2024-06-14 08:36:46.182,23.905,-60.724999999999994,2.59,-0.034404,0.040992,-1.073112,2
2024-06-14 08:36:46.187,26.285,-59.150000000000006,2.065,-0.027327999999999998,0.029036,-1.081896,2
2024-06-14 08:36:46.193,26.880000000000003,-64.25999999999999,1.8199999999999998,-0.033184,0.017324,-1.081164,2
2024-06-14 08:36:46.198,26.88,-66.11500000000001,1.9949999999999999,-0.03172,0.000732,-1.085068,2
2024-06-14 08:36:46.203,36.19,-28.595000000000002,3.29,-0.02074,-0.030744,-1.0884839999999998,2
2024-06-14 08:36:46.207,26.705,-72.45,3.325,-0.0053679999999999995,-0.057095999999999994,-1.075552,2
2024-06-14 08:36:46.212,11.27,-70.07000000000001,3.535,0.0068319999999999995,-0.07442,-1.083604,2
2024-06-14 08:36:46.217,9.135,-69.02,3.745,0.028303999999999996,-0.071492,-1.031388,2
2024-06-14 08:36:46.222,6.545,-69.965,4.06,0.034404000000000004,-0.062708,-1.0348039999999998,2
2024-06-14 08:36:46.227,0.06999999999999995,-69.3,4.62,0.033184,-0.045871999999999996,-1.036756,2
2024-06-14 08:36:46.232,0.42,-69.16,4.9350000000000005,0.040260000000000004,-0.016836,-1.02968,2
2024-06-14 08:36:46.236,-2.52,-71.96000000000001,4.515,0.037088,-0.01464,-1.0555439999999998,2
2024-06-14 08:36:46.241,-5.39,-71.25999999999999,3.8499999999999996,0.04953199999999999,-0.014151999999999998,-1.0948280000000001,2
2024-06-14 08:36:46.246,-15.504999999999999,-74.55,2.205,0.033428,-0.015372,-1.102392,2
2024-06-14 08:36:46.251,-19.005,-76.93,1.6099999999999999,0.031476,-0.005612,-1.114104,3
2024-06-14 08:36:46.256,-20.72,-77.105,0.5950000000000001,0.03952800000000001,0.027816,-1.106296,3
2024-06-14 08:36:46.261,-22.54,-77.66499999999999,-0.455,0.0427,0.04660399999999999,-1.112396,3
2024-06-14 08:36:46.265,-21.07,-78.225,-1.89,0.066368,0.084912,-1.1053199999999999,3
2024-06-14 08:36:46.270,-17.43,-78.19,-4.585,0.083936,0.093696,-1.087996,3
2024-06-14 08:36:46.275,-14.629999999999999,-78.015,-6.51,0.093208,0.10272400000000001,-1.148752,3
2024-06-14 08:36:46.280,4.0600000000000005,-73.67500000000001,-4.235,0.098332,0.006832000000000001,-1.107516,3
2024-06-14 08:36:46.285,3.5,-71.85499999999999,-4.83,0.09906399999999999,0.07198,-1.114836,3
2024-06-14 08:36:46.290,6.93,-71.61,-4.655,0.096624,0.001952,-1.077992,3
2024-06-14 08:36:46.294,8.4,-69.58000000000001,-3.8499999999999996,0.104188,-0.010736,-1.075064,3
2024-06-14 08:36:46.299,9.625,-68.32,-2.9400000000000004,0.108336,-0.0183,-1.053836,3
2024-06-14 08:36:46.304,9.379999999999999,-67.515,-2.5549999999999997,0.121756,-0.00732,-1.036268,3
2024-06-14 08:36:46.309,9.135,-66.745,-2.205,0.13517599999999996,-0.0026839999999999998,-1.0189439999999998,3
2024-06-14 08:36:46.314,8.645,-64.89,-2.065,0.144448,0.003172,-1.0082079999999998,3
2024-06-14 08:36:46.319,8.54,-62.475,-1.8900000000000001,0.155916,0.013419999999999998,-0.989908,3
2024-06-14 08:36:46.324,7.91,-59.989999999999995,-2.17,0.166652,0.014152000000000001,-0.98332,3
2024-06-14 08:36:46.328,8.75,-57.644999999999996,-2.135,0.16714,0.011223999999999998,-0.9677039999999999,3
2024-06-14 08:36:46.333,10.254999999999999,-55.195,-1.9949999999999999,0.171532,0.0034159999999999998,-0.9781960000000001,3
2024-06-14 08:36:46.338,8.155,-52.36,-1.96,0.17324,-0.014152000000000001,-0.985028,3
2024-06-14 08:36:46.343,6.4399999999999995,-49.735,-1.47,0.176656,-0.026108,-0.97966,3
2024-06-14 08:36:46.348,4.235,-47.565,-1.12,0.17714400000000002,-0.018299999999999997,-0.9816119999999999,3
2024-06-14 08:36:46.353,2.24,-45.535,-0.84,0.180072,-0.019276,-0.9860039999999999,3
2024-06-14 08:36:46.357,0.7350000000000001,-43.504999999999995,-0.5599999999999999,0.186172,-0.012931999999999999,-0.9886879999999999,3
2024-06-14 08:36:46.362,-0.5249999999999999,-41.685,-0.385,0.19080799999999998,-0.016104,-0.989908,3
2024-06-14 08:36:46.367,-1.995,-39.795,-0.14,0.199104,-0.00976,-1.000156,3
2024-06-14 08:36:46.372,-2.5549999999999997,-37.8,0.0,0.199592,-0.0060999999999999995,-0.99064,3
2024-06-14 08:36:46.377,-2.38,-36.995000000000005,0.14,0.19690799999999997,0.0017079999999999999,-1.00162,3
2024-06-14 08:36:46.382,-1.89,-36.295,0.14,0.20007999999999998,0.0053679999999999995,-1.0091839999999999,3
2024-06-14 08:36:46.386,-1.575,-35.665,0.28,0.20251999999999998,-0.0034159999999999998,-1.020652,3
2024-06-14 08:36:46.391,-1.155,-35.455,0.42,0.20618,-0.008784,-1.023336,3
2024-06-14 08:36:46.396,-0.42,-35.49,0.665,0.20544800000000002,-0.000976,-1.030656,3
2024-06-14 08:36:46.401,0.56,-36.224999999999994,1.05,0.207644,-0.001464,-1.045296,3
2024-06-14 08:36:46.406,1.925,-37.1,1.155,0.207156,-0.006344,-1.058472,3
2024-06-14 08:36:46.411,3.7800000000000002,-38.114999999999995,1.54,0.202764,0.00366,-1.0723799999999999,3
2024-06-14 08:36:46.415,6.4399999999999995,-39.83,1.715,0.211548,0.011712,-1.083116,3
2024-06-14 08:36:46.420,9.695,-42.629999999999995,1.7850000000000001,0.21350000000000002,0.031476000000000004,-1.093852,3
2024-06-14 08:36:46.425,13.965,-45.22,1.54,0.21838000000000002,0.041968000000000005,-1.10288,3
2024-06-14 08:36:46.430,18.689999999999998,-48.195,1.19,0.213744,0.054167999999999994,-1.118252,3
2024-06-14 08:36:46.435,22.259999999999998,-50.68,0.595,0.20862,0.070272,-1.164612,3
2024-06-14 08:36:46.440,23.555,-53.760000000000005,-0.42,0.209596,0.066856,-1.1873040000000001,3
2024-06-14 08:36:46.444,24.009999999999998,-57.19,-1.19,0.217648,0.032208,-1.189988,3
2024-06-14 08:36:46.449,24.22,-60.165,-1.5750000000000002,0.22106399999999998,0.0036600000000000005,-1.186816,3
2024-06-14 08:36:46.454,23.94,-63.525000000000006,-1.68,0.22204,-0.0053679999999999995,-1.183888,3
2024-06-14 08:36:46.459,23.064999999999998,-66.955,-1.645,0.22814,-0.007808,-1.1838879999999998,3
2024-06-14 08:36:46.464,22.225,-69.93,-1.47,0.23546,-0.029524,-1.175592,3
2024-06-14 08:36:46.469,20.86,-73.08,-1.155,0.23814400000000002,-0.037576,-1.1880359999999999,3
2024-06-14 08:36:46.473,18.41,-76.09,-0.63,0.23936400000000002,-0.044408,-1.2082879999999998,3
2024-06-14 08:36:46.478,15.05,-79.625,-0.035,0.241072,-0.059048,-1.2273200000000002,3
2024-06-14 08:36:46.483,11.445,-84.315,0.805,0.238876,-0.088816,-1.2404959999999998,3
2024-06-14 08:36:46.488,8.12,-89.67,1.8900000000000001,0.24180400000000002,-0.094916,-1.2648959999999998,3
2024-06-14 08:36:46.493,4.725,-95.27000000000001,3.01,0.24814799999999998,-0.094672,-1.2880759999999998,3
2024-06-14 08:36:46.498,2.8,-101.5,4.305,0.254004,-0.100772,-1.331752,3
2024-06-14 08:36:46.502,1.365,-107.555,5.67,0.250344,-0.095892,-1.3490760000000002,3
2024-06-14 08:36:46.507,0.315,-114.975,6.825,0.253272,-0.083204,-1.367864,3
2024-06-14 08:36:46.512,-0.10500000000000001,-124.985,7.875,0.25302800000000003,-0.052704,-1.4091,3
2024-06-14 08:36:46.517,0.385,-132.89499999999998,8.61,0.25839599999999996,-0.041968000000000005,-1.4498479999999998,3
2024-06-14 08:36:46.522,0.5599999999999999,-141.75,9.100000000000001,0.254004,-0.03294,-1.4854720000000001,3
2024-06-14 08:36:46.527,2.065,-151.515,9.625,0.25717599999999996,-0.030012,-1.51036,3
2024-06-14 08:36:46.532,4.305,-162.05,10.219999999999999,0.253028,-0.026840000000000003,-1.540616,3
2024-06-14 08:36:46.536,5.075,-174.685,10.71,0.257664,-0.0305,-1.567456,3
2024-06-14 08:36:46.541,5.984999999999999,-187.39,11.445,0.24448799999999998,-0.029524,-1.5994199999999998,3
2024-06-14 08:36:46.546,7.385,-200.095,12.18,0.243756,-0.025132,-1.6267479999999999,3
2024-06-14 08:36:46.551,8.75,-213.745,13.16,0.235704,-0.043676,-1.644072,3
2024-06-14 08:36:46.556,11.375,-226.94,14.315000000000001,0.245952,-0.048311999999999994,-1.663836,3
2024-06-14 08:36:46.561,13.055,-241.255,15.190000000000001,0.23521599999999998,-0.041479999999999996,-1.6958000000000002,3
2024-06-14 08:36:46.565,15.365,-256.2,16.485,0.225456,-0.054655999999999996,-1.7345959999999998,3
2024-06-14 08:36:46.570,17.255000000000003,-271.74,17.64,0.22692,-0.077348,-1.7836400000000001,3
2024-06-14 08:36:46.575,18.27,-288.155,18.97,0.23131200000000002,-0.079544,-1.826828,3
2024-06-14 08:36:46.580,18.48,-305.585,20.125,0.240096,-0.127856,-1.8439079999999999,3
2024-06-14 08:36:46.585,19.18,-322.07,22.54,0.271816,-0.15128000000000003,-1.8797760000000001,3
2024-06-14 08:36:46.590,17.815,-339.745,24.185000000000002,0.296948,-0.159088,-1.970056,3
2024-06-14 08:36:46.594,17.465,-355.67,25.9,0.326472,-0.17714400000000002,-2.03618,3
2024-06-14 08:36:46.599,15.33,-371.875,27.965,0.35258,-0.24741599999999997,-2.04228,3
2024-06-14 08:36:46.604,15.399999999999999,-386.89,31.045,0.415288,-0.28572400000000003,-2.184532,3
2024-06-14 08:36:46.609,16.975,-396.62,33.18,0.4941,-0.25132,-2.315804,3
2024-06-14 08:36:46.614,15.96,-406.7,34.510000000000005,0.5424120000000001,-0.32012799999999997,-2.349964,3
2024-06-14 08:36:46.619,18.2,-414.89,38.92,0.5497319999999999,-0.415288,-2.398276,3
2024-06-14 08:36:46.623,17.744999999999997,-419.09000000000003,42.245000000000005,0.555588,-0.541436,-2.46684,3
2024-06-14 08:36:46.628,25.9,-420.45500000000004,51.519999999999996,0.49483200000000005,-0.656848,-2.490508,3
2024-06-14 08:36:46.633,26.845,-425.03999999999996,59.045,0.40137999999999996,-0.6202479999999999,-2.425116,3
2024-06-14 08:36:46.638,29.435,-427.525,64.785,0.38527599999999995,-0.6780759999999999,-2.549068,3
2024-06-14 08:36:46.643,32.655,-424.935,76.335,0.394792,-0.6849080000000001,-2.52296,3
2024-06-14 08:36:46.648,18.619999999999997,-425.21500000000003,86.065,0.400404,-0.573156,-2.381684,3
2024-06-14 08:36:46.652,2.17,-420.98,94.08,0.319152,-0.648064,-2.240164,3
2024-06-14 08:36:46.657,1.855,-417.095,102.06,0.281332,-0.899384,-2.0069,3
2024-06-14 08:36:46.662,21.63,-412.96500000000003,112.49,0.29914399999999997,-1.100928,-1.892952,4
2024-06-14 08:36:46.667,51.73,-415.625,122.64,0.236192,-1.215364,-1.8475679999999999,4
2024-06-14 08:36:46.672,91.42,-415.975,136.325,-0.023424,-1.3073519999999998,-1.8465919999999998,4
2024-06-14 08:36:46.677,129.15,-405.09000000000003,150.95499999999998,-0.24668399999999996,-1.268556,-1.7143439999999999,4
2024-06-14 08:36:46.681,151.26999999999998,-382.27,169.505,-0.427488,-1.047492,-1.733132,4
2024-06-14 08:36:46.686,157.07999999999998,-356.055,186.82999999999998,-0.680272,-0.815448,-1.5884399999999999,4
2024-06-14 08:36:46.691,152.14499999999998,-323.225,203.07,-0.944036,-0.660264,-1.425448,4
2024-06-14 08:36:46.696,139.64999999999998,-286.58,214.55,-1.004548,-0.48019199999999995,-1.262212,4
2024-06-14 08:36:46.701,117.005,-256.235,204.85500000000002,-0.30524399999999996,-0.451888,-0.886208,4
2024-06-14 08:36:46.706,95.48,-222.35500000000002,173.14499999999998,-0.255956,-0.337452,-1.212192,4
2024-06-14 08:36:46.710,67.48,-126.91,125.895,-1.135332,0.233508,-1.116788,4
2024-06-14 08:36:46.715,45.5,-39.2,69.965,-1.5676999999999999,0.47336,-0.5102040000000001,4
2024-06-14 08:36:46.720,12.215,32.235,13.65,-1.369084,0.366732,-0.5909679999999999,4
2024-06-14 08:36:46.725,-31.325000000000003,99.36500000000001,-36.82,-1.053836,0.26718,-0.855464,4
2024-06-14 08:36:46.730,-71.68,153.51,-78.47,-0.9384239999999999,0.191784,-0.9147559999999999,4
2024-06-14 08:36:46.735,-100.905,195.16,-107.625,-0.939644,-0.019764,-0.912072,4
2024-06-14 08:36:46.743,-120.015,227.57,-123.75999999999999,-0.882548,-0.244,-0.915244,4
2024-06-14 08:36:46.747,-127.785,252.42,-129.22,-0.782264,-0.422852,-0.948672,4
2024-06-14 08:36:46.752,-124.25,270.375,-126.77000000000001,-0.69174,-0.578768,-0.989664,4
2024-06-14 08:36:46.757,-109.935,282.94,-117.42500000000001,-0.627568,-0.6897880000000001,-0.9901519999999999,4
2024-06-14 08:36:46.762,-88.69,290.53499999999997,-102.97,-0.550952,-0.7363919999999999,-0.9706319999999999,4
2024-06-14 08:36:46.767,-65.73,293.23,-86.03,-0.48019199999999995,-0.7046720000000001,-0.957212,4
2024-06-14 08:36:46.771,-45.989999999999995,291.9,-69.125,-0.422364,-0.6539200000000001,-0.9423279999999999,4
2024-06-14 08:36:46.776,-30.73,287.735,-52.605000000000004,-0.38161599999999996,-0.56974,-0.917928,4
2024-06-14 08:36:46.781,-20.475,282.17,-37.135000000000005,-0.342576,-0.46262400000000004,-0.881572,4
2024-06-14 08:36:46.786,-15.75,275.24,-23.66,-0.31232000000000004,-0.37063599999999997,-0.854976,4
2024-06-14 08:36:46.791,-15.82,268.345,-11.795000000000002,-0.295484,-0.29768,-0.824232,4
2024-06-14 08:36:46.795,-19.25,263.06,-1.05,-0.292312,-0.249368,-0.795196,4
2024-06-14 08:36:46.800,-24.08,260.995,8.61,-0.302804,-0.22204000000000002,-0.789828,4
2024-06-14 08:36:46.805,-28.595,262.675,17.08,-0.31890799999999997,-0.21789199999999997,-0.790316,4
2024-06-14 08:36:46.810,-31.815,267.68,24.535,-0.327936,-0.23204399999999997,-0.807884,4
2024-06-14 08:36:46.815,-33.144999999999996,275.73,30.939999999999998,-0.33549999999999996,-0.240096,-0.826916,4
2024-06-14 08:36:46.819,-32.515,285.425,36.575,-0.34282,-0.238632,-0.8632719999999999,4
2024-06-14 08:36:46.824,-31.22,295.225,40.775,-0.349652,-0.221552,-0.8984080000000001,4
2024-06-14 08:36:46.829,-29.435000000000002,305.54999999999995,43.61,-0.351116,-0.195444,-0.939644,4
2024-06-14 08:36:46.834,-27.475,315.735,45.185,-0.350872,-0.173484,-0.967948,4
2024-06-14 08:36:46.839,-26.04,325.28999999999996,45.185,-0.352336,-0.152256,-0.9925919999999999,4
2024-06-14 08:36:46.844,-24.884999999999998,334.18,43.925,-0.34355199999999997,-0.13419999999999999,-1.0248,4
2024-06-14 08:36:46.848,-23.625,340.97,41.754999999999995,-0.315492,-0.130296,-1.067256,4
2024-06-14 08:36:46.853,-21.490000000000002,346.745,39.165,-0.301828,-0.12956399999999998,-1.114592,4
2024-06-14 08:36:46.858,-17.78,351.71500000000003,36.225,-0.27767200000000003,-0.142984,-1.137284,4
2024-06-14 08:36:46.863,-12.915,355.6,33.11,-0.25546800000000003,-0.15811199999999997,-1.173152,4
2024-06-14 08:36:46.868,-6.125,358.4,29.96,-0.231068,-0.169336,-1.2197559999999998,4
2024-06-14 08:36:46.872,2.065,360.185,26.635,-0.207156,-0.179584,-1.2612359999999998,4
2024-06-14 08:36:46.877,11.06,360.91999999999996,22.995,-0.17177599999999998,-0.177876,-1.3078400000000001,4
2024-06-14 08:36:46.882,19.810000000000002,360.04499999999996,19.04,-0.135176,-0.16348,-1.35786,4
2024-06-14 08:36:46.887,28.244999999999997,357.80499999999995,14.665,-0.100772,-0.148596,-1.4071479999999998,4
2024-06-14 08:36:46.892,36.155,354.54999999999995,10.115,-0.066612,-0.13346799999999998,-1.44814,4
2024-06-14 08:36:46.896,44.135000000000005,350.245,5.5649999999999995,-0.031232,-0.122,-1.490108,4
2024-06-14 08:36:46.901,52.394999999999996,345.275,0.8049999999999999,0.0031720000000000003,-0.09272,-1.5340280000000002,4
2024-06-14 08:36:46.906,60.2,340.55,-4.06,0.02318,-0.077348,-1.582584,4
2024-06-14 08:36:46.911,65.94,335.96500000000003,-8.925,0.051484,-0.035868,-1.623088,4
2024-06-14 08:36:46.916,69.93,332.22,-14.455,0.06417199999999999,0.004148000000000001,-1.6787199999999998,4
2024-06-14 08:36:46.920,72.1,329.56,-20.265,0.06758799999999998,0.034159999999999996,-1.7309359999999998,4
2024-06-14 08:36:46.925,73.185,327.845,-26.075000000000003,0.070272,0.044407999999999996,-1.771196,4
2024-06-14 08:36:46.930,73.91999999999999,326.76,-31.71,0.068076,0.049776,-1.818044,4
2024-06-14 08:36:46.935,75.18,326.095,-37.135000000000005,0.071004,0.04953200000000001,-1.8602560000000001,4
2024-06-14 08:36:46.940,76.72,325.815,-42.245000000000005,0.074176,0.040015999999999996,-1.9032,4
2024-06-14 08:36:46.945,78.33,325.185,-47.04,0.082716,0.029767999999999996,-1.9476079999999998,4
2024-06-14 08:36:46.949,79.1,323.78499999999997,-51.239999999999995,0.092476,0.016592,-1.988112,4
2024-06-14 08:36:46.954,79.345,321.3,-54.53,0.101016,-0.005856,-2.031056,4
2024-06-14 08:36:46.959,79.765,318.5,-56.455,0.118096,-0.033184000000000005,-2.088884,4
2024-06-14 08:36:46.964,80.535,315.49,-57.015,0.136152,-0.05855999999999999,-2.142808,4
2024-06-14 08:36:46.969,81.58500000000001,312.62,-56.105000000000004,0.169092,-0.09101200000000001,-2.203808,4
2024-06-14 08:36:46.973,84.07,310.20500000000004,-53.795,0.209108,-0.113948,-2.2704199999999997,4
2024-06-14 08:36:46.978,87.39500000000001,308.98,-50.400000000000006,0.252784,-0.12932,-2.3382519999999998,4
2024-06-14 08:36:46.983,90.265,308.105,-47.215,0.3111,-0.13468799999999997,-2.4124280000000002,4
2024-06-14 08:36:46.988,92.75,307.23,-44.695,0.380884,-0.131516,-2.4802599999999995,4
2024-06-14 08:36:46.993,94.815,307.02,-43.33,0.458232,-0.12858799999999998,-2.540772,4
2024-06-14 08:36:46.997,96.74,306.25,-43.54,0.543144,-0.122732,-2.5790800000000003,4
2024-06-14 08:36:47.002,98.38499999999999,304.815,-45.185,0.630252,-0.118096,-2.6054319999999995,4
2024-06-14 08:36:47.007,99.855,302.785,-48.195,0.7315119999999999,-0.11663199999999999,-2.620316,4
2024-06-14 08:36:47.012,100.905,299.495,-51.905,0.8386279999999999,-0.119804,-2.62422,4
2024-06-14 08:36:47.017,102.27000000000001,295.015,-55.894999999999996,0.95282,-0.12468399999999999,-2.612996,4
2024-06-14 08:36:47.022,104.02000000000001,289.555,-59.815,1.089704,-0.139324,-2.58518,4
2024-06-14 08:36:47.026,106.295,282.83500000000004,-63.175,1.23952,-0.166896,-2.5363800000000003,4
2024-06-14 08:36:47.031,108.36,274.995,-65.205,1.391044,-0.189344,-2.4675719999999997,4
2024-06-14 08:36:47.036,111.09,266.45500000000004,-64.61,1.5496439999999998,-0.23765599999999998,-2.375096,4
2024-06-14 08:36:47.041,116.83000000000001,257.39,-60.025000000000006,1.751432,-0.27425599999999994,-2.311656,4
2024-06-14 08:36:47.046,125.44,248.92,-52.325,1.98738,-0.26352,-2.247484,4
2024-06-14 08:36:47.050,131.88,239.015,-43.75,2.1996599999999997,-0.18788,-2.151104,4
2024-06-14 08:36:47.055,135.555,228.26999999999998,-35.245000000000005,2.4273119999999997,-0.0915,-2.0269079999999997,4
2024-06-14 08:36:47.060,136.99,216.57999999999998,-26.494999999999997,2.7001039999999996,0.025376000000000003,-1.902224,4
2024-06-14 08:36:47.065,138.74,204.39999999999998,-17.395,3.048292,0.16958,-1.777784,4
2024-06-14 08:36:47.070,143.71,191.66000000000003,-8.19,3.467972,0.3782,-1.636508,4
2024-06-14 08:36:47.074,151.445,176.68,-0.2799999999999999,3.9288879999999997,0.693204,-1.54696,4
2024-06-14 08:36:47.079,155.75,156.34500000000003,3.8150000000000004,4.357352,1.12484,-1.522072,4
2024-06-14 08:36:47.084,144.095,128.065,2.8,4.630876,1.60674,-1.5047480000000002,4
2024-06-14 08:36:47.089,108.885,91.35,-3.115,4.690168,2.017148,-1.47132,4
2024-06-14 08:36:47.094,53.97,49.175,-11.655,4.565728,2.187216,-1.4213,4
2024-06-14 08:36:47.098,-8.225,6.755000000000001,-18.97,4.274147999999999,2.046916,-1.367132,4
2024-06-14 08:36:47.103,-62.44,-30.905,-21.945,3.8739879999999998,1.65798,-1.329068,4
2024-06-14 08:36:47.108,-99.435,-59.745,-20.545,3.4521119999999996,1.168028,-1.299544,4
2024-06-14 08:36:47.113,-117.635,-79.275,-15.645,3.02072,0.724192,-1.2661159999999998,4
2024-06-14 08:36:47.118,-122.43,-90.965,-9.975,2.636908,0.42456000000000005,-1.24318,4
2024-06-14 08:36:47.123,-119.0,-96.88,-7.42,2.304092,0.24985600000000002,-1.2444,4
2024-06-14 08:36:47.127,-219.555,-207.41000000000003,-6.79,4.846083999999999,-0.290116,-3.2376359999999997,0
