time,gyroscope_x,gyroscope_y,gyroscope_z,accelerometer_x,accelerometer_y,accelerometer_z,phase
2024-06-14 10:23:41.663,78.19,-397.985,-48.09,6.872503999999999,-0.9189039999999999,-6.887632,1
2024-06-14 10:23:41.668,146.51,-327.21500000000003,-46.935,4.139216,0.068564,3.043168,1
2024-06-14 10:23:41.673,197.12,-357.0,-69.055,2.36802,0.6812480000000001,-1.0692080000000002,1
2024-06-14 10:23:41.677,217.0,-419.37,-66.815,1.1375279999999999,-0.259616,-1.123864,1
2024-06-14 10:23:41.682,155.19,-428.12,-53.375,-0.394304,-0.325252,-1.92638,1
2024-06-14 10:23:41.687,72.44999999999999,-403.865,-32.41,-0.5885279999999999,0.056364000000000004,-2.2347960000000002,1
2024-06-14 10:23:41.692,1.5749999999999993,-379.61,-5.215,-0.449936,0.355752,-2.1989280000000004,1
2024-06-14 10:23:41.697,-49.91,-371.245,19.740000000000002,0.293776,0.39894,-1.9139359999999999,1
2024-06-14 10:23:41.702,-56.84,-367.185,31.325,0.585356,0.138836,-2.210884,1
2024-06-14 10:23:41.706,-46.935,-366.24,32.9,0.594872,-0.043188,-2.2311360000000002,1
2024-06-14 10:23:41.711,-50.4,-368.06,33.005,0.143716,0.009271999999999999,-2.227964,1
2024-06-14 10:23:41.716,-46.865,-346.42999999999995,35.35,0.041968,-0.135908,-2.83162,1
2024-06-14 10:23:41.721,-39.935,-275.79999999999995,27.09,0.23033599999999999,-0.21301199999999998,-2.4851399999999995,1
2024-06-14 10:23:41.726,-15.33,-244.44,14.49,0.300608,-0.131272,-2.45464,1
2024-06-14 10:23:41.730,1.0499999999999998,-208.005,4.97,0.357948,-0.014395999999999999,-2.152812,1
2024-06-14 10:23:41.735,6.02,-172.935,2.24,0.207644,0.046116,-1.627236,1
2024-06-14 10:23:41.740,9.625,-103.53,5.565,0.206668,0.09223200000000001,-1.509628,1
2024-06-14 10:23:41.745,1.0150000000000001,-42.945,8.785,0.119316,0.054655999999999996,-1.234396,1
2024-06-14 10:23:41.750,-1.085,-20.335,9.485,0.09418399999999999,0.027571999999999996,-1.123132,1
2024-06-14 10:23:41.755,-2.73,-14.49,8.155000000000001,0.063928,0.020007999999999998,-1.064572,1
2024-06-14 10:23:41.759,-4.795,-12.11,7.875,0.025375999999999996,-0.011712,-1.031388,1
2024-06-14 10:23:41.764,-5.215,-5.705,7.21,0.037576,0.054167999999999994,-1.0187,2
2024-06-14 10:23:41.769,-4.585,-4.095,8.61,0.045384,0.034648,-1.020896,2
2024-06-14 10:23:41.774,-4.234999999999999,-2.6950000000000003,7.0,0.009759999999999998,-0.00854,-1.0248,2
2024-06-14 10:23:41.779,-3.01,-3.815,3.71,0.036356,0.012687999999999998,-1.01748,2
2024-06-14 10:23:41.783,-3.36,-3.71,1.155,0.03781999999999999,0.009028,-1.016016,2
2024-06-14 10:23:41.788,-1.7149999999999999,-3.1149999999999998,-0.42,0.012932,0.029524,-1.016016,2
2024-06-14 10:23:41.793,-1.995,-3.6399999999999997,-0.7350000000000001,0.0036599999999999996,0.035624,-1.005768,2
2024-06-14 10:23:41.798,-1.26,-3.3600000000000003,-0.7,-0.004148000000000001,0.030987999999999998,-1.0023520000000001,2
2024-06-14 10:23:41.803,-0.7,-2.59,-1.05,-0.005856,0.025619999999999997,-1.00894,2
2024-06-14 10:23:41.808,-0.77,-2.7649999999999997,-1.33,-0.007808000000000001,0.01952,-1.0108920000000001,2
2024-06-14 10:23:41.812,-0.63,-3.325,-1.505,-0.00976,0.027572,-1.011136,2
2024-06-14 10:23:41.817,-0.56,-3.955,-1.435,-0.010736,0.032451999999999995,-1.0060120000000001,2
2024-06-14 10:23:41.822,-0.315,-3.885,-1.435,-0.014639999999999999,0.02318,-1.0057680000000002,2
2024-06-14 10:23:41.827,-0.27999999999999997,-4.34,-1.7149999999999999,-0.01098,0.02318,-1.0067439999999999,2
2024-06-14 10:23:41.832,0.0,-4.83,-1.715,-0.010248,0.024156,-1.0091839999999999,2
2024-06-14 10:23:41.836,-0.07,-6.265,-1.715,-0.013176,0.022448000000000003,-1.0065,2
2024-06-14 10:23:41.841,-0.245,-6.65,-1.75,-0.01342,0.026595999999999998,-1.00528,2
2024-06-14 10:23:41.846,-0.14,-7.5600000000000005,-1.96,-0.01708,0.024888,-1.006744,2
2024-06-14 10:23:41.849,-0.21000000000000002,-8.05,-2.065,-0.013908,0.026352,-1.0006439999999999,2
2024-06-14 10:23:41.854,0.14,-7.91,-2.065,-0.014395999999999999,0.021471999999999998,-1.006256,2
2024-06-14 10:23:41.859,0.9450000000000001,-7.595000000000001,-1.89,-0.011224000000000001,0.025132,-1.00528,2
2024-06-14 10:23:41.863,0.7,-7.91,-1.96,-0.015372,0.024888,-1.00406,2
2024-06-14 10:23:41.868,0.875,-8.575,-1.96,-0.011956,0.02318,-1.001864,2
2024-06-14 10:23:41.873,0.84,-8.89,-1.96,-0.010492000000000001,0.026108,-1.002108,2
2024-06-14 10:23:41.878,1.155,-8.995000000000001,-2.065,-0.009271999999999999,0.026108,-1.000156,2
2024-06-14 10:23:41.883,1.365,-9.344999999999999,-2.0999999999999996,-0.011956000000000001,0.02928,-0.9964959999999999,2
2024-06-14 10:23:41.888,1.6800000000000002,-9.309999999999999,-2.135,-0.010004,0.026352,-1.000156,2
2024-06-14 10:23:41.892,1.925,-10.325,-2.2750000000000004,-0.006588,0.026839999999999996,-0.9986919999999999,2
2024-06-14 10:23:41.897,2.0999999999999996,-9.45,-2.205,-0.007564,0.024399999999999998,-0.9994240000000001,2
2024-06-14 10:23:41.902,2.3449999999999998,-10.149999999999999,-2.415,-0.011712,0.023668,-0.9938119999999999,2
2024-06-14 10:23:41.907,2.2750000000000004,-8.61,-2.45,-0.005612000000000001,0.024399999999999998,-1.000644,2
2024-06-14 10:23:41.912,2.4850000000000003,-9.695,-2.45,-0.007076,0.026352,-0.999912,2
2024-06-14 10:23:41.917,2.73,-9.625,-2.555,-0.007808,0.024887999999999997,-0.999424,2
2024-06-14 10:23:41.921,3.5,-0.875,-2.765,-0.003172,0.02928,-0.9962519999999999,2
2024-06-14 10:23:41.926,4.0600000000000005,-9.45,-2.73,0.00048799999999999994,0.029036,-0.99308,2
2024-06-14 10:23:41.931,3.255,-7.98,-2.52,-0.0034159999999999998,0.030011999999999997,-0.99552,2
2024-06-14 10:23:41.936,3.15,-12.25,-2.275,-0.00024400000000000008,0.017079999999999998,-0.99796,2
2024-06-14 10:23:41.941,2.9749999999999996,-8.33,-2.73,-0.0009760000000000001,0.022935999999999998,-1.0023520000000001,2
2024-06-14 10:23:41.946,2.94,-8.4,-3.01,0.005124,0.025132,-1.0011320000000001,2
2024-06-14 10:23:41.950,2.73,-8.575,-2.7649999999999997,0.004636,0.02928,-1.0004,2
2024-06-14 10:23:41.955,2.73,-8.295,-2.555,0.004148,0.025376,-1.0006439999999999,2
2024-06-14 10:23:41.960,2.87,-8.05,-2.835,0.009028,0.025376,-0.998204,2
2024-06-14 10:23:41.965,2.38,-7.5600000000000005,-3.115,-0.0009759999999999999,0.020007999999999998,-0.999424,2
2024-06-14 10:23:41.970,2.38,-6.51,-3.2199999999999998,0.0068319999999999995,0.01952,-0.9952759999999999,2
2024-06-14 10:23:41.975,2.345,-6.895,-3.01,0.010492,0.030987999999999998,-1.0004,2
2024-06-14 10:23:41.980,2.52,-6.789999999999999,-3.29,0.0039040000000000004,0.028303999999999996,-0.9999119999999999,2
2024-06-14 10:23:41.984,2.38,-7.3149999999999995,-3.255,0.01098,0.01464,-1.0035720000000001,2
2024-06-14 10:23:41.989,2.24,-8.12,-3.325,0.008539999999999999,0.016836,-1.0004,2
2024-06-14 10:23:41.994,1.54,-8.995000000000001,-3.1849999999999996,0.00366,0.025619999999999997,-0.999424,2
2024-06-14 10:23:41.999,1.295,-9.765,-3.255,0.00366,0.027572,-1.0030839999999999,2
2024-06-14 10:23:42.004,1.12,-10.71,-3.395,0.018056000000000003,0.014395999999999999,-1.0043039999999999,2
2024-06-14 10:23:42.009,1.12,-11.515,-3.535,0.019764,0.02074,-1.0072320000000001,2
2024-06-14 10:23:42.013,1.435,-12.425,-3.535,0.017812,0.027084,-1.008208,2
2024-06-14 10:23:42.018,1.575,-14.280000000000001,-3.43,0.005124,0.025376,-1.014552,2
2024-06-14 10:23:42.023,2.0300000000000002,-17.955,-3.6399999999999997,0.0009760000000000001,0.038064,-1.0240679999999998,2
2024-06-14 10:23:42.028,3.64,-22.155,-4.13,0.0017079999999999999,0.041724,-1.02724,2
2024-06-14 10:23:42.033,6.79,-28.945,-4.445,0.004148000000000001,0.044408,-1.0243120000000001,2
2024-06-14 10:23:42.038,6.965,-31.535,-4.795,0.012931999999999999,0.043676000000000006,-1.028948,2
2024-06-14 10:23:42.042,8.61,-34.545,-4.62,0.014151999999999998,0.038551999999999996,-1.038708,2
2024-06-14 10:23:42.047,11.865,-39.795,-4.69,0.012931999999999999,0.04514,-1.0762839999999998,2
2024-06-14 10:23:42.052,12.774999999999999,-46.97,-4.970000000000001,0.011224,0.046116000000000004,-1.0494439999999998,2
2024-06-14 10:23:42.057,13.86,-48.370000000000005,-5.6,0.009028,0.045871999999999996,-1.05774,2
2024-06-14 10:23:42.062,12.39,-51.1,-6.51,0.022448000000000003,0.077836,-1.045296,2
2024-06-14 10:23:42.067,10.675,-53.69,-8.47,0.021227999999999997,0.08954799999999999,-1.059692,2
2024-06-14 10:23:42.071,11.9,-56.595,-10.045,0.031476,0.103212,-1.092388,2
2024-06-14 10:23:42.076,10.5,-54.46,-11.48,0.02684,0.035624,-1.080188,2
2024-06-14 10:23:42.081,28.805,-58.905,-12.004999999999999,0.056364,0.124928,-1.2078000000000002,2
2024-06-14 10:23:42.086,18.375,-58.24,-14.559999999999999,0.08662,0.035136,-1.1580240000000002,2
2024-06-14 10:23:42.091,0.49,-47.459999999999994,-14.524999999999999,0.082716,-0.0427,-1.251232,2
2024-06-14 10:23:42.096,-8.365,-47.39,-13.51,0.088816,-0.128344,-1.36884,2
2024-06-14 10:23:42.100,-12.18,-50.015,-9.905000000000001,0.084424,-0.18324400000000002,-1.344684,2
2024-06-14 10:23:42.105,-11.76,-56.0,-6.404999999999999,0.068564,-0.11175199999999999,-1.307596,2
2024-06-14 10:23:42.110,-13.475000000000001,-59.010000000000005,-4.585,0.07076,-0.09174399999999999,-1.306376,2
2024-06-14 10:23:42.115,-15.399999999999999,-67.16499999999999,-2.485,0.083448,-0.03611199999999999,-1.35054,2
2024-06-14 10:23:42.120,-12.844999999999999,-71.53999999999999,-2.345,0.060267999999999995,-0.01342,-1.3110119999999998,2
2024-06-14 10:23:42.125,-17.990000000000002,-77.21000000000001,-1.4,0.066612,-0.05002,-1.358104,2
2024-06-14 10:23:42.129,-19.564999999999998,-83.72,-0.385,0.07466400000000001,-0.057095999999999994,-1.3820160000000001,2
2024-06-14 10:23:42.134,-23.625,-89.63499999999999,0.455,0.07198,-0.045628,-1.3832360000000001,2
2024-06-14 10:23:42.139,-25.165,-95.34,1.505,0.066612,-0.075152,-1.436672,2
2024-06-14 10:23:42.144,-26.634999999999998,-104.825,2.24,0.0854,0.005124,-1.305888,2
2024-06-14 10:23:42.149,-28.42,-111.265,1.855,0.068564,0.016104,-1.3705479999999999,2
2024-06-14 10:23:42.154,-29.82,-119.735,1.89,0.062220000000000004,-0.03294,-1.373232,3
2024-06-14 10:23:42.158,-33.005,-128.97500000000002,3.08,0.07564000000000001,-0.071492,-1.4291079999999998,3
2024-06-14 10:23:42.163,-37.065,-141.32999999999998,3.745,0.076616,-0.040992,-1.4369159999999999,3
2024-06-14 10:23:42.168,-39.34,-154.315,3.92,0.07002799999999998,-0.025619999999999997,-1.4415520000000002,3
2024-06-14 10:23:42.173,-41.265,-167.33499999999998,3.605,0.066612,0.021227999999999997,-1.4771759999999998,3
2024-06-14 10:23:42.178,-42.35,-182.105,3.115,0.06099999999999999,0.028548,-1.528172,3
2024-06-14 10:23:42.183,-44.1,-199.64,2.03,0.060756000000000004,0.056608,-1.5401280000000002,3
2024-06-14 10:23:42.188,-47.32,-216.685,1.26,0.06124399999999999,0.014395999999999997,-1.647,3
2024-06-14 10:23:42.192,-49.56,-235.655,0.665,0.052947999999999995,0.058804,-1.698972,3
2024-06-14 10:23:42.197,-52.885,-252.035,0.035,0.062952,0.008052,-1.7504559999999998,3
2024-06-14 10:23:42.202,-59.71,-270.27,0.245,0.069296,-0.046116000000000004,-1.8697719999999998,3
2024-06-14 10:23:42.207,-64.925,-287.21,1.6099999999999999,0.07808,-0.090768,-2.050576,3
2024-06-14 10:23:42.212,-65.24000000000001,-304.22,2.73,0.06417199999999999,-0.0039039999999999995,-2.1201160000000003,3
2024-06-14 10:23:42.217,-70.42,-323.225,2.2750000000000004,0.06222,0.06758800000000001,-2.223084,3
2024-06-14 10:23:42.221,-76.09,-340.515,1.855,0.06612399999999999,0.063928,-2.447076,3
2024-06-14 10:23:42.226,-80.85,-360.325,1.05,0.036356,0.077348,-2.443416,3
2024-06-14 10:23:42.231,-86.59,-380.275,0.315,0.013176,0.16226000000000002,-2.5163720000000005,3
2024-06-14 10:23:42.236,-99.75,-398.02,-2.4850000000000003,0.012200000000000003,0.24009599999999998,-2.701812,3
2024-06-14 10:23:42.241,-121.13499999999999,-417.375,-7.42,0.031476,0.203008,-2.928976,3
2024-06-14 10:23:42.246,-117.565,-434.98,-8.855,0.091256,-0.02074,-3.138328,3
2024-06-14 10:23:42.250,-117.46000000000001,-453.46000000000004,-7.735,0.187636,-0.219356,-3.3428,3
2024-06-14 10:23:42.255,-107.345,-468.3,-3.64,0.228384,-0.26083599999999996,-3.401848,3
2024-06-14 10:23:42.260,-97.685,-477.96000000000004,-2.065,0.23912,-0.399672,-3.384768,3
2024-06-14 10:23:42.265,-68.53,-477.92499999999995,4.305,0.2135,-0.503128,-3.6285239999999996,3
2024-06-14 10:23:42.270,-52.85,-475.23,11.515,0.069296,-0.21838,-3.779804,3
2024-06-14 10:23:42.275,-42.595,-469.56,13.3,-0.396256,0.011956000000000001,-3.704652,3
2024-06-14 10:23:42.279,-31.36,-467.25,12.425,-0.8386279999999999,0.090036,-3.5094519999999996,3
2024-06-14 10:23:42.284,-13.09,-463.155,10.780000000000001,-1.409832,0.1403,-3.081964,3
2024-06-14 10:23:42.289,-9.135,-456.855,2.87,-1.540372,-0.025376000000000003,-2.704984,3
2024-06-14 10:23:42.294,-17.255000000000003,-456.54,2.24,-1.7885199999999999,0.280844,-2.5781039999999997,3
2024-06-14 10:23:42.299,-34.614999999999995,-481.46000000000004,-5.705,-2.2106399999999997,0.212524,-2.296772,3
2024-06-14 10:23:42.304,-37.835,-550.935,-21.315,-2.692052,0.42821999999999993,-2.1728199999999998,3
2024-06-14 10:23:42.308,-34.019999999999996,-609.665,-52.675,-2.291648,0.569984,-0.32915599999999995,3
2024-06-14 10:23:42.313,-72.275,-529.2,-74.305,-1.566236,0.36111999999999994,1.261968,3
2024-06-14 10:23:42.318,28.175,-360.36,-69.44,-2.0374,-0.01464,0.69418,3
2024-06-14 10:23:42.323,-19.88,-357.0,-61.145,-1.901004,0.120536,-1.402024,3
2024-06-14 10:23:42.328,6.79,-163.065,-43.505,-1.662128,-0.19690800000000003,-1.547936,3
2024-06-14 10:23:42.333,48.965,-77.805,-23.939999999999998,-1.9546839999999999,-0.393084,-1.092876,3
2024-06-14 10:23:42.337,77.175,-7.280000000000001,-9.135,-1.9607839999999999,-0.30743999999999994,-1.088972,3
2024-06-14 10:23:42.342,106.92500000000001,43.715,2.975,-1.6567599999999998,-0.218136,-1.132404,3
2024-06-14 10:23:42.347,128.31,78.155,13.055,-1.4598519999999997,-0.11224,-1.1399679999999999,3
2024-06-14 10:23:42.352,136.85,100.1,17.22,-1.3925079999999999,0.012931999999999997,-1.046272,3
2024-06-14 10:23:42.357,137.97,113.36500000000001,16.59,-1.33956,0.110288,-0.934764,3
2024-06-14 10:23:42.362,128.73,122.255,13.370000000000001,-1.27124,0.170068,-0.8413120000000001,3
2024-06-14 10:23:42.366,117.285,130.445,9.94,-1.2087759999999999,0.20251999999999998,-0.775188,3
2024-06-14 10:23:42.371,100.065,140.10500000000002,5.390000000000001,-1.151192,0.22448,-0.7017439999999999,3
2024-06-14 10:23:42.376,82.91499999999999,152.18,0.49000000000000005,-1.1162999999999998,0.22277199999999997,-0.639524,4
2024-06-14 10:23:42.381,65.45,166.32,-4.06,-1.076284,0.196664,-0.5977999999999999,4
2024-06-14 10:23:42.386,51.45,182.28,-7.525,-1.0230920000000001,0.143228,-0.579744,4
2024-06-14 10:23:42.391,42.42,199.36,-9.555,-0.96624,0.087352,-0.5782800000000001,4
2024-06-14 10:23:42.398,37.730000000000004,216.195,-10.71,-0.9159759999999999,0.014395999999999999,-0.603656,4
2024-06-14 10:23:42.402,40.075,232.925,-10.465,-0.850096,-0.012687999999999998,-0.5921879999999999,4
2024-06-14 10:23:42.407,47.74,248.64,-9.66,-0.791048,-0.050752000000000005,-0.620004,4
2024-06-14 10:23:42.412,57.155,263.445,-8.89,-0.719556,-0.063196,-0.659044,4
2024-06-14 10:23:42.417,66.395,276.91999999999996,-8.190000000000001,-0.6439159999999999,-0.047824,-0.6954,4
2024-06-14 10:23:42.422,75.25,289.8,-8.155000000000001,-0.574864,-0.025376000000000003,-0.7402959999999998,4
2024-06-14 10:23:42.426,81.725,301.385,-9.03,-0.5182559999999999,0.009516000000000002,-0.781776,4
2024-06-14 10:23:42.431,85.53999999999999,311.64,-10.185,-0.456524,0.041236,-0.828624,4
2024-06-14 10:23:42.436,86.45,320.39,-11.934999999999999,-0.39771999999999996,0.07417599999999999,-0.876204,4
2024-06-14 10:23:42.441,84.945,327.70500000000004,-13.86,-0.33574400000000004,0.104432,-0.929152,4
2024-06-14 10:23:42.446,81.305,333.34000000000003,-15.889999999999999,-0.282064,0.12224399999999999,-0.9706319999999999,4
2024-06-14 10:23:42.451,76.72,337.995,-17.465,-0.24253599999999997,0.12688,-1.001376,4
2024-06-14 10:23:42.455,72.03,342.02,-18.270000000000003,-0.20666800000000002,0.118096,-1.026996,4
2024-06-14 10:23:42.460,67.06,345.205,-18.725,-0.17568,0.114436,-1.063108,4
2024-06-14 10:23:42.465,62.825,348.32000000000005,-18.305,-0.152012,0.10345599999999999,-1.103368,4
2024-06-14 10:23:42.470,59.185,351.575,-17.29,-0.133712,0.09906399999999999,-1.1419199999999998,4
2024-06-14 10:23:42.475,56.14,355.67,-15.855,-0.129076,0.098088,-1.183888,4
2024-06-14 10:23:42.479,52.535,360.115,-14.525,-0.10491999999999999,0.103212,-1.219512,4
2024-06-14 10:23:42.484,48.685,365.12,-12.879999999999999,-0.096868,0.108336,-1.275388,4
2024-06-14 10:23:42.489,45.325,370.65,-11.165,-0.08759600000000001,0.101748,-1.3341919999999998,4
2024-06-14 10:23:42.494,42.14,375.97,-9.31,-0.070272,0.093208,-1.38958,4
2024-06-14 10:23:42.499,39.2,381.04499999999996,-7.385,-0.055632,0.08832799999999999,-1.449848,4
2024-06-14 10:23:42.504,36.33,385.245,-5.32,-0.038796,0.08515599999999998,-1.515972,4
2024-06-14 10:23:42.508,33.845,388.71000000000004,-3.465,-0.01342,0.086864,-1.5767280000000001,4
2024-06-14 10:23:42.513,31.675,391.02,-2.065,0.01464,0.09418399999999999,-1.6548079999999998,4
2024-06-14 10:23:42.518,29.26,391.65,-1.12,0.052947999999999995,0.10589599999999999,-1.734352,4
2024-06-14 10:23:42.523,26.39,389.515,-0.7,0.101748,0.121512,-1.81048,4
2024-06-14 10:23:42.528,23.345,385.7,-0.665,0.15738000000000002,0.139568,-1.8663559999999997,4
2024-06-14 10:23:42.532,19.145,380.59000000000003,-0.9099999999999999,0.199592,0.15884399999999999,-1.92272,4
2024-06-14 10:23:42.537,13.545,374.5,-1.82,0.239608,0.17446,-1.98128,4
2024-06-14 10:23:42.542,7.21,368.20000000000005,-2.9050000000000002,0.293288,0.1769,-2.0415479999999997,4
2024-06-14 10:23:42.547,1.05,361.62,-3.5700000000000003,0.35136,0.174948,-2.109624,4
2024-06-14 10:23:42.552,-4.095,354.58500000000004,-3.5700000000000003,0.41626399999999997,0.156404,-2.185264,4
2024-06-14 10:23:42.557,-7.5600000000000005,347.375,-2.7649999999999997,0.476776,0.13590799999999997,-2.257976,4
2024-06-14 10:23:42.561,-8.82,340.9,-0.91,0.53436,0.114924,-2.326784,4
2024-06-14 10:23:42.566,-8.469999999999999,335.93,1.68,0.59902,0.101016,-2.3729,4
2024-06-14 10:23:42.571,-6.93,333.095,5.005,0.6744159999999999,0.09906399999999999,-2.412184,4
2024-06-14 10:23:42.576,-4.970000000000001,332.605,8.190000000000001,0.751764,0.100284,-2.431704,4
2024-06-14 10:23:42.581,-3.15,334.355,10.745,0.819352,0.108824,-2.4339,4
2024-06-14 10:23:42.585,-1.365,337.645,12.145,0.887672,0.13054,-2.420724,4
2024-06-14 10:23:42.590,1.085,341.88,12.425,0.9579439999999999,0.15982,-2.397544,4
2024-06-14 10:23:42.595,4.725,346.255,11.585,1.036756,0.19934800000000003,-2.38388,4
2024-06-14 10:23:42.600,10.08,349.195,9.625,1.124352,0.251564,-2.388516,4
2024-06-14 10:23:42.605,15.120000000000001,349.685,6.615,1.243424,0.316956,-2.399496,4
2024-06-14 10:23:42.610,17.465,347.935,2.5549999999999997,1.3542,0.383568,-2.415356,4
2024-06-14 10:23:42.614,17.92,344.12,-1.8900000000000001,1.47986,0.4884879999999999,-2.432924,4
2024-06-14 10:23:42.619,14.7,336.70000000000005,-4.865,1.6821359999999999,0.560468,-2.475136,4
2024-06-14 10:23:42.624,11.445,326.935,-10.57,1.856596,0.6446479999999999,-2.4173080000000002,4
2024-06-14 10:23:42.629,5.5649999999999995,316.26,-21.035,2.0700960000000004,0.6649,-2.334592,4
2024-06-14 10:23:42.634,-1.3650000000000002,303.905,-36.365,2.2892079999999995,0.67832,-2.256756,4
2024-06-14 10:23:42.638,-10.465,289.485,-46.900000000000006,2.511492,0.702232,-2.188924,4
2024-06-14 10:23:42.643,-22.715,271.88,-57.505,2.75598,0.6853960000000001,-2.11426,4
2024-06-14 10:23:42.648,-41.65,252.98000000000002,-68.32,3.05976,0.61488,-1.9717639999999999,4
2024-06-14 10:23:42.653,-64.89,233.555,-77.63,3.375984,0.504348,-1.799256,4
2024-06-14 10:23:42.658,-89.88,214.515,-84.42,3.749548,0.334036,-1.619184,4
2024-06-14 10:23:42.663,-111.93,195.405,-87.88499999999999,4.148488,0.10857999999999998,-1.480836,4
2024-06-14 10:23:42.667,-123.13,170.345,-86.94,4.48838,-0.127856,-1.427644,4
2024-06-14 10:23:42.672,-114.17,138.35500000000002,-80.885,4.777032,-0.335012,-1.339804,4
2024-06-14 10:23:42.677,-84.42,92.085,-71.785,4.7614160000000005,-0.438712,-1.361276,4
2024-06-14 10:23:42.682,-39.41,37.730000000000004,-62.44,4.607939999999999,-0.49776,-1.237568,4
2024-06-14 10:23:42.687,-2.3449999999999998,-34.230000000000004,-48.93,5.336036,-0.753716,-2.091324,4
