time,gyroscope_x,gyroscope_y,gyroscope_z,accelerometer_x,accelerometer_y,accelerometer_z,phase
2024-06-14 10:23:38.685,72.41499999999999,-397.70500000000004,-80.11500000000001,4.491552,0.32232400000000005,-1.468392,1
2024-06-14 10:23:38.690,16.73,-405.96500000000003,-63.035000000000004,0.277428,0.064172,-2.17404,1
2024-06-14 10:23:38.695,-49.665000000000006,-386.82,-38.395,-0.266936,0.41846000000000005,-2.297504,1
2024-06-14 10:23:38.700,-75.495,-377.475,-9.205,-0.742248,0.841556,-2.88652,1
2024-06-14 10:23:38.704,-60.585,-382.375,14.735,0.165188,0.47018800000000005,-2.811124,1
2024-06-14 10:23:38.709,-48.685,-381.115,25.9,0.573888,0.2501,-2.73768,1
2024-06-14 10:23:38.714,-28.175,-356.33500000000004,39.129999999999995,0.381128,0.24888000000000002,-2.82064,1
2024-06-14 10:23:38.719,-32.165000000000006,-285.03999999999996,54.11,0.190564,0.19861600000000001,-2.501244,1
2024-06-14 10:23:38.724,-17.22,-248.29000000000002,63.489999999999995,0.28792,-0.077348,-2.502708,1
2024-06-14 10:23:38.728,2.17,-205.73000000000002,50.995000000000005,0.347456,-0.336476,-2.072292,1
2024-06-14 10:23:38.733,8.504999999999999,-167.685,26.53,0.20129999999999998,-0.27913599999999994,-1.5762399999999999,1
2024-06-14 10:23:38.738,17.465,-104.545,11.690000000000001,0.169336,-0.132004,-1.45912,1
2024-06-14 10:23:38.743,4.2,-60.48,2.135,0.039528,-0.059536,-1.1956,1
2024-06-14 10:23:38.748,-3.745,-40.145,1.0499999999999998,0.01464,0.06709999999999999,-1.098976,1
2024-06-14 10:23:38.753,-8.26,-23.625,6.475,-0.007564,0.09930800000000001,-1.036268,1
2024-06-14 10:23:38.757,-10.57,-13.16,11.235,0.013908,0.054168,-1.041392,1
2024-06-14 10:23:38.762,-5.915,-1.6449999999999996,11.97,0.05489999999999999,0.029768000000000003,-1.040416,2
2024-06-14 10:23:38.767,-5.039999999999999,-8.120000000000001,10.395,0.13322399999999998,0.063196,-1.060668,2
2024-06-14 10:23:38.772,-2.625,-8.575,7.3500000000000005,0.059292,-0.0014640000000000005,-1.05652,2
2024-06-14 10:23:38.777,-2.2750000000000004,-11.55,2.9050000000000002,0.027572,0.0012199999999999997,-1.026752,2
2024-06-14 10:23:38.782,-2.975,-11.024999999999999,0.07,-0.006344,-0.006100000000000001,-0.99674,2
2024-06-14 10:23:38.786,-1.96,-8.995000000000001,-1.26,-0.006588,0.03782,-1.017236,2
2024-06-14 10:23:38.791,-0.98,-11.83,-1.75,0.007076,0.041724,-1.00406,2
2024-06-14 10:23:38.796,0.315,-10.535,-1.855,0.0004880000000000006,0.03172,-1.0043039999999999,2
2024-06-14 10:23:38.801,0.21,-9.379999999999999,-2.38,0.0026839999999999998,0.010492000000000001,-1.00894,2
2024-06-14 10:23:38.806,0.21000000000000002,-7.944999999999999,-2.3449999999999998,0.006344,0.01586,-1.0133320000000001,2
2024-06-14 10:23:38.811,-0.175,-8.26,-2.38,-0.0039040000000000004,0.027816,-1.0133320000000001,2
2024-06-14 10:23:38.815,0.49,-9.274999999999999,-2.4850000000000003,-0.017079999999999998,0.024155999999999997,-1.01382,2
2024-06-14 10:23:38.820,0.665,-10.43,-2.66,-0.011224000000000001,0.016592000000000003,-1.0121120000000001,2
2024-06-14 10:23:38.825,0.7,-11.69,-2.59,-0.0053679999999999995,0.019520000000000003,-1.014796,2
2024-06-14 10:23:38.830,0.735,-11.725000000000001,-2.45,-0.008052,0.016592,-1.0091839999999999,2
2024-06-14 10:23:38.835,1.575,-11.620000000000001,-2.205,-0.008784,0.016592,-1.0108920000000001,2
2024-06-14 10:23:38.840,2.24,-11.795000000000002,-1.925,-0.01098,0.008784,-1.013332,2
2024-06-14 10:23:38.844,1.89,-12.915,-1.8900000000000001,-0.014152000000000001,0.013176,-1.0152839999999999,2
2024-06-14 10:23:38.849,1.96,-14.525,-1.6099999999999999,-0.009271999999999999,0.018544,-1.0128439999999999,2
2024-06-14 10:23:38.854,2.38,-16.52,-1.6800000000000002,-0.00732,0.020984000000000003,-1.0072320000000001,2
2024-06-14 10:23:38.859,2.9749999999999996,-17.22,-1.54,-0.0046359999999999995,0.020984000000000003,-1.007232,2
2024-06-14 10:23:38.864,3.01,-16.799999999999997,-1.7850000000000001,-0.00366,0.025376,-1.00162,2
2024-06-14 10:23:38.869,3.325,-16.45,-2.0300000000000002,-0.006344,0.030256,-1.0023520000000001,2
2024-06-14 10:23:38.873,2.4850000000000003,-14.98,-2.3449999999999998,-0.008784,0.025863999999999998,-1.000888,2
2024-06-14 10:23:38.878,3.185,-19.705,-2.3099999999999996,-0.0034159999999999998,0.021471999999999998,-1.006256,2
2024-06-14 10:23:38.883,3.325,-14.84,-2.275,0.00048799999999999994,0.023424,-1.004548,2
2024-06-14 10:23:38.888,3.465,-16.205,-2.45,0.00122,0.023912,-0.998448,2
2024-06-14 10:23:38.893,2.38,-17.185000000000002,-2.59,0.001708,0.02196,-1.003816,2
2024-06-14 10:23:38.897,1.96,-18.865000000000002,-2.59,-0.000732,0.02196,-1.003816,2
2024-06-14 10:23:38.902,0.665,-21.35,-2.59,0.00244,0.023668,-1.008208,2
2024-06-14 10:23:38.907,-0.63,-23.1,-2.73,0.0031719999999999995,0.01464,-1.01504,2
2024-06-14 10:23:38.912,-0.875,-26.950000000000003,-2.6950000000000003,0.007808000000000001,0.018544,-1.0145520000000001,2
2024-06-14 10:23:38.917,-2.625,-29.96,-2.835,0.010248,0.029524,-1.014552,2
2024-06-14 10:23:38.922,0.20999999999999996,-30.73,-2.555,0.013908,0.038552,-1.056276,2
2024-06-14 10:23:38.926,2.9749999999999996,-32.305,-2.52,0.016104,0.02806,-0.987224,2
2024-06-14 10:23:38.931,1.645,-30.555,-3.08,0.024156,0.029768,-1.00162,2
2024-06-14 10:23:38.936,3.92,-33.6,-3.01,0.024399999999999998,0.022691999999999997,-1.0291919999999999,2
2024-06-14 10:23:38.941,3.36,-32.864999999999995,-3.255,0.025619999999999997,0.024156,-0.98698,2
2024-06-14 10:23:38.946,1.96,-29.05,-3.465,0.033671999999999994,0.023667999999999998,-0.9835639999999999,2
2024-06-14 10:23:38.951,0.42,-26.985,-3.8150000000000004,0.04196799999999999,0.011467999999999999,-0.9852719999999999,2
2024-06-14 10:23:38.955,0.91,-25.34,-3.675,0.044163999999999995,0.0039040000000000004,-0.9903959999999999,2
2024-06-14 10:23:38.960,1.365,-22.645000000000003,-3.29,0.054167999999999994,-0.00732,-0.99186,2
2024-06-14 10:23:38.965,0.595,-19.53,-2.625,0.061,-0.00976,-0.982832,2
2024-06-14 10:23:38.970,0.315,-16.555,-2.135,0.04758,0.025863999999999998,-0.985028,2
2024-06-14 10:23:38.975,1.225,-15.68,-2.345,0.040992,0.028547999999999997,-0.994544,2
2024-06-14 10:23:38.980,1.54,-15.61,-2.52,0.047824,0.01952,-1.008696,2
2024-06-14 10:23:38.984,2.2750000000000004,-16.205,-2.66,0.041724,0.030012,-1.018456,2
2024-06-14 10:23:38.989,3.5700000000000003,-17.15,-3.045,0.039284,0.043432,-1.0140639999999999,2
2024-06-14 10:23:38.994,4.725,-17.815,-3.4299999999999997,0.047336,0.03904,-1.0121120000000001,2
2024-06-14 10:23:38.999,4.725,-19.04,-4.0600000000000005,0.039528,0.038552,-1.000888,2
2024-06-14 10:23:39.004,4.445,-20.195,-4.725,0.043432,0.049044000000000004,-1.011868,2
2024-06-14 10:23:39.009,8.365,-20.265,-5.18,0.047335999999999996,0.03781999999999999,-1.00528,2
2024-06-14 10:23:39.013,10.885,-19.494999999999997,-5.5649999999999995,0.048556,0.046848,-1.0091839999999999,2
2024-06-14 10:23:39.018,12.215,-19.25,-6.16,0.050264,0.03416,-0.997472,2
2024-06-14 10:23:39.023,14.105,-18.935000000000002,-6.23,0.059048,0.026108,-1.014796,2
2024-06-14 10:23:39.028,14.875,-19.11,-6.4399999999999995,0.061,0.031232,-1.02236,2
2024-06-14 10:23:39.033,14.7,-19.705,-6.37,0.056608000000000006,0.027572,-1.016748,2
2024-06-14 10:23:39.037,11.76,-22.61,-6.37,0.061,0.043432,-1.037976,2
2024-06-14 10:23:39.042,14.455000000000002,-13.475,-7.385,0.06831999999999999,-0.044407999999999996,-0.935252,2
2024-06-14 10:23:39.047,13.370000000000001,-24.535,-8.925,0.06124399999999999,0.041235999999999995,-1.069696,2
2024-06-14 10:23:39.052,9.695,-28.560000000000002,-9.52,0.06222,0.074908,-1.0933639999999998,2
2024-06-14 10:23:39.057,7.035,-25.865000000000002,-10.22,0.056852,0.058072,-1.113372,2
2024-06-14 10:23:39.062,4.375,-29.75,-11.585,0.062708,0.064416,-1.147776,2
2024-06-14 10:23:39.066,2.52,-31.57,-12.425,0.08296,0.024888,-1.1787640000000001,2
2024-06-14 10:23:39.071,-0.9799999999999999,-32.620000000000005,-12.46,0.089792,-0.020739999999999998,-1.23952,2
2024-06-14 10:23:39.076,-5.775,-34.125,-11.48,0.08296,-0.09345200000000001,-1.3049119999999998,2
2024-06-14 10:23:39.081,-7.175000000000001,-40.635000000000005,-9.485,0.07466400000000001,-0.078568,-1.298324,2
2024-06-14 10:23:39.086,-10.115,-46.69,-8.4,0.074176,-0.075152,-1.2956400000000001,3
2024-06-14 10:23:39.091,-11.305,-52.85,-6.335,0.07808000000000001,-0.130784,-1.367376,3
2024-06-14 10:23:39.095,-11.76,-59.465,-4.655,0.072224,-0.020739999999999998,-1.346636,3
2024-06-14 10:23:39.100,-17.15,-65.94,-4.13,0.063928,-0.054412,-1.3673760000000001,3
2024-06-14 10:23:39.105,-19.005000000000003,-71.89,-2.6950000000000003,0.069052,-0.077348,-1.4010479999999998,3
2024-06-14 10:23:39.108,-22.75,-80.08,-1.68,0.060756000000000004,-0.042943999999999996,-1.441796,3
2024-06-14 10:23:39.113,-27.3,-88.655,-0.665,0.08954799999999999,-0.055875999999999995,-1.418616,3
2024-06-14 10:23:39.118,-28.07,-97.02,-0.10500000000000001,0.072712,-0.017079999999999998,-1.367864,3
2024-06-14 10:23:39.122,-32.865,-102.58500000000001,0.07,0.068076,-0.048799999999999996,-1.383724,3
2024-06-14 10:23:39.127,-37.38,-113.715,1.225,0.074176,-0.10369999999999999,-1.458632,3
2024-06-14 10:23:39.132,-43.295,-124.18,2.625,0.082472,-0.082472,-1.436916,3
2024-06-14 10:23:39.137,-47.985,-133.49,3.955,0.08710799999999999,-0.08125199999999999,-1.41764,3
2024-06-14 10:23:39.142,-53.34,-145.81,4.970000000000001,0.07539599999999999,-0.05002,-1.4893759999999998,3
2024-06-14 10:23:39.147,-56.805,-159.88,5.145,0.066368,-0.023911999999999996,-1.518168,3
2024-06-14 10:23:39.152,-60.795,-176.54,4.9350000000000005,0.07319999999999999,-0.01952,-1.550376,3
2024-06-14 10:23:39.156,-65.83500000000001,-193.13,4.83,0.07588400000000001,-0.041235999999999995,-1.608936,3
2024-06-14 10:23:39.161,-70.245,-209.47500000000002,5.355,0.058803999999999995,-0.061731999999999995,-1.7043399999999997,3
2024-06-14 10:23:39.166,-69.685,-229.39,5.81,0.05245999999999999,-0.018544,-1.807308,3
2024-06-14 10:23:39.171,-69.58000000000001,-248.675,5.32,0.053924,0.026108,-1.7763200000000001,3
2024-06-14 10:23:39.176,-71.75,-268.03,4.654999999999999,0.050264,0.00048799999999999994,-1.893684,3
2024-06-14 10:23:39.181,-79.20500000000001,-287.105,3.92,0.031964000000000006,-0.057583999999999996,-1.913936,3
2024-06-14 10:23:39.185,-90.265,-306.39,2.66,0.025619999999999997,0.094184,-2.151592,3
2024-06-14 10:23:39.190,-72.485,-325.99,3.255,0.044896,0.06588,-2.13012,3
2024-06-14 10:23:39.195,-94.22,-343.84000000000003,1.8900000000000001,0.040992,0.099552,-2.397544,3
2024-06-14 10:23:39.200,-94.36,-365.05,0.84,-0.002928,0.10833599999999999,-2.5932319999999995,3
2024-06-14 10:23:39.205,-98.315,-386.855,0.03500000000000002,-0.006588,0.053436,-2.744268,3
2024-06-14 10:23:39.210,-100.135,-410.16499999999996,-1.54,-0.025132,0.15176800000000001,-2.9223879999999998,3
2024-06-14 10:23:39.215,-96.495,-433.51,-3.99,-0.05734,0.21227999999999997,-2.958256,3
2024-06-14 10:23:39.219,-102.55,-454.65,-7.5600000000000005,-0.039528,0.33916,-3.192252,3
2024-06-14 10:23:39.224,-109.27000000000001,-475.78999999999996,-13.125,-0.078812,0.239852,-3.232268,3
2024-06-14 10:23:39.229,-106.365,-495.845,-15.435,0.056364000000000004,0.105164,-3.3213280000000003,3
2024-06-14 10:23:39.234,-98.14,-513.1700000000001,-16.135,0.051972000000000004,0.103944,-3.518236,3
2024-06-14 10:23:39.239,-108.745,-521.1500000000001,-18.41,0.142008,-0.024644,-3.78078,3
2024-06-14 10:23:39.244,-86.31,-520.38,-14.91,0.09442799999999998,-0.178608,-4.01136,3
2024-06-14 10:23:39.248,-93.31,-513.275,-12.32,-0.15738,0.071248,-4.1680079999999995,3
2024-06-14 10:23:39.253,-84.63,-502.81,-15.54,-0.632448,0.282064,-3.95524,3
2024-06-14 10:23:39.258,-94.57,-491.53999999999996,-22.225,-1.2609920000000001,0.401136,-3.7195359999999997,3
2024-06-14 10:23:39.263,-95.2,-481.565,-39.62,-1.657248,0.14396,-3.240076,3
2024-06-14 10:23:39.268,-119.245,-470.67999999999995,-47.11,-2.128168,0.438712,-2.904576,3
2024-06-14 10:23:39.273,-148.32999999999998,-480.375,-65.41499999999999,-2.415844,0.37405199999999994,-2.8347919999999998,4
2024-06-14 10:23:39.278,-145.88,-550.55,-87.95500000000001,-2.942152,0.48141199999999995,-2.650328,4
2024-06-14 10:23:39.282,-134.26,-617.2950000000001,-121.975,-2.881152,0.25717599999999996,-0.546072,4
2024-06-14 10:23:39.287,-128.555,-519.925,-136.04500000000002,-2.3526480000000003,-0.136152,2.8091720000000002,4
2024-06-14 10:23:39.292,-11.585,-306.03999999999996,-116.69,-2.446588,-0.176168,0.12126799999999999,4
2024-06-14 10:23:39.297,-14.07,22.294999999999998,-78.85499999999999,-1.9886000000000001,0.067344,-4.963936,4
2024-06-14 10:23:39.302,82.18,-56.385000000000005,-38.5,-1.830244,-0.2867,-2.074244,4
2024-06-14 10:23:39.307,91.315,22.750000000000004,0.5950000000000006,-2.282864,-0.160552,-1.601616,4
2024-06-14 10:23:39.311,125.685,84.245,17.78,-2.080832,0.005368,-1.471808,4
2024-06-14 10:23:39.316,129.85,111.65,22.925,-1.589172,0.139812,-1.530856,4
2024-06-14 10:23:39.321,133.77,114.975,21.770000000000003,-1.362496,0.298412,-1.3710360000000001,4
2024-06-14 10:23:39.326,131.635,106.015,12.95,-1.336388,0.36234,-1.238788,4
2024-06-14 10:23:39.331,122.045,99.785,1.225,-1.3134519999999998,0.33208399999999993,-0.9950319999999999,4
2024-06-14 10:23:39.336,105.56,99.75,-9.555,-1.287588,0.305976,-0.873764,4
2024-06-14 10:23:39.341,93.38,107.44999999999999,-17.395,-1.2749,0.24839199999999997,-0.8152039999999999,4
2024-06-14 10:23:39.345,74.47999999999999,123.51499999999999,-23.485,-1.2658719999999999,0.161772,-0.744932,4
2024-06-14 10:23:39.350,62.51,146.475,-27.509999999999998,-1.25538,0.043188000000000004,-0.68198,4
2024-06-14 10:23:39.355,55.58,173.25,-29.54,-1.226588,-0.066612,-0.637328,4
2024-06-14 10:23:39.360,60.375,200.375,-29.61,-1.16754,-0.14883999999999997,-0.6226879999999999,4
2024-06-14 10:23:39.365,71.05,226.555,-29.365000000000002,-1.095072,-0.18422,-0.638304,4
2024-06-14 10:23:39.370,85.68,249.62,-30.625,-1.0206520000000001,-0.194712,-0.6568479999999999,4
2024-06-14 10:23:39.374,101.11500000000001,269.185,-33.39,-0.942328,-0.17568,-0.683688,4
2024-06-14 10:23:39.379,114.135,284.795,-37.345,-0.857416,-0.12785599999999997,-0.718824,4
2024-06-14 10:23:39.384,123.795,297.36,-42.56,-0.772748,-0.072224,-0.755424,4
2024-06-14 10:23:39.389,126.97999999999999,307.09,-48.72,-0.6893,-0.016592,-0.796416,4
2024-06-14 10:23:39.394,125.615,315.245,-55.195,-0.614392,0.027572000000000003,-0.830576,4
2024-06-14 10:23:39.399,118.265,322.03499999999997,-61.39,-0.540216,0.0427,-0.864736,4
2024-06-14 10:23:39.404,107.31,327.74,-66.045,-0.476288,0.04367599999999999,-0.909144,4
2024-06-14 10:23:39.408,94.465,332.01,-68.63499999999999,-0.409188,0.032696,-0.9447679999999999,4
2024-06-14 10:23:39.413,82.495,335.54499999999996,-68.94999999999999,-0.359412,-0.006344000000000001,-0.9718519999999999,4
2024-06-14 10:23:39.418,72.275,339.46500000000003,-66.36,-0.317444,-0.052704,-0.994788,4
2024-06-14 10:23:39.423,64.575,344.26,-60.62,-0.288652,-0.105408,-1.02602,4
2024-06-14 10:23:39.428,60.55,349.65,-52.535,-0.26083599999999996,-0.14395999999999998,-1.0579839999999998,4
2024-06-14 10:23:39.433,60.620000000000005,355.74,-42.525,-0.23765599999999998,-0.16909200000000002,-1.0982439999999998,4
2024-06-14 10:23:39.437,63.035,361.34000000000003,-31.78,-0.22204000000000002,-0.156648,-1.1529,4
2024-06-14 10:23:39.442,64.75,366.65999999999997,-21.455,-0.190564,-0.11760799999999999,-1.2065800000000002,4
2024-06-14 10:23:39.447,62.93,371.84000000000003,-11.935,-0.16469999999999999,-0.070516,-1.241472,4
2024-06-14 10:23:39.452,58.555,376.17999999999995,-3.745,-0.153964,-0.007076000000000001,-1.2856359999999998,4
2024-06-14 10:23:39.457,50.82,379.995,3.01,-0.13541999999999998,0.050996,-1.331996,4
2024-06-14 10:23:39.462,39.900000000000006,383.46000000000004,8.68,-0.11638799999999999,0.095648,-1.3817720000000002,4
2024-06-14 10:23:39.467,28.14,386.68,13.825,-0.09174399999999999,0.12321999999999998,-1.431792,4
2024-06-14 10:23:39.471,17.92,388.15,18.9,-0.066124,0.133956,-1.4788839999999999,4
2024-06-14 10:23:39.476,10.115,387.65999999999997,23.729999999999997,-0.034159999999999996,0.150304,-1.536224,4
2024-06-14 10:23:39.481,3.605,385.66499999999996,28.42,-0.002928000000000001,0.160796,-1.5933199999999998,4
2024-06-14 10:23:39.486,-1.365,382.20000000000005,33.215,0.032208,0.16836,-1.657248,4
2024-06-14 10:23:39.491,-4.165,378.315,37.975,0.05856,0.17397200000000002,-1.702876,4
2024-06-14 10:23:39.496,-5.074999999999999,374.78,42.56,0.072468,0.17812,-1.737524,4
2024-06-14 10:23:39.500,-5.705,372.12,46.620000000000005,0.083448,0.194712,-1.7907159999999998,4
2024-06-14 10:23:39.505,-6.859999999999999,370.15999999999997,49.91,0.099064,0.211304,-1.8487879999999999,4
2024-06-14 10:23:39.510,-8.68,369.145,53.269999999999996,0.113704,0.220332,-1.9244279999999998,4
2024-06-14 10:23:39.515,-12.25,368.9,56.21,0.12688,0.22594399999999998,-2.0069,4
2024-06-14 10:23:39.520,-18.689999999999998,369.53,58.415,0.155428,0.24278,-2.094252,4
2024-06-14 10:23:39.525,-26.915,371.42,59.71,0.208376,0.247416,-2.1874599999999997,4
2024-06-14 10:23:39.530,-34.334999999999994,374.71,60.375,0.270352,0.23765599999999998,-2.269688,4
2024-06-14 10:23:39.534,-41.475,378.84000000000003,60.55,0.35258,0.21716,-2.341424,4
2024-06-14 10:23:39.539,-45.394999999999996,383.03999999999996,60.864999999999995,0.44408000000000003,0.180804,-2.394372,4
2024-06-14 10:23:39.544,-48.055,385.735,61.04,0.5243559999999999,0.134444,-2.4468319999999997,4
2024-06-14 10:23:39.549,-47.81,387.03,61.775000000000006,0.612196,0.08295999999999999,-2.479528,4
2024-06-14 10:23:39.554,-43.05,387.275,62.825,0.7044279999999999,0.027816,-2.501488,4
2024-06-14 10:23:39.559,-32.375,386.71500000000003,63.84,0.795928,-0.0034159999999999998,-2.522716,4
2024-06-14 10:23:39.563,-18.025,385.28,64.505,0.9001159999999999,-0.007076,-2.551996,4
2024-06-14 10:23:39.568,-1.68,384.09000000000003,64.36500000000001,1.01504,0.018544,-2.571028,4
2024-06-14 10:23:39.573,13.440000000000001,382.9,63.07,1.133868,0.07417599999999999,-2.604456,4
2024-06-14 10:23:39.578,26.005,380.555,60.41,1.256356,0.173728,-2.6486199999999998,4
2024-06-14 10:23:39.583,34.894999999999996,376.6,55.894999999999996,1.39446,0.28743199999999997,-2.679608,4
2024-06-14 10:23:39.588,38.5,370.19500000000005,50.925,1.531588,0.470676,-2.724748,4
2024-06-14 10:23:39.593,37.8,361.235,48.79,1.820728,0.607804,-2.761348,4
2024-06-14 10:23:39.597,39.9,348.53,34.58,2.1001079999999996,0.716384,-2.7262120000000003,4
2024-06-14 10:23:39.602,35.595,334.845,11.129999999999999,2.3453280000000003,0.853024,-2.6351999999999998,4
2024-06-14 10:23:39.607,28.665,319.58500000000004,-7.665,2.651548,0.951356,-2.5805439999999997,4
2024-06-14 10:23:39.612,20.545,301.21000000000004,-27.72,3.002664,1.00528,-2.5041719999999996,4
2024-06-14 10:23:39.617,5.88,279.19500000000005,-49.14,3.3867199999999995,1.023092,-2.387296,4
2024-06-14 10:23:39.622,-19.25,254.02999999999997,-70.77000000000001,3.820308,0.965508,-2.2225960000000002,4
2024-06-14 10:23:39.626,-51.555,225.015,-90.16,4.297815999999999,0.807152,-2.0781479999999997,4
2024-06-14 10:23:39.631,-84.14,190.85500000000002,-104.78999999999999,4.757512,0.543632,-1.9551720000000001,4
2024-06-14 10:23:39.636,-108.67500000000001,151.48,-112.735,5.1391279999999995,0.204472,-1.81902,4
2024-06-14 10:23:39.641,-115.08000000000001,105.28,-113.33,5.361167999999999,-0.12614799999999998,-1.706048,4
2024-06-14 10:23:39.646,-96.215,52.43000000000001,-107.905,5.415092,-0.40138,-1.498892,4
2024-06-14 10:23:39.651,-50.715,-4.2700000000000005,-98.805,5.272596,-0.548268,-1.4801039999999999,4
2024-06-14 10:23:39.658,8.155000000000001,-59.36,-89.74000000000001,4.992972,-0.518988,-1.375916,4
2024-06-14 10:23:39.662,62.545,-106.4,-83.125,4.583052,-0.32012799999999997,-1.36762,4
2024-06-14 10:23:39.667,101.185,-144.13,-79.87,4.13702,0.003172000000000008,-1.464488,4
2024-06-14 10:23:39.672,88.69,-511.14,-94.675,6.749039999999999,1.29686,-7.242164,4
