time,gyroscope_x,gyroscope_y,gyroscope_z,accelerometer_x,accelerometer_y,accelerometer_z,phase
2024-06-14 11:38:38.066,380.20500000000004,-436.135,-39.305,4.830956,-1.716296,-3.107096,1
2024-06-14 11:38:38.070,380.94,-333.375,-39.724999999999994,-1.2383,1.148996,1.147776,1
2024-06-14 11:38:38.075,460.355,-306.495,-27.16,0.355752,0.05734,-1.331996,1
2024-06-14 11:38:38.080,477.365,-294.875,9.379999999999999,1.21024,0.400892,-1.333704,1
2024-06-14 11:38:38.085,378.805,-299.66999999999996,35.07,-1.6579799999999998,-0.4267560000000001,-2.88164,1
2024-06-14 11:38:38.090,226.17000000000002,-296.52,76.16,-0.707112,-0.14835199999999998,-2.634468,1
2024-06-14 11:38:38.095,177.135,-318.46500000000003,105.315,-0.7644519999999999,-0.08905999999999999,-1.87148,1
2024-06-14 11:38:38.099,134.015,-348.145,124.60000000000001,0.10052799999999999,-0.24351199999999998,-2.375828,1
2024-06-14 11:38:38.104,152.88,-331.69500000000005,130.48000000000002,0.36770800000000003,-0.8576600000000001,-3.553616,1
2024-06-14 11:38:38.109,64.365,-273.455,103.95,0.59658,-1.328336,-2.86456,1
2024-06-14 11:38:38.114,53.725,-231.10500000000002,78.19,0.280356,-0.64782,-2.3489880000000003,1
2024-06-14 11:38:38.119,47.67,-191.03,66.99,0.41504399999999997,-0.55754,-2.382904,1
2024-06-14 11:38:38.124,55.72,-141.61,45.71,0.24741599999999997,-0.481412,-2.6452039999999997,1
2024-06-14 11:38:38.128,45.78,-24.955000000000002,9.03,0.41870399999999997,-0.623176,-2.039108,1
2024-06-14 11:38:38.133,38.465,-3.5,-9.73,-0.015372,0.113948,-1.3517599999999999,1
2024-06-14 11:38:38.138,40.67,-4.375,4.234999999999999,0.15786799999999998,0.09125599999999999,-1.3681079999999999,1
2024-06-14 11:38:38.143,30.625,-9.835,18.235,-0.038552,0.010980000000000002,-1.254648,1
2024-06-14 11:38:38.148,29.715,-19.810000000000002,23.73,0.09272,0.084424,-1.123376,1
2024-06-14 11:38:38.152,28.455,-18.69,28.42,0.09028,-0.116876,-1.047248,1
2024-06-14 11:38:38.157,25.795,-4.165,18.549999999999997,0.067588,-0.09638000000000001,-0.945256,1
2024-06-14 11:38:38.162,27.825,-1.2950000000000002,5.949999999999999,0.121756,-0.1586,-1.034072,1
2024-06-14 11:38:38.167,25.619999999999997,-0.665,-2.66,0.05831600000000001,-0.15689199999999998,-1.07116,1
2024-06-14 11:38:38.172,19.11,-0.665,-2.73,-0.013908,-0.155184,-1.1272799999999998,1
2024-06-14 11:38:38.177,13.754999999999999,-2.4850000000000003,0.5599999999999999,-0.027084000000000004,-0.038551999999999996,-1.123132,1
2024-06-14 11:38:38.181,15.504999999999999,-3.325,3.185,-0.035379999999999995,0.006588,-1.134112,1
2024-06-14 11:38:38.186,19.81,-4.164999999999999,1.68,-0.036112,-0.0122,-1.101172,2
2024-06-14 11:38:38.191,20.09,-4.83,0.175,-0.08881599999999999,-0.106628,-1.049688,2
2024-06-14 11:38:38.196,14.945,-6.475,0.105,-0.11053199999999999,-0.13224799999999998,-1.0445639999999998,2
2024-06-14 11:38:38.201,9.415,-9.835,0.21,-0.100528,-0.11467999999999999,-1.107272,2
2024-06-14 11:38:38.206,4.41,-14.35,0.14,-0.11443600000000001,-0.10394400000000001,-1.1385040000000002,2
2024-06-14 11:38:38.210,0.38500000000000006,-19.6,0.035,-0.127612,-0.085644,-1.113616,2
2024-06-14 11:38:38.215,-1.435,-25.27,-0.21,-0.13078399999999998,-0.064416,-1.086044,2
2024-06-14 11:38:38.220,-2.45,-31.395,-0.595,-0.120292,-0.072224,-1.080676,2
2024-06-14 11:38:38.227,-4.9,-37.24,-0.56,-0.09759999999999999,-0.100772,-1.0772599999999999,2
2024-06-14 11:38:38.232,-8.575,-42.805,-0.525,-0.076616,-0.11077599999999999,-1.06872,2
2024-06-14 11:38:38.237,-12.46,-46.935,-0.35,-0.084912,-0.099552,-1.068476,2
2024-06-14 11:38:38.241,-15.19,-49.980000000000004,-0.49,-0.09174399999999999,-0.076128,-1.072624,2
2024-06-14 11:38:38.246,-16.345,-53.795,-0.735,-0.098332,-0.056852,-1.084336,2
2024-06-14 11:38:38.251,-15.295,-57.644999999999996,-1.295,-0.101992,-0.032695999999999996,-1.0760399999999999,2
2024-06-14 11:38:38.256,-13.16,-60.515,-1.855,-0.09540399999999999,-0.025132,-1.0787239999999998,2
2024-06-14 11:38:38.261,-12.25,-62.265,-2.0300000000000002,-0.072956,-0.05002,-1.05896,2
2024-06-14 11:38:38.265,-12.46,-64.155,-1.8900000000000001,-0.034648,-0.06709999999999999,-1.0596919999999999,2
2024-06-14 11:38:38.270,-14.14,-65.1,-1.995,-0.061,-0.088328,-1.03578,2
2024-06-14 11:38:38.275,-15.435,-63.14,-1.645,-0.031232000000000003,-0.069052,-1.043832,2
2024-06-14 11:38:38.280,-15.89,-65.1,-1.365,-0.031476,-0.064416,-1.057252,2
2024-06-14 11:38:38.285,-15.82,-69.58,-1.225,-0.030744,-0.060023999999999994,-1.02602,2
2024-06-14 11:38:38.289,-16.905,-68.53,-0.945,-0.017324000000000003,-0.05246,-1.0238239999999998,2
2024-06-14 11:38:38.294,-15.469999999999999,-63.455,-0.20999999999999996,-0.006343999999999999,-0.051972,-1.020652,2
2024-06-14 11:38:38.299,-11.585,-73.815,-0.34999999999999987,-0.0075639999999999995,-0.038552,-1.011136,2
2024-06-14 11:38:38.304,-11.795,-70.525,-0.42000000000000004,-0.007320000000000002,-0.05856,-1.003572,2
2024-06-14 11:38:38.309,-12.355,-80.325,0.9099999999999999,-0.006588,-0.032208,-1.018456,2
2024-06-14 11:38:38.313,-20.405,-119.66499999999999,1.4000000000000001,0.0075639999999999995,-0.034159999999999996,-1.02602,2
2024-06-14 11:38:38.318,-11.83,-78.68,0.56,0.009028,-0.022447999999999996,-1.020408,2
2024-06-14 11:38:38.323,-8.82,-74.97,0.0,0.00976,-0.008783999999999998,-1.037976,2
2024-06-14 11:38:38.328,-14.105,-68.6,-1.05,0.021471999999999998,-0.02928,-1.085312,2
2024-06-14 11:38:38.333,-25.165,-61.25,-2.24,0.01952,-0.018544,-1.015772,2
2024-06-14 11:38:38.338,-22.82,-60.30500000000001,-2.1,0.028059999999999998,-0.048068,-1.050176,2
2024-06-14 11:38:38.342,-14.98,-59.43000000000001,-0.875,0.029036,-0.027083999999999997,-1.037488,2
2024-06-14 11:38:38.347,-16.555,-57.644999999999996,-0.06999999999999995,0.034648,-0.037576,-1.0592039999999998,2
2024-06-14 11:38:38.352,-16.380000000000003,-56.105,0.875,0.0244,-0.012444,-1.058716,2
2024-06-14 11:38:38.357,-10.71,-55.894999999999996,0.665,0.02684,-0.009028,-1.068232,2
2024-06-14 11:38:38.362,-6.475,-55.93,-0.45499999999999996,0.034892,0.0026839999999999998,-1.063108,2
2024-06-14 11:38:38.366,-7.525,-53.83,-1.7850000000000001,0.050264,0.021471999999999998,-1.06262,2
2024-06-14 11:38:38.371,-10.219999999999999,-44.415,-3.15,0.057095999999999994,-0.035379999999999995,-1.072136,3
2024-06-14 11:38:38.376,-7.63,-44.94,-2.66,0.06588,-0.05831599999999999,-1.045296,3
2024-06-14 11:38:38.381,-3.815,-43.19,-1.47,0.06466,-0.11248399999999999,-1.072136,3
2024-06-14 11:38:38.386,-1.435,-41.09,0.06999999999999998,0.065636,-0.08710799999999999,-1.060424,3
2024-06-14 11:38:38.390,-3.6050000000000004,-39.795,-0.07,0.073444,-0.033184,-1.0001559999999998,3
2024-06-14 11:38:38.395,-4.48,-36.89,-0.28,0.08637600000000001,-0.055875999999999995,-0.98576,3
2024-06-14 11:38:38.400,-5.005,-34.72,-0.06999999999999999,0.08662,-0.045871999999999996,-0.99064,3
2024-06-14 11:38:38.405,-5.67,-32.515,-0.245,0.09418399999999999,-0.043188,-0.971608,3
2024-06-14 11:38:38.410,-6.09,-29.855,-0.245,0.09759999999999999,-0.043432,-0.961116,3
2024-06-14 11:38:38.415,-5.775,-27.615000000000002,-0.315,0.101016,-0.028304,-0.938912,3
2024-06-14 11:38:38.419,-5.074999999999999,-24.884999999999998,-0.525,0.10614,-0.020984000000000003,-0.92842,3
2024-06-14 11:38:38.424,-4.27,-22.435000000000002,-0.9099999999999999,0.106872,-0.012444,-0.9171959999999999,3
2024-06-14 11:38:38.429,-2.87,-19.845,-1.435,0.113948,-0.001464,-0.909632,3
2024-06-14 11:38:38.434,-0.28,-18.130000000000003,-1.995,0.103212,0.014395999999999999,-0.9174399999999999,3
2024-06-14 11:38:38.439,2.625,-17.36,-2.835,0.09638,0.029036,-0.9333,3
2024-06-14 11:38:38.443,5.915,-17.814999999999998,-3.885,0.090524,0.038063999999999994,-0.93574,3
2024-06-14 11:38:38.448,10.01,-19.11,-5.04,0.08881599999999999,0.04392,-0.965508,3
2024-06-14 11:38:38.453,14.21,-20.685000000000002,-6.23,0.08906,0.038307999999999995,-1.007232,3
2024-06-14 11:38:38.458,18.095,-23.555,-7.245,0.089548,0.023912,-1.047736,3
2024-06-14 11:38:38.463,21.455,-26.424999999999997,-7.77,0.084912,0.016835999999999997,-1.087996,3
2024-06-14 11:38:38.467,22.785,-29.855,-8.469999999999999,0.081496,-0.005123999999999999,-1.145336,3
2024-06-14 11:38:38.472,21.91,-33.95,-8.54,0.08784,-0.046604,-1.196088,3
2024-06-14 11:38:38.477,21.28,-39.129999999999995,-8.225,0.09881999999999999,-0.035624,-1.221708,3
2024-06-14 11:38:38.482,19.215,-43.155,-8.365,0.10614000000000001,-0.037087999999999996,-1.2529400000000002,3
2024-06-14 11:38:38.487,15.4,-47.459999999999994,-8.015,0.10150400000000001,-0.073688,-1.27734,3
2024-06-14 11:38:38.491,12.775,-52.955,-7.455,0.09759999999999999,-0.07905599999999999,-1.2941759999999998,3
2024-06-14 11:38:38.496,8.785,-58.66,-6.65,0.11346,-0.10394400000000001,-1.288564,3
2024-06-14 11:38:38.501,4.725,-63.105000000000004,-5.425000000000001,0.106628,-0.12858799999999998,-1.2783159999999998,3
2024-06-14 11:38:38.506,0.10499999999999998,-65.87,-3.955,0.117364,-0.14151999999999998,-1.291004,3
2024-06-14 11:38:38.511,-4.27,-69.72,-2.065,0.119072,-0.17592400000000002,-1.297104,3
2024-06-14 11:38:38.516,-9.94,-73.325,-0.035,0.12444,-0.157868,-1.2868559999999998,3
2024-06-14 11:38:38.520,-15.015,-75.07499999999999,1.8199999999999998,0.12566,-0.15982000000000002,-1.343952,3
2024-06-14 11:38:38.525,-19.005,-78.75,3.92,0.12078,-0.158356,-1.381772,3
2024-06-14 11:38:38.530,-19.6,-84.735,6.195,0.11346,-0.155428,-1.447408,3
2024-06-14 11:38:38.535,-20.72,-91.455,7.875,0.126392,-0.064904,-1.447164,3
2024-06-14 11:38:38.540,-24.01,-98.63,7.699999999999999,0.12224399999999999,-0.030744,-1.515972,3
2024-06-14 11:38:38.544,-24.08,-109.55,7.734999999999999,0.119316,-0.050752,-1.528172,3
2024-06-14 11:38:38.549,-26.32,-119.945,7.63,0.114924,-0.048312,-1.535248,3
2024-06-14 11:38:38.554,-29.61,-131.425,7.665,0.10931199999999999,-0.11053199999999999,-1.519876,3
2024-06-14 11:38:38.559,-32.095,-142.415,8.504999999999999,0.109556,-0.12322,-1.5889280000000001,3
2024-06-14 11:38:38.564,-36.504999999999995,-154.385,9.170000000000002,0.10369999999999999,-0.122,-1.656272,3
2024-06-14 11:38:38.568,-42.175,-167.93,9.485,0.09320799999999999,-0.08954799999999999,-1.728496,3
2024-06-14 11:38:38.573,-45.045,-185.115,9.24,0.07075999999999999,-0.026108,-1.783884,3
2024-06-14 11:38:38.578,-45.5,-204.715,8.225,0.045384,0.002928,-1.831708,3
2024-06-14 11:38:38.583,-46.06,-223.65,6.755,0.025864,0.024399999999999998,-1.979328,3
2024-06-14 11:38:38.588,-41.615,-248.78,4.83,0.006344,0.037576,-2.141344,3
2024-06-14 11:38:38.593,-36.855,-266.90999999999997,2.66,0.02196,0.013419999999999998,-2.364116,3
2024-06-14 11:38:38.597,-40.74,-288.435,0.8049999999999999,-0.06270800000000001,0.079544,-2.3431319999999998,3
2024-06-14 11:38:38.602,-40.95,-321.3,-1.505,-0.067832,0.061975999999999996,-2.354844,3
2024-06-14 11:38:38.607,-41.79,-348.66999999999996,-3.745,-0.11663199999999999,0.0854,-2.5646839999999997,3
2024-06-14 11:38:38.612,-43.05,-378.42,-7.49,-0.12468399999999999,0.14737599999999998,-2.6596,3
2024-06-14 11:38:38.617,-38.325,-414.015,-11.620000000000001,-0.20032399999999997,0.20935199999999998,-3.089772,3
2024-06-14 11:38:38.621,-37.59,-444.22,-16.345,-0.180072,0.255956,-3.237392,3
2024-06-14 11:38:38.626,-37.17,-483.315,-21.525,-0.22472399999999998,0.324032,-3.5055479999999997,3
2024-06-14 11:38:38.631,-36.120000000000005,-513.1,-28.7,-0.16226,0.362096,-3.97964,3
2024-06-14 11:38:38.636,-47.11,-543.3050000000001,-28.77,-0.015616000000000001,0.35502,-4.221444,3
2024-06-14 11:38:38.641,-72.205,-573.65,-36.015,-0.06222,0.6356200000000001,-4.264388,3
2024-06-14 11:38:38.645,-81.795,-597.38,-45.045,-0.0039039999999999995,0.308904,-4.428599999999999,3
2024-06-14 11:38:38.650,-91.69999999999999,-615.0550000000001,-46.165,-0.006587999999999997,0.084424,-4.650396000000001,3
2024-06-14 11:38:38.655,-98.10499999999999,-631.435,-46.83,-0.11834,-0.075396,-4.867068,3
2024-06-14 11:38:38.660,-83.22999999999999,-649.3199999999999,-47.32,-0.12736799999999998,-0.22228399999999998,-5.277964,3
2024-06-14 11:38:38.665,-53.97,-660.835,-48.265,-0.372832,-0.207156,-5.1318079999999995,3
2024-06-14 11:38:38.669,-3.954999999999999,-661.605,-49.035,-0.6070720000000001,-0.203984,-4.603059999999999,3
2024-06-14 11:38:38.674,43.82,-643.685,-47.879999999999995,-1.0189439999999998,-0.220088,-4.028928,3
2024-06-14 11:38:38.679,85.85499999999999,-602.0699999999999,-43.33,-1.748748,-0.0854,-3.545564,3
2024-06-14 11:38:38.684,125.50999999999999,-561.26,-37.415,-2.5358919999999996,0.23155599999999998,-3.318156,3
2024-06-14 11:38:38.689,166.565,-531.44,-33.53,-3.271552,0.528504,-2.967772,4
2024-06-14 11:38:38.694,174.825,-486.71000000000004,-36.155,-3.50994,1.02358,-1.550864,4
2024-06-14 11:38:38.698,175.66500000000002,-431.58500000000004,-50.785,-3.7536959999999997,1.630164,0.419436,4
2024-06-14 11:38:38.703,192.64,-395.71000000000004,-59.849999999999994,-2.7025439999999996,2.378024,1.342488,4
2024-06-14 11:38:38.708,142.38,-351.78499999999997,-68.11,-1.6750599999999998,2.084492,-1.3927519999999998,4
2024-06-14 11:38:38.713,-21.91,-176.68,-106.33,-1.5093839999999998,2.445124,-2.293844,4
2024-06-14 11:38:38.718,-109.655,-59.56999999999999,-143.465,-2.2728599999999997,1.9210119999999997,-1.3969,4
2024-06-14 11:38:38.722,-144.235,29.575,-149.975,-3.003152,0.71492,-0.97234,4
2024-06-14 11:38:38.727,-154.245,121.97500000000001,-135.625,-2.802096,0.19178399999999998,-1.151192,4
2024-06-14 11:38:38.732,-118.79,185.78,-116.34,-2.11914,-0.17665600000000004,-1.129476,4
2024-06-14 11:38:38.737,-54.775,216.54500000000002,-93.8,-1.6775,-0.549732,-1.258308,4
2024-06-14 11:38:38.742,14.49,224.91,-68.6,-1.4815679999999998,-0.673196,-1.340536,4
2024-06-14 11:38:38.746,72.87,224.91000000000003,-43.715,-1.38592,-0.532408,-1.138992,4
2024-06-14 11:38:38.751,116.47999999999999,224.945,-22.33,-1.33712,-0.26815599999999995,-0.9298839999999999,4
2024-06-14 11:38:38.756,143.745,227.64,-5.3549999999999995,-1.274168,-0.029279999999999994,-0.822036,4
2024-06-14 11:38:38.761,155.82,232.75,7.455,-1.172908,0.164944,-0.743468,4
2024-06-14 11:38:38.766,155.96,240.45,16.835,-1.067988,0.37185599999999996,-0.6678280000000001,4
2024-06-14 11:38:38.770,145.88,251.09,22.365000000000002,-1.005768,0.5699839999999999,-0.5997520000000001,4
2024-06-14 11:38:38.774,124.81,264.6,23.73,-0.9718519999999999,0.726388,-0.56974,4
2024-06-14 11:38:38.779,95.025,278.66999999999996,21.42,-0.9372039999999999,0.820084,-0.573888,4
2024-06-14 11:38:38.784,60.305,291.865,16.8,-0.8813279999999999,0.853024,-0.6121960000000001,4
2024-06-14 11:38:38.789,24.85,303.275,11.059999999999999,-0.8064199999999999,0.835944,-0.652944,4
2024-06-14 11:38:38.794,-6.8950000000000005,312.16499999999996,5.285,-0.725412,0.756888,-0.703452,4
2024-06-14 11:38:38.798,-32.69,319.20000000000005,0.7350000000000001,-0.641232,0.6402559999999999,-0.75518,4
2024-06-14 11:38:38.803,-52.535,324.765,-2.52,-0.563152,0.517524,-0.817888,4
2024-06-14 11:38:38.808,-66.88499999999999,329.35,-4.654999999999999,-0.49044,0.404552,-0.8818159999999999,4
2024-06-14 11:38:38.813,-75.565,332.67499999999995,-5.5649999999999995,-0.43554000000000004,0.30255999999999994,-0.94428,4
2024-06-14 11:38:38.818,-79.73,334.95,-5.67,-0.38308,0.205448,-1.013332,4
2024-06-14 11:38:38.823,-80.99000000000001,337.47,-5.145,-0.35062800000000005,0.136152,-1.0631080000000002,4
2024-06-14 11:38:38.827,-79.625,340.515,-4.095000000000001,-0.332572,0.084424,-1.0984880000000001,4
2024-06-14 11:38:38.832,-76.58,344.61,-2.73,-0.32500799999999996,0.051728,-1.119716,4
2024-06-14 11:38:38.837,-73.67500000000001,350.70000000000005,-1.54,-0.31744399999999995,0.039040000000000005,-1.158756,4
2024-06-14 11:38:38.842,-70.875,357.875,-0.77,-0.295972,0.041968000000000005,-1.207068,4
2024-06-14 11:38:38.847,-68.355,364.875,-0.035,-0.271084,0.033916,-1.2651399999999997,4
2024-06-14 11:38:38.851,-66.71000000000001,371.21000000000004,0.385,-0.24546400000000002,0.040260000000000004,-1.3332160000000002,4
2024-06-14 11:38:38.856,-64.89,376.39,0.49,-0.207644,0.053192,-1.406904,4
2024-06-14 11:38:38.861,-63.7,380.485,0.315,-0.17812,0.062952,-1.4703439999999999,4
2024-06-14 11:38:38.866,-63.91,383.28499999999997,0.14,-0.14810800000000002,0.076616,-1.529392,4
2024-06-14 11:38:38.871,-64.19,385.7,-0.21,-0.12297599999999999,0.094916,-1.572336,4
2024-06-14 11:38:38.876,-64.85499999999999,387.555,-0.385,-0.100528,0.102724,-1.624552,4
2024-06-14 11:38:38.880,-66.325,389.025,-0.63,-0.08784,0.12004799999999999,-1.6787200000000002,4
2024-06-14 11:38:38.885,-68.39,390.11,-0.875,-0.070516,0.132736,-1.74216,4
2024-06-14 11:38:38.890,-70.875,391.265,-0.595,-0.055144,0.141764,-1.805844,4
2024-06-14 11:38:38.895,-73.11500000000001,392.385,0.455,-0.03416,0.15128,-1.869284,4
2024-06-14 11:38:38.900,-75.03999999999999,393.96,2.24,-0.017812,0.160796,-1.928576,4
2024-06-14 11:38:38.904,-77.21000000000001,395.99,4.795,-0.004392,0.17446,-1.9876239999999998,4
2024-06-14 11:38:38.909,-80.255,397.985,8.05,0.009516,0.201788,-2.0542359999999995,4
2024-06-14 11:38:38.914,-84.35,399.875,11.515,0.029524,0.2379,-2.135732,4
2024-06-14 11:38:38.919,-89.66999999999999,401.16999999999996,15.364999999999998,0.049776,0.27279200000000003,-2.234552,4
2024-06-14 11:38:38.924,-95.55000000000001,401.65999999999997,19.32,0.080764,0.305732,-2.354356,4
2024-06-14 11:38:38.929,-102.16499999999999,401.59000000000003,24.36,0.12468399999999999,0.328912,-2.4817240000000003,4
2024-06-14 11:38:38.933,-107.555,400.645,30.799999999999997,0.18666,0.34404,-2.6242199999999998,4
2024-06-14 11:38:38.938,-111.30000000000001,399.07,39.165,0.255224,0.35136,-2.765008,4
2024-06-14 11:38:38.943,-113.75,397.6,49.525,0.31964000000000004,0.358924,-2.8960359999999996,4
2024-06-14 11:38:38.948,-115.675,396.305,62.125,0.401868,0.377224,-3.019012,4
2024-06-14 11:38:38.953,-118.02000000000001,395.115,76.265,0.5194759999999999,0.390644,-3.0895279999999996,4
2024-06-14 11:38:38.957,-121.555,394.1,91.49000000000001,0.65636,0.395524,-3.1639479999999995,4
2024-06-14 11:38:38.962,-129.01,392.49,106.715,0.799832,0.40625999999999995,-3.261304,4
2024-06-14 11:38:38.967,-139.825,389.865,120.47,0.9384239999999999,0.41724000000000006,-3.379156,4
2024-06-14 11:38:38.972,-148.95999999999998,387.31,133.14,1.1162999999999998,0.373808,-3.456504,4
2024-06-14 11:38:38.977,-153.93,385.245,146.02,1.343708,0.313052,-3.477976,4
2024-06-14 11:38:38.982,-154.875,383.985,158.235,1.601616,0.27010799999999996,-3.4794400000000003,4
2024-06-14 11:38:38.986,-152.635,383.39,168.56,1.8849,0.23668,-3.431372,4
2024-06-14 11:38:38.991,-147.83999999999997,382.97,175.63,2.190144,0.202764,-3.3347480000000003,4
2024-06-14 11:38:38.996,-138.845,381.85,178.815,2.523204,0.207644,-3.235684,4
2024-06-14 11:38:39.001,-124.70500000000001,379.855,176.925,2.9333679999999998,0.250832,-3.07318,4
2024-06-14 11:38:39.006,-106.82,376.005,168.42000000000002,3.464556,0.323056,-2.8428440000000004,4
2024-06-14 11:38:39.010,-89.39,368.48,151.305,4.068944,0.41113999999999995,-2.5444319999999996,4
2024-06-14 11:38:39.015,-77.38499999999999,355.21500000000003,124.70500000000001,4.705539999999999,0.471408,-2.216252,4
2024-06-14 11:38:39.020,-69.825,331.905,88.16499999999999,5.296264000000001,0.568764,-1.870504,4
2024-06-14 11:38:39.025,-69.405,296.79999999999995,40.705,5.785972,0.643184,-1.5728239999999998,4
2024-06-14 11:38:39.030,-73.745,252.875,-15.049999999999999,6.131232,0.6475759999999999,-1.47742,4
2024-06-14 11:38:39.035,-74.865,203.315,-73.465,6.47332,0.512888,-1.5015759999999998,4
2024-06-14 11:38:39.039,-74.19999999999999,152.74,-126.94500000000001,6.837856,0.169092,-1.4559479999999998,4
2024-06-14 11:38:39.044,-65.205,100.555,-168.07,6.970592,-0.19398,-1.4500919999999997,4
2024-06-14 11:38:39.049,-39.165,43.75,-195.09,6.725616,-0.521428,-1.453996,4
2024-06-14 11:38:39.054,-2.7300000000000004,-13.3,-209.825,6.203211999999999,-0.784216,-1.407636,4
2024-06-14 11:38:39.059,37.45,-66.43,-213.115,5.526356,-0.9408639999999999,-1.434964,4
2024-06-14 11:38:39.063,79.03,-114.20500000000001,-206.745,4.880731999999999,-0.975512,-1.582096,4
2024-06-14 11:38:39.068,121.94,-155.435,-190.155,4.345884,-0.899384,-1.706292,4
2024-06-14 11:38:39.073,185.85,-183.96,-154.945,3.119784,-2.310192,-3.5977799999999998,4
