time,gyroscope_x,gyroscope_y,gyroscope_z,accelerometer_x,accelerometer_y,accelerometer_z,phase
2024-06-14 09:34:09.059,133.91,-412.15999999999997,53.760000000000005,-0.13419999999999999,-0.203008,-5.777432,1
2024-06-14 09:34:09.063,61.67,-388.745,34.125,-3.798836,0.210084,-0.14713199999999999,1
2024-06-14 09:34:09.068,197.645,-244.82500000000002,28.805,-4.059916,0.28791999999999995,0.28596799999999994,1
2024-06-14 09:34:09.073,206.815,-297.22,5.529999999999999,-2.1106,-0.271572,-1.42252,1
2024-06-14 09:34:09.078,212.27499999999998,-315.07,-7.630000000000001,0.301096,-0.543388,-2.022272,1
2024-06-14 09:34:09.083,202.755,-300.195,-8.96,1.417396,-0.01829999999999999,-1.603568,1
2024-06-14 09:34:09.088,192.92,-300.82500000000005,-2.24,1.51036,0.254004,-1.031876,1
2024-06-14 09:34:09.092,154.84,-300.92999999999995,9.66,0.475312,0.04758,-1.486936,1
2024-06-14 09:34:09.097,92.015,-279.475,24.92,-0.472384,0.027084,-2.0342279999999997,1
2024-06-14 09:34:09.102,47.285,-260.225,35.35,-0.5648599999999999,0.093696,-1.9139359999999999,1
2024-06-14 09:34:09.107,35.49,-249.06,35.0,-0.09638000000000001,-0.127856,-1.649684,1
2024-06-14 09:34:09.112,43.015,-245.45499999999998,26.880000000000003,0.24448799999999998,-0.35087199999999996,-1.676768,1
2024-06-14 09:34:09.117,45.08,-247.485,12.705,0.1586,-0.36453599999999997,-1.756068,1
2024-06-14 09:34:09.121,42.56,-239.575,-0.875,-0.055876,-0.336964,-1.7709519999999999,1
2024-06-14 09:34:09.126,37.66,-214.13,-10.745000000000001,-0.086864,-0.20496,-1.8016960000000002,1
2024-06-14 09:34:09.131,41.72,-193.305,-15.75,0.032452,-0.033184,-1.634312,1
2024-06-14 09:34:09.136,44.8,-175.49,-14.0,0.079544,0.168116,-1.694824,1
2024-06-14 09:34:09.141,45.78,-146.3,-3.745,0.065636,0.19519999999999998,-1.5896599999999999,1
2024-06-14 09:34:09.146,38.675,-112.49000000000001,10.115,0.043188,0.20788800000000002,-1.5086519999999999,1
2024-06-14 09:34:09.150,32.41,-82.63499999999999,17.884999999999998,0.040992,-0.09198800000000001,-1.369084,1
2024-06-14 09:34:09.155,21.595,-60.97,17.92,0.019276,0.121756,-1.1758359999999999,2
2024-06-14 09:34:09.160,15.364999999999998,-52.185,17.08,0.111264,0.043432,-1.2056040000000001,2
2024-06-14 09:34:09.165,10.08,-42.980000000000004,17.745,0.081008,-0.061975999999999996,-1.186084,2
2024-06-14 09:34:09.170,6.405,-36.015,15.085,-0.026840000000000003,-0.071736,-1.101416,2
2024-06-14 09:34:09.175,4.305,-29.47,10.780000000000001,-0.076372,-0.036356,-1.060912,2
2024-06-14 09:34:09.180,3.1849999999999996,-25.305,8.015,-0.048556,-0.003172,-1.0335839999999998,2
2024-06-14 09:34:09.184,1.575,-22.505,7.84,-0.026352,-0.004148,-1.0340719999999999,2
2024-06-14 09:34:09.189,0.315,-20.545,7.84,-0.033916,-0.004392,-1.0396839999999998,2
2024-06-14 09:34:09.194,-0.315,-19.215,6.825,-0.04074799999999999,0.008052,-1.0396839999999998,2
2024-06-14 09:34:09.199,-0.7,-16.939999999999998,5.6,-0.039772,0.01464,-1.0252879999999998,2
2024-06-14 09:34:09.204,-0.8049999999999999,-15.785,4.9,-0.045383999999999994,0.0305,-1.0155280000000002,2
2024-06-14 09:34:09.209,-0.665,-15.4,4.69,-0.060023999999999994,0.039772,-0.998936,2
2024-06-14 09:34:09.213,0.07,-14.77,4.27,-0.06953999999999999,0.04392,-0.9884439999999999,2
2024-06-14 09:34:09.218,0.595,-14.35,3.675,-0.069052,0.037332000000000004,-0.9938119999999999,2
2024-06-14 09:34:09.223,0.735,-13.440000000000001,2.9749999999999996,-0.053680000000000005,0.027572,-1.0072320000000001,2
2024-06-14 09:34:09.228,0.63,-11.934999999999999,2.3449999999999998,-0.059048,0.02806,-1.0128439999999999,2
2024-06-14 09:34:09.233,0.595,-11.655000000000001,1.7149999999999999,-0.048311999999999994,0.017812,-1.0169920000000001,2
2024-06-14 09:34:09.238,0.665,-11.795,1.26,-0.0427,0.020984000000000003,-1.0104039999999999,2
2024-06-14 09:34:09.242,0.245,-11.34,0.8049999999999999,-0.051972000000000004,0.02196,-1.0072320000000001,2
2024-06-14 09:34:09.247,0.245,-11.375,0.245,-0.051484,0.017568,-1.0060120000000001,2
2024-06-14 09:34:09.252,0.10500000000000001,-12.004999999999999,-0.28,-0.0549,0.009028,-1.0091839999999999,2
2024-06-14 09:34:09.257,0.035,-12.39,-0.49,-0.049288,0.012444,-1.007964,2
2024-06-14 09:34:09.262,0.10500000000000001,-13.195,-0.49,-0.043432,0.009272,-1.0060120000000001,2
2024-06-14 09:34:09.267,0.06999999999999999,-13.405000000000001,-0.7,-0.046848,0.012199999999999999,-1.0060120000000001,2
2024-06-14 09:34:09.271,0.07,-14.105,-0.8049999999999999,-0.047336,0.016348,-1.006988,2
2024-06-14 09:34:09.276,0.0,-14.594999999999999,-0.91,-0.04636,0.023667999999999998,-1.0043039999999999,2
2024-06-14 09:34:09.281,0.21000000000000002,-14.7,-1.085,-0.041479999999999996,0.028548,-1.00528,2
2024-06-14 09:34:09.286,0.385,-15.085,-1.225,-0.041235999999999995,0.026352,-1.00284,2
2024-06-14 09:34:09.291,0.7,-15.120000000000001,-1.33,-0.039284,0.023424,-1.006256,2
2024-06-14 09:34:09.296,0.84,-15.155,-1.435,-0.043432,0.026108,-1.0035720000000001,2
2024-06-14 09:34:09.300,1.05,-15.19,-1.7149999999999999,-0.036844,0.027327999999999998,-1.00772,2
2024-06-14 09:34:09.305,1.19,-15.505,-1.61,-0.040992,0.0244,-1.001376,2
2024-06-14 09:34:09.310,-0.5949999999999999,-17.535,-2.1,-0.0366,0.029768,-1.000156,2
2024-06-14 09:34:09.315,2.45,-14.139999999999999,-1.365,-0.03294,0.029036,-1.00162,2
2024-06-14 09:34:09.320,0.98,-12.74,-1.645,-0.029524,0.02562,-0.99918,2
2024-06-14 09:34:09.325,1.2599999999999998,-11.515,-2.45,-0.027327999999999998,0.02684,-0.9943,2
2024-06-14 09:34:09.329,1.8199999999999998,-10.29,-2.4850000000000003,-0.029768,0.028304,-0.9952759999999999,2
2024-06-14 09:34:09.334,0.7,-8.96,-2.275,-0.026352,0.027572,-0.99308,2
2024-06-14 09:34:09.339,2.0300000000000002,-7.3149999999999995,-2.275,-0.024644,0.027572,-0.99186,2
2024-06-14 09:34:09.344,0.8400000000000001,-6.265000000000001,-3.08,-0.030012,0.029524,-0.9943,2
2024-06-14 09:34:09.349,1.925,-5.215,-3.325,-0.027083999999999997,0.030012,-0.993324,2
2024-06-14 09:34:09.354,1.225,-4.235,-3.36,-0.02928,0.030255999999999998,-0.993568,2
2024-06-14 09:34:09.358,2.0300000000000002,-3.5700000000000003,-3.2199999999999998,-0.031964,0.02806,-0.997228,2
2024-06-14 09:34:09.363,1.8199999999999998,-2.59,-3.4299999999999997,-0.032208,0.033428,-0.99552,2
2024-06-14 09:34:09.368,2.3449999999999998,-2.2750000000000004,-3.7800000000000002,-0.038308,0.028791999999999998,-0.9986919999999999,2
2024-06-14 09:34:09.373,2.7649999999999997,-2.135,-3.71,-0.038308,0.030012,-0.998448,2
2024-06-14 09:34:09.378,3.045,-2.3449999999999998,-3.4299999999999997,-0.039284,0.034892,-0.9962519999999999,2
2024-06-14 09:34:09.383,3.6399999999999997,-2.59,-3.605,-0.03538,0.033428,-0.997716,2
2024-06-14 09:34:09.388,3.9899999999999998,-2.45,-3.92,-0.035624,0.03172,-0.996008,2
2024-06-14 09:34:09.392,4.375,-2.45,-4.199999999999999,-0.033916,0.026352,-0.9962519999999999,2
2024-06-14 09:34:09.397,4.41,-2.38,-4.2,-0.036844,0.033916,-0.994056,2
2024-06-14 09:34:09.402,4.375,-3.08,-4.164999999999999,-0.0305,0.02318,-0.9989359999999999,2
2024-06-14 09:34:09.407,3.955,-4.550000000000001,-4.2,-0.030255999999999998,0.01952,-1.009428,2
2024-06-14 09:34:09.412,3.815,-7.07,-4.48,-0.02928,0.013908,-1.016016,2
2024-06-14 09:34:09.417,3.605,-9.695,-4.655,-0.02928,0.013908,-1.0169920000000001,2
2024-06-14 09:34:09.421,3.395,-12.6,-4.585,-0.030255999999999998,0.018788,-1.0179680000000002,2
2024-06-14 09:34:09.426,3.3600000000000003,-15.260000000000002,-4.69,-0.027572,0.017811999999999998,-1.0204079999999998,2
2024-06-14 09:34:09.431,3.675,-17.745,-4.795,-0.025619999999999997,0.02318,-1.02358,2
2024-06-14 09:34:09.436,3.675,-21.805,-4.9350000000000005,-0.020008,0.011467999999999999,-1.023092,2
2024-06-14 09:34:09.441,4.69,-24.57,-4.83,-0.024644,0.017812,-1.02968,2
2024-06-14 09:34:09.446,10.99,-35.42,-4.305,-0.016104,0.010492,-1.03334,2
2024-06-14 09:34:09.450,10.85,-30.240000000000002,-3.85,-0.02074,0.020252,-1.0309,2
2024-06-14 09:34:09.455,11.025,-33.88,-2.9749999999999996,-0.02196,0.019275999999999998,-1.03212,2
2024-06-14 09:34:09.460,14.035,-37.625,-3.115,-0.019763999999999997,0.017324,-1.04432,2
2024-06-14 09:34:09.465,10.254999999999999,-59.045,-3.255,-0.01952,0.012688,-1.050664,2
2024-06-14 09:34:09.470,19.810000000000002,-49.349999999999994,-2.3449999999999998,-0.016592,0.039284,-1.050664,2
2024-06-14 09:34:09.475,20.125,-56.315,-2.66,-0.011467999999999999,0.050264,-1.053104,2
2024-06-14 09:34:09.479,23.975,-63.175,-3.045,0.0034159999999999998,0.02318,-1.048224,2
2024-06-14 09:34:09.484,26.355,-75.18,-2.835,-0.00122,0.022203999999999998,-1.0906799999999999,2
2024-06-14 09:34:09.489,31.185000000000002,-88.095,-1.785,-0.010248,0.020739999999999998,-1.139236,2
2024-06-14 09:34:09.494,26.425,-96.39,-2.0300000000000002,-0.003416,-0.040748,-1.229272,2
2024-06-14 09:34:09.499,14.28,-100.66,-2.695,-0.034404,-0.048799999999999996,-1.4110519999999998,2
2024-06-14 09:34:09.504,1.96,-99.225,-4.025,0.00024399999999999986,-0.011956000000000001,-1.240984,2
2024-06-14 09:34:09.508,0.875,-102.16499999999999,-3.255,0.022448000000000003,-0.018300000000000004,-1.2666039999999998,2
2024-06-14 09:34:09.513,-2.625,-107.31,-3.535,0.024156,0.006344,-1.297348,2
2024-06-14 09:34:09.518,-2.9050000000000002,-111.055,-3.045,0.028548,-0.036843999999999995,-1.33834,2
2024-06-14 09:34:09.523,-5.32,-116.69,-2.345,0.034404000000000004,-0.019276,-1.3600560000000002,2
2024-06-14 09:34:09.528,-5.95,-116.13,-1.9249999999999998,0.038796,-0.0061,-1.367864,2
2024-06-14 09:34:09.533,-6.6850000000000005,-119.91,-1.085,0.050996,-0.040504,-1.3768919999999998,2
2024-06-14 09:34:09.537,-5.985,-125.54499999999999,0.245,0.048556,-0.050752,-1.383236,2
2024-06-14 09:34:09.542,-8.925,-129.675,1.435,0.059292,-0.042943999999999996,-1.3803079999999999,2
2024-06-14 09:34:09.547,-11.655000000000001,-138.46,2.625,0.060756,-0.05246,-1.4051960000000001,3
2024-06-14 09:34:09.552,-15.96,-141.785,3.08,0.065636,-0.061976,-1.3681079999999999,3
2024-06-14 09:34:09.557,-17.255000000000003,-145.84500000000003,4.234999999999999,0.062708,-0.08710799999999999,-1.351028,3
2024-06-14 09:34:09.562,-19.6,-151.62,6.055,0.075396,-0.092476,-1.45302,3
2024-06-14 09:34:09.566,-24.535,-158.72500000000002,6.58,0.07002799999999998,-0.008784,-1.434964,3
2024-06-14 09:34:09.571,-29.924999999999997,-167.825,5.705,0.05978,-0.022448000000000003,-1.480104,3
2024-06-14 09:34:09.576,-31.605,-178.675,5.25,0.056608,0.032208,-1.51036,3
2024-06-14 09:34:09.581,-31.884999999999998,-190.33,3.535,0.05734,0.078568,-1.5311,3
2024-06-14 09:34:09.586,-30.485,-202.93,1.4,0.053924,0.077348,-1.568676,3
2024-06-14 09:34:09.591,-28.735,-216.72,-0.735,0.041724,0.11053199999999999,-1.5603799999999999,3
2024-06-14 09:34:09.596,-28.105,-231.245,-3.71,0.031964,0.122,-1.586488,3
2024-06-14 09:34:09.600,-28.700000000000003,-246.54000000000002,-6.300000000000001,0.028791999999999998,0.08832799999999999,-1.612352,3
2024-06-14 09:34:09.605,-29.119999999999997,-263.62,-8.085,0.028303999999999996,0.048068,-1.7416719999999999,3
2024-06-14 09:34:09.610,-31.115000000000002,-283.08,-9.45,0.025376,0.00732,-1.8561079999999999,3
2024-06-14 09:34:09.615,-28.455,-307.09000000000003,-10.989999999999998,0.016348,0.11516799999999999,-1.9032,3
2024-06-14 09:34:09.620,-26.985,-328.78999999999996,-15.05,-0.016347999999999998,0.26352,-1.8792879999999998,3
2024-06-14 09:34:09.625,-22.854999999999997,-351.29499999999996,-22.295,-0.046604,0.362096,-1.810724,3
2024-06-14 09:34:09.629,-18.9,-373.31,-30.625,-0.045628,0.407968,-1.86416,3
2024-06-14 09:34:09.634,-20.369999999999997,-395.53499999999997,-37.8,0.0068319999999999995,0.25668799999999997,-1.901492,3
2024-06-14 09:34:09.639,-19.39,-420.45500000000004,-38.675,0.049044,-0.038308,-2.158912,3
2024-06-14 09:34:09.644,-10.01,-445.27,-33.004999999999995,0.11760799999999999,-0.24497599999999997,-2.410476,3
2024-06-14 09:34:09.649,5.459999999999999,-464.8,-23.485,0.220088,-0.193248,-2.390224,3
2024-06-14 09:34:09.654,-6.545,-471.94,-15.715,0.354776,-0.2318,-2.73646,3
2024-06-14 09:34:09.658,-15.33,-486.325,-8.61,0.5058119999999999,-0.024399999999999998,-2.9858279999999997,3
2024-06-14 09:34:09.663,-31.395,-489.09000000000003,-5.845000000000001,0.611952,0.107604,-2.928244,3
2024-06-14 09:34:09.668,-41.3,-489.37,-3.5700000000000003,0.6243960000000001,0.091256,-2.9870479999999997,3
2024-06-14 09:34:09.673,-52.885,-483.94500000000005,-1.6099999999999999,0.612196,0.23058,-2.90604,3
2024-06-14 09:34:09.678,-72.24,-476.875,-5.390000000000001,0.404308,0.317444,-2.8116120000000002,3
2024-06-14 09:34:09.683,-83.755,-472.15,-12.46,0.08735200000000001,0.19300399999999998,-2.714256,3
2024-06-14 09:34:09.687,-87.185,-467.46000000000004,-17.884999999999998,0.024155999999999997,0.08003199999999999,-2.7569559999999997,3
2024-06-14 09:34:09.692,-78.61,-469.21000000000004,-23.275,0.010003999999999999,0.0012199999999999989,-2.772084,3
2024-06-14 09:34:09.697,-61.074999999999996,-457.905,-29.4,0.20935199999999998,0.101016,-2.561268,3
2024-06-14 09:34:09.702,-41.86,-447.09000000000003,-33.04,0.214964,0.24375600000000003,-2.880908,3
2024-06-14 09:34:09.707,-31.78,-436.625,-37.87,0.175924,0.36356,-2.79624,3
2024-06-14 09:34:09.712,-24.57,-409.15,-43.47,-0.227896,0.46677199999999996,-2.5659039999999997,3
2024-06-14 09:34:09.716,-19.11,-376.635,-49.875,-0.8005639999999999,0.449692,-2.3370319999999998,3
2024-06-14 09:34:09.721,-16.869999999999997,-332.85,-57.084999999999994,-1.3929960000000001,0.393328,-2.1042560000000003,3
2024-06-14 09:34:09.726,-20.475,-282.485,-75.215,-1.6845759999999999,0.006588000000000004,-1.752896,3
2024-06-14 09:34:09.731,-24.009999999999998,-233.10000000000002,-69.65,-2.08132,0.13176,-1.2890519999999999,3
2024-06-14 09:34:09.736,-20.615000000000002,-199.955,-75.775,-1.569652,0.160552,-0.594384,3
2024-06-14 09:34:09.741,17.849999999999998,-219.94,-62.755,-1.332972,0.22814,-0.599264,3
2024-06-14 09:34:09.745,25.41,-117.67,-49.49,-1.704584,0.084912,-1.725568,3
2024-06-14 09:34:09.750,17.08,-32.97,-39.76,-1.6650559999999999,0.032208,-1.565748,3
2024-06-14 09:34:09.755,26.424999999999997,4.34,-29.54,-1.437404,-0.02196,-1.2500120000000001,3
2024-06-14 09:34:09.760,47.355000000000004,31.36,-16.1,-1.345904,0.040260000000000004,-1.191452,3
2024-06-14 09:34:09.765,61.95,53.41,-3.395,-1.2963719999999999,0.128832,-1.193648,3
2024-06-14 09:34:09.770,61.004999999999995,64.36500000000001,4.62,-1.182912,0.197884,-1.135332,3
2024-06-14 09:34:09.774,52.745000000000005,69.965,10.01,-1.076772,0.22813999999999998,-1.0326079999999997,3
2024-06-14 09:34:09.779,46.760000000000005,75.495,15.085,-1.0389519999999999,0.197884,-0.9074359999999999,3
2024-06-14 09:34:09.784,43.365,83.23,19.18,-1.0389519999999999,0.16250399999999998,-0.773236,3
2024-06-14 09:34:09.789,41.72,94.395,21.805,-1.03212,0.131516,-0.671488,4
2024-06-14 09:34:09.794,41.545,109.06,23.485,-1.0206520000000001,0.100284,-0.6246400000000001,4
2024-06-14 09:34:09.799,42.21,125.545,24.605,-1.007476,0.07564,-0.604876,4
2024-06-14 09:34:09.803,43.89,143.60500000000002,24.78,-0.997716,0.051239999999999994,-0.589504,4
2024-06-14 09:34:09.808,46.41,162.575,24.185000000000002,-0.97722,0.031232000000000003,-0.574376,4
2024-06-14 09:34:09.813,48.93,181.37,22.4,-0.9545279999999999,0.01708,-0.558028,4
2024-06-14 09:34:09.818,50.644999999999996,199.36,19.355,-0.9208559999999999,0.016347999999999998,-0.5538799999999999,4
2024-06-14 09:34:09.823,51.555,216.3,15.75,-0.88328,0.021227999999999997,-0.5636399999999999,4
2024-06-14 09:34:09.828,50.75,232.015,11.094999999999999,-0.8417999999999999,0.03952800000000001,-0.580964,4
2024-06-14 09:34:09.833,48.16,246.645,5.005,-0.806664,0.060511999999999996,-0.597556,4
2024-06-14 09:34:09.837,43.925,259.945,-2.065,-0.7625,0.08393600000000001,-0.6178079999999999,4
2024-06-14 09:34:09.842,38.43,272.33500000000004,-10.045,-0.717116,0.095648,-0.642208,4
2024-06-14 09:34:09.847,32.375,283.71000000000004,-18.130000000000003,-0.6763680000000001,0.096136,-0.678564,4
2024-06-14 09:34:09.852,27.020000000000003,293.78999999999996,-26.355,-0.626104,0.08759600000000001,-0.7022320000000001,4
2024-06-14 09:34:09.857,22.295,302.78499999999997,-34.44,-0.5838920000000001,0.071004,-0.7388319999999999,4
2024-06-14 09:34:09.862,18.725,311.28999999999996,-42.175,-0.5448519999999999,0.061731999999999995,-0.77348,4
2024-06-14 09:34:09.866,15.96,319.305,-49.21,-0.5131319999999999,0.048068,-0.8144720000000001,4
2024-06-14 09:34:09.871,13.649999999999999,327.355,-55.335,-0.489464,0.037332000000000004,-0.864004,4
2024-06-14 09:34:09.876,11.620000000000001,335.93,-60.9,-0.466528,0.036356,-0.907192,4
2024-06-14 09:34:09.881,9.765,344.89,-65.94,-0.45310799999999996,0.035136,-0.955016,4
2024-06-14 09:34:09.886,8.645,354.16499999999996,-70.14,-0.43822399999999995,0.033428,-1.00284,4
2024-06-14 09:34:09.891,7.875,363.265,-73.78,-0.41699600000000003,0.031964,-1.059936,4
2024-06-14 09:34:09.895,6.265000000000001,371.315,-76.82499999999999,-0.354044,0.024399999999999998,-1.127036,4
2024-06-14 09:34:09.900,6.475,377.02,-78.96000000000001,-0.296704,0.037088,-1.1772999999999998,4
2024-06-14 09:34:09.905,5.67,379.225,-80.36,-0.315736,0.055875999999999995,-1.233908,4
2024-06-14 09:34:09.910,-1.9949999999999999,386.89,-82.07499999999999,-0.29890000000000005,0.123952,-1.255868,4
2024-06-14 09:34:09.915,-6.51,393.68,-83.125,-0.280356,0.08832799999999999,-1.341756,4
2024-06-14 09:34:09.920,-15.855,396.865,-83.61500000000001,-0.24424400000000002,0.130052,-1.440332,4
2024-06-14 09:34:09.924,-22.155,401.17,-83.33500000000001,-0.229116,0.13566399999999998,-1.4862039999999999,4
2024-06-14 09:34:09.929,-28.665,404.21500000000003,-82.74000000000001,-0.215696,0.13468799999999997,-1.5716039999999998,4
2024-06-14 09:34:09.934,-34.65,407.47,-81.76,-0.188612,0.144448,-1.6384599999999998,4
2024-06-14 09:34:09.939,-40.32,410.48,-80.465,-0.152256,0.110044,-1.698728,4
2024-06-14 09:34:09.944,-46.375,411.95,-78.57499999999999,-0.127612,0.162748,-1.7568,4
2024-06-14 09:34:09.949,-54.355000000000004,412.615,-77.63,-0.077592,0.20861999999999997,-1.836344,4
2024-06-14 09:34:09.953,-61.775000000000006,412.02,-77.455,-0.018788,0.24717199999999998,-1.9154,4
2024-06-14 09:34:09.958,-71.96000000000001,408.8,-78.89,0.025864,0.29646,-2.038376,4
2024-06-14 09:34:09.963,-81.41,404.66999999999996,-80.99000000000001,0.06344,0.316224,-2.132804,4
2024-06-14 09:34:09.968,-91.525,400.435,-83.44,0.099552,0.33305999999999997,-2.219912,4
2024-06-14 09:34:09.973,-102.935,397.07500000000005,-86.975,0.12736799999999998,0.351848,-2.3106799999999996,4
2024-06-14 09:34:09.978,-116.58500000000001,394.52,-91.245,0.17324,0.359656,-2.401204,4
2024-06-14 09:34:09.982,-132.895,392.70000000000005,-95.865,0.24473199999999998,0.349164,-2.5066119999999996,4
2024-06-14 09:34:09.987,-150.395,392.175,-99.89,0.3294,0.299388,-2.611044,4
2024-06-14 09:34:09.992,-166.215,393.155,-102.16499999999999,0.41724,0.20910800000000002,-2.700348,4
2024-06-14 09:34:09.997,-177.065,395.99,-101.115,0.5265519999999999,0.07466400000000001,-2.7911159999999997,4
2024-06-14 09:34:10.002,-181.125,399.45500000000004,-95.47999999999999,0.6634359999999999,-0.051239999999999994,-2.883348,4
2024-06-14 09:34:10.007,-178.15,402.43,-84.84,0.820572,-0.168848,-2.9699679999999997,4
2024-06-14 09:34:10.011,-170.135,403.865,-69.37,0.9835640000000001,-0.251564,-3.033164,4
2024-06-14 09:34:10.016,-160.54500000000002,402.745,-50.96,1.162172,-0.27693999999999996,-3.08538,4
2024-06-14 09:34:10.021,-152.25,398.86,-31.22,1.352248,-0.26449599999999995,-3.119052,4
2024-06-14 09:34:10.026,-145.985,392.0,-10.71,1.538176,-0.229848,-3.1217360000000003,4
2024-06-14 09:34:10.031,-141.82,381.08,22.82,1.539152,0.1769,-3.195668,4
2024-06-14 09:34:10.036,-145.11,367.01,29.470000000000002,1.87758,-0.062464000000000006,-3.199084,4
2024-06-14 09:34:10.041,-140.56,352.695,48.019999999999996,2.134756,-0.20251999999999998,-3.0966039999999997,4
2024-06-14 09:34:10.045,-138.985,333.235,66.815,2.3240999999999996,-0.204472,-2.9772879999999997,4
2024-06-14 09:34:10.050,-131.74,314.02,84.21000000000001,2.500756,-0.179828,-2.8884719999999997,4
2024-06-14 09:34:10.055,-122.71000000000001,294.525,98.49,2.660088,-0.139568,-2.6742399999999997,4
2024-06-14 09:34:10.060,-111.23,273.84000000000003,109.025,2.7920920000000002,-0.06661199999999999,-2.498804,4
2024-06-14 09:34:10.065,-101.465,252.10500000000002,115.535,2.9123840000000003,0.0046359999999999995,-2.321904,4
2024-06-14 09:34:10.070,-96.95,229.77499999999998,118.65,3.013156,0.0002440000000000003,-2.118164,4
2024-06-14 09:34:10.074,-111.44,206.43,118.475,3.040972,-0.048556,-2.095716,4
2024-06-14 09:34:10.079,-127.855,185.04500000000002,116.58500000000001,3.0761079999999996,-0.23643599999999998,-1.9041759999999999,4
2024-06-14 09:34:10.084,-132.37,158.34,120.995,3.04024,-0.632448,-1.620648,4
2024-06-14 09:34:10.089,-137.445,137.55,131.425,3.3715919999999997,-0.804468,-1.6067399999999998,4
2024-06-14 09:34:10.094,-128.73,123.9,138.25,3.883992,-0.7851919999999999,-1.595516,4
2024-06-14 09:34:10.099,-108.04499999999999,111.405,138.565,4.349544,-0.830576,-1.4849839999999999,4
2024-06-14 09:34:10.103,-84.875,97.125,134.225,4.803872,-0.832528,-1.321016,4
2024-06-14 09:34:10.108,-65.69500000000001,69.475,124.075,5.1398600000000005,-0.7615239999999999,-1.2646519999999999,4
2024-06-14 09:34:10.113,-51.519999999999996,28.14,106.85499999999999,5.238436,-0.723948,-1.278316,4
2024-06-14 09:34:10.118,-38.254999999999995,-23.765,84.735,5.078616,-0.740784,-1.3073519999999998,4
2024-06-14 09:34:10.123,-23.134999999999998,-78.75,60.44500000000001,4.691144,-0.784948,-1.329068,4
2024-06-14 09:34:10.128,-1.8199999999999998,-246.54,33.95,3.2542280000000003,0.202032,-4.828271999999999,4
