time,gyroscope_x,gyroscope_y,gyroscope_z,accelerometer_x,accelerometer_y,accelerometer_z,phase
2024-06-14 09:34:06.369,-74.9,-315.07,-55.545,-5.00932,-0.8037360000000001,-5.447544,1
2024-06-14 09:34:06.374,-89.25,-120.05,-85.08500000000001,-5.951892,-0.538752,2.192584,1
2024-06-14 09:34:06.379,-140.875,-208.32,-77.945,-5.809884,-0.431392,0.7341960000000001,1
2024-06-14 09:34:06.383,-122.15,-297.53499999999997,-68.32,-1.819264,-0.29475199999999996,-1.02114,1
2024-06-14 09:34:06.388,-100.48500000000001,-316.47,-82.25,0.44188399999999994,-0.472384,-1.91784,1
2024-06-14 09:34:06.393,-73.00999999999999,-330.435,-106.36500000000001,2.9097,-0.446276,-1.4474079999999998,1
2024-06-14 09:34:06.398,-30.765,-356.405,-129.36,2.527596,-0.23668,-1.3115,1
2024-06-14 09:34:06.403,34.86,-324.765,-144.97,0.534604,-0.10589599999999999,-2.0193440000000002,1
2024-06-14 09:34:06.407,77.245,-274.225,-144.97,-0.8893800000000001,0.441396,-2.0256879999999997,1
2024-06-14 09:34:06.412,63.875,-244.57999999999998,-123.62,-0.603656,0.891332,-1.99348,1
2024-06-14 09:34:06.417,25.55,-242.27,-85.015,-0.05416799999999999,0.994544,-1.875384,1
2024-06-14 09:34:06.422,-3.7800000000000002,-249.97,-44.135,0.350872,0.873764,-1.766316,1
2024-06-14 09:34:06.427,-11.585,-254.31,-11.655000000000001,0.17763199999999998,0.629276,-1.525732,1
2024-06-14 09:34:06.432,-15.295,-245.525,9.345,-0.209596,0.355508,-1.4535080000000002,1
2024-06-14 09:34:06.436,-18.41,-221.16500000000002,19.775,-0.18714799999999998,0.077104,-1.449604,1
2024-06-14 09:34:06.441,-19.32,-204.75,19.18,-0.0366,-0.23472799999999996,-1.5962480000000001,1
2024-06-14 09:34:06.446,-19.39,-195.57999999999998,5.215,0.0029280000000000005,-0.434808,-1.485472,1
2024-06-14 09:34:06.451,-9.59,-186.515,-15.434999999999999,-0.038308,-0.455304,-1.5291480000000002,1
2024-06-14 09:34:06.456,-4.2,-167.475,-33.74,-0.027816,-0.269864,-1.535004,1
2024-06-14 09:34:06.460,-2.205,-140.84,-40.495000000000005,0.044408,-0.034892,-1.478396,1
2024-06-14 09:34:06.465,-2.765,-119.63,-34.545,0.039040000000000005,0.167384,-1.436916,1
2024-06-14 09:34:06.470,-5.32,-93.765,-21.735,0.028791999999999998,0.20251999999999998,-1.353224,1
2024-06-14 09:34:06.475,-10.114999999999998,-54.46,-7.7,0.049044,0.154208,-1.2407400000000002,1
2024-06-14 09:34:06.480,-8.645,-37.730000000000004,-3.5700000000000003,-0.009516,-0.250588,-1.1358199999999998,1
2024-06-14 09:34:06.484,-3.815,-27.509999999999998,-6.58,0.105408,-0.042943999999999996,-1.208532,1
2024-06-14 09:34:06.489,-0.84,-22.435000000000002,-10.465,0.002440000000000001,-0.037576,-1.0809199999999999,1
2024-06-14 09:34:06.494,-0.8400000000000001,-22.855,-7.945,-0.09320799999999999,0.04026,-1.0106480000000002,1
2024-06-14 09:34:06.499,-1.0150000000000001,-17.5,-3.78,-0.08881599999999999,0.035379999999999995,-1.006256,2
2024-06-14 09:34:06.504,0.13999999999999999,-11.129999999999999,-1.12,-0.050996,0.018300000000000004,-1.0304119999999999,2
2024-06-14 09:34:06.508,0.91,-8.89,-1.5750000000000002,-0.030255999999999998,-0.04392,-1.030412,2
2024-06-14 09:34:06.513,1.12,-12.425,-1.295,-0.029524,-0.006587999999999999,-1.043588,2
2024-06-14 09:34:06.518,1.645,-12.67,-1.4,-0.086864,-0.021716,-1.007476,2
2024-06-14 09:34:06.523,1.225,-13.895,-0.77,-0.07198,-0.030987999999999998,-1.00772,2
2024-06-14 09:34:06.528,0.98,-15.015,-0.42,-0.050752000000000005,-0.026108,-1.00894,2
2024-06-14 09:34:06.533,0.875,-15.855,-0.63,-0.04636,-0.024644,-1.0104039999999999,2
2024-06-14 09:34:06.537,0.665,-16.415,-0.42,-0.05734,-0.026596,-1.014796,2
2024-06-14 09:34:06.542,0.42,-16.939999999999998,-0.14,-0.055144,-0.02684,-1.01016,2
2024-06-14 09:34:06.547,0.10500000000000001,-17.115,0.07,-0.056119999999999996,-0.030012,-1.009916,2
2024-06-14 09:34:06.552,-0.27999999999999997,-17.64,0.35,-0.05368,-0.033916,-1.011136,2
2024-06-14 09:34:06.557,-0.665,-18.095,0.42,-0.057339999999999995,-0.033428,-1.003816,2
2024-06-14 09:34:06.561,-0.98,-18.97,0.56,-0.05538799999999999,-0.028548,-1.00406,2
2024-06-14 09:34:06.566,-1.75,-19.32,0.875,-0.049776,-0.030987999999999995,-1.0152839999999999,2
2024-06-14 09:34:06.571,-2.275,-18.725,0.875,-0.052216,-0.033428,-1.008696,2
2024-06-14 09:34:06.576,-2.975,-18.445,0.875,-0.049044,-0.027084,-1.01016,2
2024-06-14 09:34:06.581,-3.64,-18.655,0.735,-0.050752,-0.028547999999999997,-1.0116239999999999,2
2024-06-14 09:34:06.585,-4.83,-18.83,0.56,-0.050752,-0.029523999999999995,-1.002108,2
2024-06-14 09:34:06.590,-5.355,-18.445,0.525,-0.047092,-0.03318399999999999,-1.009916,2
2024-06-14 09:34:06.595,-6.615,-17.22,0.49,-0.047091999999999995,-0.031476,-1.007476,2
2024-06-14 09:34:06.600,-7.35,-16.485,0.42000000000000004,-0.04392,-0.0305,-1.0060120000000001,2
2024-06-14 09:34:06.605,-7.9799999999999995,-16.555,0.245,-0.03904,-0.029036,-1.008696,2
2024-06-14 09:34:06.610,-7.91,-17.745,0.245,-0.043188000000000004,-0.025376,-1.000888,2
2024-06-14 09:34:06.614,-8.75,-15.995,0.35,-0.038796,-0.032208,-0.9982040000000001,2
2024-06-14 09:34:06.619,-8.82,-16.345,0.56,-0.035623999999999996,-0.029767999999999996,-1.006256,2
2024-06-14 09:34:06.624,-8.96,-17.535,0.84,-0.0305,-0.027572,-1.002596,2
2024-06-14 09:34:06.629,-8.925,-17.15,0.9450000000000001,-0.033916,-0.024156,-0.9986919999999999,2
2024-06-14 09:34:06.634,-8.504999999999999,-16.835,1.155,-0.021228,-0.022203999999999998,-1.0004,2
2024-06-14 09:34:06.638,-9.135,-15.365,1.19,-0.02928,-0.020739999999999998,-0.9864919999999999,2
2024-06-14 09:34:06.643,-7.3149999999999995,-14.805,1.19,-0.027327999999999998,-0.010735999999999999,-1.0011320000000001,2
2024-06-14 09:34:06.648,-6.265,33.25,0.875,-0.027084,-0.008784,-1.0018639999999999,2
2024-06-14 09:34:06.653,-6.790000000000001,-15.82,1.505,-0.022692,-0.01464,-1.007476,2
2024-06-14 09:34:06.658,-6.895,-16.45,1.2600000000000002,-0.022448000000000003,-0.01342,-1.0065,2
2024-06-14 09:34:06.662,-8.295,-16.31,1.365,-0.02684,-0.018056,-1.0065,2
2024-06-14 09:34:06.667,-6.02,-16.59,1.54,-0.021471999999999998,-0.0183,-1.0060120000000001,2
2024-06-14 09:34:06.672,-7.49,-16.555,1.8199999999999998,-0.023912,-0.018788,-1.003816,2
2024-06-14 09:34:06.677,-6.86,-17.115000000000002,2.065,-0.017079999999999998,-0.016348,-1.0072320000000001,2
2024-06-14 09:34:06.682,-6.58,-17.815,2.065,-0.01342,-0.016347999999999998,-1.0030839999999999,2
2024-06-14 09:34:06.686,-7.3149999999999995,-17.71,2.1,-0.01098,-0.014884,-1.0004,2
2024-06-14 09:34:06.691,-6.335,-17.92,2.24,-0.013419999999999998,-0.011956,-1.00406,2
2024-06-14 09:34:06.696,-6.4399999999999995,-18.795,2.275,-0.011467999999999999,-0.014884,-1.00528,2
2024-06-14 09:34:06.701,-6.4399999999999995,-18.305,2.485,-0.01342,-0.013663999999999999,-1.00528,2
2024-06-14 09:34:06.706,-5.88,-19.880000000000003,2.7649999999999997,-0.012199999999999999,-0.016592,-1.009916,2
2024-06-14 09:34:06.711,-6.65,-21.35,2.9050000000000002,-0.011224000000000001,-0.011712,-1.0165039999999999,2
2024-06-14 09:34:06.715,-6.86,-22.855,2.94,-0.011712,-0.013908,-1.020896,2
2024-06-14 09:34:06.720,-7.805,-24.29,3.22,-0.00976,-0.025132,-1.025288,2
2024-06-14 09:34:06.725,-9.344999999999999,-25.795,3.57,-0.010492000000000001,-0.020496,-1.035536,2
2024-06-14 09:34:06.730,-12.075,-28.21,3.5700000000000003,-0.0068319999999999995,-0.028059999999999998,-1.041636,2
2024-06-14 09:34:06.735,-16.205,-28.735,3.5,-0.00732,-0.010003999999999999,-1.0494439999999998,2
2024-06-14 09:34:06.739,-21.665,-32.865,2.66,-0.009271999999999999,-0.008539999999999999,-1.0748199999999999,2
2024-06-14 09:34:06.744,-25.585,-36.295,2.38,-0.0019519999999999993,-0.028059999999999998,-1.0389519999999999,2
2024-06-14 09:34:06.749,-27.895,-39.795,2.45,0.002928,-0.01098,-1.051884,2
2024-06-14 09:34:06.754,-30.275,-45.010000000000005,2.5549999999999997,0.011712,-0.059292,-1.050176,2
2024-06-14 09:34:06.759,-28.665,-50.33,4.34,0.020252,-0.108092,-1.053348,2
2024-06-14 09:34:06.763,-22.47,-54.67,6.51,0.0,-0.018056,-1.145336,2
2024-06-14 09:34:06.768,-11.235,-52.675,7.035,-0.027815999999999997,0.149084,-1.3610319999999998,2
2024-06-14 09:34:06.773,-8.82,-55.23,4.725,0.00024399999999999943,0.04367599999999999,-1.162416,2
2024-06-14 09:34:06.778,-4.9,-58.555,5.215,0.0122,-0.0024400000000000003,-1.183888,2
2024-06-14 09:34:06.783,-2.31,-65.905,5.109999999999999,0.011956,0.026108,-1.207068,2
2024-06-14 09:34:06.785,-1.085,-67.75999999999999,4.865,0.010003999999999999,0.023912000000000003,-1.2136559999999998,2
2024-06-14 09:34:06.787,2.625,-73.955,4.970000000000001,0.009271999999999999,0.044652,-1.2309799999999997,2
2024-06-14 09:34:06.792,6.16,-78.435,4.41,0.01464,0.050508,-1.246352,2
2024-06-14 09:34:06.797,10.185,-84.735,3.99,0.017567999999999997,0.045384,-1.255624,3
2024-06-14 09:34:06.802,13.965,-91.63,3.4299999999999997,0.014395999999999999,0.058803999999999995,-1.2927119999999999,3
2024-06-14 09:34:06.807,18.445,-98.28,2.6950000000000003,0.007075999999999999,0.078812,-1.360544,3
2024-06-14 09:34:06.812,20.335,-106.225,1.6099999999999999,0.013908,0.031476,-1.3595679999999999,3
2024-06-14 09:34:06.816,24.815,-114.17,1.8900000000000001,0.01464,0.01952,-1.398608,3
2024-06-14 09:34:06.821,25.865000000000002,-123.41,1.995,0.01098,0.016347999999999998,-1.42862,3
2024-06-14 09:34:06.826,26.39,-132.44,2.275,0.00732,0.0026839999999999998,-1.474736,3
2024-06-14 09:34:06.831,31.22,-141.68,2.975,0.005124,0.023424,-1.529636,3
2024-06-14 09:34:06.836,38.150000000000006,-150.955,3.92,-0.002928,-0.004392,-1.5362239999999998,3
2024-06-14 09:34:06.841,41.58,-161.42000000000002,5.46,0.0036599999999999996,-0.031476,-1.537444,3
2024-06-14 09:34:06.846,44.345,-171.745,6.825,0.0053679999999999995,-0.033672,-1.531344,3
2024-06-14 09:34:06.850,46.76,-181.65,6.965,0.012687999999999998,-0.0014640000000000005,-1.52378,3
2024-06-14 09:34:06.855,50.47,-193.935,7.595,0.00732,0.038307999999999995,-1.5328080000000002,3
2024-06-14 09:34:06.860,55.894999999999996,-205.03,7.42,0.00122,0.06417199999999999,-1.5264639999999998,3
2024-06-14 09:34:06.865,62.475,-215.81,7.63,0.005856,0.07563999999999999,-1.5769719999999998,3
2024-06-14 09:34:06.870,67.025,-229.845,7.105,-0.015371999999999999,0.072224,-1.543544,3
2024-06-14 09:34:06.875,67.375,-239.78500000000003,7.21,-0.0060999999999999995,0.047824,-1.575752,3
2024-06-14 09:34:06.880,70.66499999999999,-256.40999999999997,7.805,-0.01464,0.005124,-1.610156,3
2024-06-14 09:34:06.884,73.39500000000001,-272.825,9.555,-0.029767999999999996,-0.052704,-1.653588,3
2024-06-14 09:34:06.889,75.285,-289.975,12.425,-0.0549,-0.096868,-1.69946,3
2024-06-14 09:34:06.894,77.805,-310.87,16.1,-0.07076,-0.11468,-1.812188,3
2024-06-14 09:34:06.899,79.625,-334.46000000000004,19.494999999999997,-0.090524,-0.093208,-1.911252,3
2024-06-14 09:34:06.904,80.71000000000001,-358.225,22.26,-0.094428,-0.11297199999999999,-1.9986039999999998,3
2024-06-14 09:34:06.909,79.1,-385.105,26.25,-0.088084,-0.203252,-1.993236,3
2024-06-14 09:34:06.914,78.015,-410.54999999999995,32.06,-0.080276,-0.291336,-2.050332,3
2024-06-14 09:34:06.918,76.09,-437.22,38.29,-0.075396,-0.312808,-2.149396,3
2024-06-14 09:34:06.923,72.345,-463.12,43.785,-0.018544,-0.319152,-2.2814,3
2024-06-14 09:34:06.928,73.43,-486.185,45.745000000000005,0.12078,-0.11223999999999999,-2.5842039999999997,3
2024-06-14 09:34:06.933,67.27,-501.2,40.845,0.269376,0.17104399999999997,-2.9236079999999998,3
2024-06-14 09:34:06.938,65.135,-519.12,28.174999999999997,0.256932,0.181536,-3.015352,3
2024-06-14 09:34:06.943,65.87,-524.1600000000001,18.585,0.18202400000000002,0.146888,-3.072692,3
2024-06-14 09:34:06.948,62.510000000000005,-535.0450000000001,7.805,0.32622799999999996,0.08686400000000001,-3.1122199999999998,3
2024-06-14 09:34:06.952,66.88499999999999,-537.2850000000001,-0.35000000000000003,0.220088,-0.09881999999999999,-3.202012,3
2024-06-14 09:34:06.957,77.805,-534.835,-0.245,0.225212,-0.177632,-3.1571160000000003,3
2024-06-14 09:34:06.962,74.55000000000001,-536.06,1.33,0.15738,-0.13054,-2.987536,3
2024-06-14 09:34:06.967,81.9,-534.24,3.3249999999999997,0.08906,-0.17446,-3.078792,3
2024-06-14 09:34:06.972,84.175,-528.745,6.615,0.27937999999999996,-0.16250399999999998,-2.999492,3
2024-06-14 09:34:06.977,84.035,-535.185,11.129999999999999,0.2257,-0.096136,-2.623488,3
2024-06-14 09:34:06.982,88.9,-528.22,20.16,0.12932000000000002,-0.160796,-2.9333679999999998,3
2024-06-14 09:34:06.986,79.695,-510.265,21.91,0.158112,-0.292068,-3.055124,3
2024-06-14 09:34:06.991,74.095,-485.31,19.634999999999998,-0.208132,-0.354044,-2.935564,3
2024-06-14 09:34:06.996,88.34,-442.155,23.625,-0.711504,-0.410164,-2.5468719999999996,3
2024-06-14 09:34:07.001,103.74000000000001,-380.20500000000004,31.08,-1.343708,-0.400648,-1.918572,3
2024-06-14 09:34:07.006,101.60499999999999,-308.595,39.935,-2.0452079999999997,-0.279868,-1.2749,3
2024-06-14 09:34:07.011,92.82,-244.65,52.394999999999996,-2.491972,-0.16250399999999998,-1.022848,3
2024-06-14 09:34:07.016,73.43,-184.555,77.63,-1.964444,-0.001463999999999993,-1.224148,3
2024-06-14 09:34:07.020,35.35,-175.385,89.11,-0.915244,-0.319396,-0.654408,3
2024-06-14 09:34:07.025,-4.83,-155.05,86.76499999999999,-0.922808,-0.253272,-1.5537919999999998,4
2024-06-14 09:34:07.030,-7.49,-53.480000000000004,84.14,-1.790228,-0.0976,-1.832928,4
2024-06-14 09:34:07.035,-7.175,19.915,80.78,-1.7648519999999999,0.036844,-1.1846199999999998,4
2024-06-14 09:34:07.040,-30.1,53.165000000000006,76.09,-1.413004,-0.023912,-1.0857999999999999,4
2024-06-14 09:34:07.045,-59.71,78.75,71.47,-1.2685559999999998,-0.10248,-1.321016,4
2024-06-14 09:34:07.050,-71.435,97.685,69.51,-1.204628,-0.18544,-1.3527360000000002,4
2024-06-14 09:34:07.054,-64.61,108.5,70.945,-1.136308,-0.28547999999999996,-1.1868159999999999,4
2024-06-14 09:34:07.059,-51.625,118.16,74.13,-1.1114199999999999,-0.32086,-1.002108,4
2024-06-14 09:34:07.064,-38.185,129.535,77.07,-1.1053199999999999,-0.304268,-0.865956,4
2024-06-14 09:34:07.069,-24.71,142.8,79.44999999999999,-1.0836040000000002,-0.25229599999999996,-0.7759199999999999,4
2024-06-14 09:34:07.074,-13.335,158.26999999999998,80.78,-1.043344,-0.17519200000000001,-0.707844,4
2024-06-14 09:34:07.079,-6.895,175.595,80.465,-1.0145520000000001,-0.07198,-0.65758,4
2024-06-14 09:34:07.083,-7.279999999999999,193.515,78.01499999999999,-0.98454,0.021472,-0.623908,4
2024-06-14 09:34:07.088,-13.86,211.32999999999998,73.92,-0.949404,0.107848,-0.598776,4
2024-06-14 09:34:07.093,-24.465,228.72500000000002,68.74000000000001,-0.914512,0.168116,-0.5960920000000001,4
2024-06-14 09:34:07.098,-35.945,245.315,63.21,-0.865224,0.19568799999999997,-0.607316,4
2024-06-14 09:34:07.103,-47.040000000000006,261.065,57.855000000000004,-0.82472,0.197396,-0.62464,4
2024-06-14 09:34:07.108,-56.56,275.905,53.129999999999995,-0.7820199999999999,0.179828,-0.645868,4
2024-06-14 09:34:07.113,-63.385,289.59000000000003,49.629999999999995,-0.759328,0.147376,-0.6609959999999999,4
2024-06-14 09:34:07.117,-66.60499999999999,303.135,47.285,-0.7178479999999999,0.101992,-0.680272,4
2024-06-14 09:34:07.122,-67.025,315.66499999999996,46.095,-0.673928,0.05807199999999999,-0.7237039999999999,4
2024-06-14 09:34:07.127,-64.505,327.775,45.605000000000004,-0.643184,0.019032,-0.7615240000000001,4
2024-06-14 09:34:07.132,-60.515,339.57,46.06,-0.617076,-0.016104,-0.7856799999999999,4
2024-06-14 09:34:07.137,-56.805,350.945,46.655,-0.5917,-0.028548,-0.821548,4
2024-06-14 09:34:07.142,-53.375,362.28499999999997,47.565,-0.571936,-0.034159999999999996,-0.8571719999999999,4
2024-06-14 09:34:07.147,-50.295,373.03,48.474999999999994,-0.546316,-0.027327999999999998,-0.8991399999999999,4
2024-06-14 09:34:07.151,-48.3,382.865,48.79,-0.5163040000000001,-0.01586,-0.94062,4
2024-06-14 09:34:07.156,-47.46,391.195,48.195,-0.483364,-0.004636,-0.9803919999999999,4
2024-06-14 09:34:07.161,-47.53,398.055,47.18,-0.449204,-0.012444,-1.027728,4
2024-06-14 09:34:07.166,-47.425,403.305,45.71,-0.408212,-0.028304,-1.088972,4
2024-06-14 09:34:07.171,-48.405,406.84000000000003,44.275,-0.33476799999999995,-0.023667999999999998,-1.146068,4
2024-06-14 09:34:07.176,-47.18,408.38,42.385000000000005,-0.341844,-0.054167999999999994,-1.172176,4
2024-06-14 09:34:07.181,-41.44,413.07,42.035,-0.36648800000000004,-0.11175199999999999,-1.272948,4
2024-06-14 09:34:07.185,-35.769999999999996,421.04999999999995,41.65,-0.35916800000000004,-0.12322,-1.338584,4
2024-06-14 09:34:07.190,-29.225,427.455,41.230000000000004,-0.34940800000000005,-0.1586,-1.4181279999999998,4
2024-06-14 09:34:07.195,-23.240000000000002,434.14,40.67,-0.345016,-0.174948,-1.5154839999999998,4
2024-06-14 09:34:07.200,-15.785,440.29999999999995,40.46,-0.319884,-0.18104800000000001,-1.597224,4
2024-06-14 09:34:07.205,-6.965,445.025,40.32,-0.311588,-0.20935199999999998,-1.663348,4
2024-06-14 09:34:07.210,0.45499999999999996,449.19,39.445,-0.279624,-0.19202799999999998,-1.736792,4
2024-06-14 09:34:07.215,7.49,450.905,37.625,-0.22814,-0.185196,-1.833172,4
2024-06-14 09:34:07.219,14.595,451.605,35.84,-0.17958400000000002,-0.195932,-1.911252,4
2024-06-14 09:34:07.224,22.049999999999997,450.695,34.65,-0.15005999999999997,-0.21984399999999998,-1.9947,4
2024-06-14 09:34:07.229,30.835,449.29499999999996,34.334999999999994,-0.13346799999999998,-0.22935999999999998,-2.077416,4
2024-06-14 09:34:07.234,38.815,447.895,34.334999999999994,-0.11760799999999999,-0.2196,-2.166964,4
2024-06-14 09:34:07.239,46.2,446.985,34.58,-0.11077599999999999,-0.207644,-2.277008,4
2024-06-14 09:34:07.244,53.34,447.79,35.14,-0.108092,-0.197884,-2.3924199999999995,4
2024-06-14 09:34:07.249,59.57,449.75,35.7,-0.105408,-0.18836799999999998,-2.5156400000000003,4
2024-06-14 09:34:07.253,65.065,451.99,36.224999999999994,-0.09296399999999999,-0.179828,-2.6805839999999996,4
2024-06-14 09:34:07.258,69.82499999999999,454.825,36.435,-0.048312,-0.168116,-2.846504,4
2024-06-14 09:34:07.263,74.16499999999999,457.87,35.595,0.010979999999999997,-0.152012,-2.989,4
2024-06-14 09:34:07.268,77.735,460.845,33.565,0.096868,-0.13785999999999998,-3.100996,4
2024-06-14 09:34:07.273,80.745,464.345,29.994999999999997,0.22155199999999997,-0.10736,-3.137352,4
2024-06-14 09:34:07.278,87.43,465.46500000000003,25.2,0.318664,-0.06734399999999999,-3.201768,4
2024-06-14 09:34:07.283,101.95500000000001,464.45,22.085,0.43846799999999997,-0.073444,-3.33792,4
2024-06-14 09:34:07.287,119.105,462.14,20.265,0.6253719999999999,-0.009515999999999997,-3.426004,4
2024-06-14 09:34:07.292,133.595,456.365,16.695,0.802516,0.084668,-3.5040839999999998,4
2024-06-14 09:34:07.297,143.53500000000003,447.615,11.445,0.992104,0.181292,-3.581432,4
2024-06-14 09:34:07.302,148.505,436.52,4.2,1.213168,0.281088,-3.62462,4
2024-06-14 09:34:07.307,147.98,422.87,-5.005,1.453264,0.35575199999999996,-3.6631719999999994,4
2024-06-14 09:34:07.312,142.38,408.31,-15.399999999999999,1.729228,0.40991999999999995,-3.65634,4
2024-06-14 09:34:07.317,132.895,391.65,-26.495,2.0535039999999998,0.422608,-3.6102239999999997,4
2024-06-14 09:34:07.321,121.065,373.24,-36.89,2.3648480000000003,0.396744,-3.5248239999999997,4
2024-06-14 09:34:07.326,108.955,352.87,-45.815,2.7274320000000003,0.3416,-3.3459719999999997,4
2024-06-14 09:34:07.331,95.55,328.82500000000005,-53.269999999999996,3.080256,0.279136,-3.122956,4
2024-06-14 09:34:07.339,82.985,301.84000000000003,-57.68,3.396236,0.151768,-2.83528,4
2024-06-14 09:34:07.344,74.2,271.285,-56.945,3.6966,0.012200000000000003,-2.517348,4
2024-06-14 09:34:07.349,74.235,238.56,-49.14,3.975248,-0.110288,-2.247972,4
2024-06-14 09:34:07.353,90.09,207.48000000000002,-33.81,4.3151399999999995,-0.13054,-2.013976,4
2024-06-14 09:34:07.358,115.43,178.01,-14.245000000000001,4.605744,-0.032696,-1.883192,4
2024-06-14 09:34:07.363,131.35500000000002,146.615,2.6950000000000003,4.773616,0.264984,-1.793888,4
2024-06-14 09:34:07.368,131.04000000000002,114.065,12.11,4.917332,0.64782,-1.701412,4
2024-06-14 09:34:07.373,116.47999999999999,81.655,13.685,5.113996,0.922808,-1.6899440000000001,4
2024-06-14 09:34:07.378,92.68,47.075,9.379999999999999,5.173287999999999,1.074088,-1.709708,4
2024-06-14 09:34:07.382,65.87,9.625,1.33,5.067636,1.1721759999999999,-1.690676,4
2024-06-14 09:34:07.387,40.425,-29.82,-8.715,4.868288,1.137284,-1.695312,4
2024-06-14 09:34:07.392,16.975,-68.88,-20.509999999999998,4.567924,1.056276,-1.7526519999999999,4
2024-06-14 09:34:07.397,-3.675,-105.245,-34.265,4.194604,0.91866,-1.757776,4
2024-06-14 09:34:07.402,-19.145000000000003,-135.485,-50.120000000000005,3.765652,0.711992,-1.75436,4
2024-06-14 09:34:07.407,-27.439999999999998,-158.2,-66.675,3.326208,0.45945199999999997,-1.771928,4
2024-06-14 09:34:07.411,-27.685000000000002,-175.83999999999997,-82.32,2.9172640000000003,0.183,-1.8426879999999999,4
2024-06-14 09:34:07.416,-24.64,-189.945,-95.235,2.353624,-0.6463559999999999,-1.2444000000000002,4
